sep=,
DeviceTag:,L Foot - 2,,,,,,,,,,,,,,,,,
FirmwareVersion:,3.0.0,,,,,,,,,,,,,,,,,
AppVersion:,2023.6.1,,,,,,,,,,,,,,,,,
StartTime:,2024-05-23 11:49:42.000 +0200,,,,,,,,,,,,,,,,,
 2024,,,,,,,,,,,,,,,,,,,

PacketCounter,SampleTimeFine,Quat_W,Quat_X,Quat_Y,Quat_Z,Acc_X,Acc_Y,Acc_Z,Gyr_X,Gyr_Y,Gyr_Z,
0, 2485177127, 0.9129011, 0.28570887, -0.29074115, 0.021249304, 0.0, 0.0, 0.0, 0.0, 0.0, 0.0, 
1, 2485193794, 0.912498, 0.2870724, -0.29069278, 0.020844053, 5.278342247009277, 5.085693836212158, 6.459585666656494, 3.5324971675872803, 0.28960922360420227, -1.2391681671142578, 
2, 2485210461, 0.9120477, 0.28859523, -0.29064813, 0.02013761, 5.277132987976074, 5.134043216705322, 6.485062122344971, 3.248042345046997, 0.2728969156742096, -0.8301972150802612, 
3, 2485227128, 0.9116556, 0.29015133, -0.29035136, 0.01981958, 5.281296253204346, 5.063902378082275, 6.481265544891357, 2.9300737380981445, 0.16738539934158325, -0.6120283007621765, 
4, 2485243795, 0.9114094, 0.29109046, -0.2901928, 0.019683117, 5.289384365081787, 5.082553863525391, 6.49240779876709, 2.7622082233428955, -0.03995581343770027, -0.5426946878433228, 
5, 2485260462, 0.911263, 0.29161337, -0.29014233, 0.019468404, 5.279548168182373, 5.120886325836182, 6.471912860870361, 2.222125768661499, -0.0811922624707222, -0.45745566487312317, 
6, 2485277129, 0.91115034, 0.29197934, -0.29014587, 0.019200334, 5.279269218444824, 5.101959228515625, 6.472893714904785, 1.684425711631775, -0.08591780066490173, -0.23296032845973969, 
7, 2485293796, 0.91107666, 0.29221633, -0.2901589, 0.018889977, 5.311819076538086, 5.077248573303223, 6.455010414123535, 1.5120264291763306, 0.16308243572711945, -0.22404706478118896, 
8, 2485310463, 0.91101825, 0.29245326, -0.29009372, 0.019039871, 5.295575141906738, 5.12069845199585, 6.447839736938477, 1.175744652748108, 0.35772618651390076, -0.01995229162275791, 
9, 2485327130, 0.9109905, 0.2925055, -0.29014403, 0.018803062, 5.277963161468506, 5.097654342651367, 6.495736122131348, 0.7312489151954651, 0.5657780766487122, 0.06759831309318542, 
10, 2485343797, 0.9109869, 0.29248726, -0.29018906, 0.01856083, 5.289693355560303, 5.106766700744629, 6.459012985229492, 0.5968335866928101, 0.5293697118759155, 0.2226192057132721, 
11, 2485360464, 0.91099584, 0.29244477, -0.29021248, 0.018425751, 5.277151584625244, 5.097436428070068, 6.457181930541992, 0.2590532600879669, 0.5468246936798096, 0.3666522204875946, 
12, 2485377131, 0.9110015, 0.29247382, -0.29015628, 0.018571442, 5.283116340637207, 5.073662757873535, 6.468827247619629, 0.1272374838590622, 0.41625118255615234, 0.3376201391220093, 
13, 2485393798, 0.9110233, 0.29228038, -0.2903111, 0.018115671, 5.291910648345947, 5.102839946746826, 6.486435413360596, 0.07972592860460281, 0.3477500379085541, 0.4337831139564514, 
14, 2485410465, 0.9110547, 0.29213902, -0.2903632, 0.017983876, 5.284626007080078, 5.082040786743164, 6.471458435058594, -0.26699957251548767, 0.331332266330719, 0.500017523765564, 
15, 2485427132, 0.9110949, 0.2919849, -0.29039574, 0.017922616, 5.271050453186035, 5.039741516113281, 6.495569229125977, -0.5292223691940308, 0.2786213457584381, 0.48777467012405396, 
16, 2485443799, 0.91114444, 0.2914484, -0.29086873, 0.016403487, 5.299678325653076, 4.995035171508789, 6.499910354614258, 0.17570950090885162, 0.3790743350982666, 0.2747538089752197, 
17, 2485460466, 0.91115254, 0.2913306, -0.29098526, 0.015974676, 5.243733882904053, 5.058470249176025, 6.510121822357178, 0.8110965490341187, 0.3966062366962433, 0.04403463006019592, 
18, 2485477133, 0.9111255, 0.29168156, -0.29066795, 0.016862517, 5.279983043670654, 5.0457444190979, 6.470305919647217, 1.1521552801132202, 0.3612223267555237, -0.048139069229364395, 
19, 2485493800, 0.9110946, 0.29201734, -0.29037744, 0.017706286, 5.297522068023682, 5.076630592346191, 6.490835189819336, 1.1358014345169067, 0.28420490026474, -0.037164028733968735, 
20, 2485510467, 0.9110753, 0.2922648, -0.29014897, 0.018350907, 5.271157741546631, 5.049797058105469, 6.489735126495361, 0.8891128897666931, 0.2749459445476532, -0.05208342522382736, 
21, 2485527134, 0.9110518, 0.29227382, -0.29023165, 0.018063795, 5.277247428894043, 5.059497356414795, 6.495230197906494, 1.3162943124771118, 0.15117256343364716, -0.11912468075752258, 
22, 2485543801, 0.9110299, 0.29232734, -0.29024994, 0.018014252, 5.271376609802246, 5.079394340515137, 6.470348358154297, 1.1465076208114624, 0.13209110498428345, 0.02258399873971939, 
23, 2485560468, 0.9110308, 0.29221985, -0.29037765, 0.017649291, 5.274033546447754, 5.106736183166504, 6.457743167877197, 0.8411914110183716, 0.261358380317688, 0.3486592471599579, 
24, 2485577135, 0.9110331, 0.29220647, -0.29037818, 0.017737474, 5.2858991622924805, 5.076243877410889, 6.495440483093262, 0.4754805266857147, 0.20471589267253876, 0.537885844707489, 
25, 2485593802, 0.9110169, 0.29229593, -0.2903201, 0.018046824, 5.287680149078369, 5.042062282562256, 6.505720138549805, 0.7467830777168274, 0.14275875687599182, 0.5680319666862488, 
26, 2485610469, 0.9110026, 0.2923153, -0.2903364, 0.018196447, 5.274847507476807, 5.087850570678711, 6.478607177734375, 0.6631447672843933, 0.012095596641302109, 0.6653474569320679, 
27, 2485627136, 0.9109909, 0.29221922, -0.29047868, 0.018047577, 5.254895210266113, 5.1082000732421875, 6.5067572593688965, 0.5744736790657043, -0.12052055448293686, 0.8495668172836304, 
28, 2485643803, 0.9109733, 0.29216033, -0.29058763, 0.01813342, 5.290221691131592, 5.100451469421387, 6.509761333465576, 0.4446685016155243, -0.28587615489959717, 1.191317081451416, 
29, 2485660470, 0.9109529, 0.29212806, -0.29066503, 0.018433735, 5.293240070343018, 5.107016563415527, 6.498391151428223, 0.29681918025016785, -0.37828677892684937, 1.5236163139343262, 
30, 2485677137, 0.9109486, 0.29202405, -0.2907632, 0.018748429, 5.288303375244141, 5.138347148895264, 6.4963884353637695, -0.09123243391513824, -0.3563750684261322, 1.9157081842422485, 
31, 2485693804, 0.91101015, 0.29169, -0.2908862, 0.019050423, 5.3020477294921875, 5.198478698730469, 6.473545074462891, -1.174790382385254, 0.15105730295181274, 3.0257370471954346, 
32, 2485710471, 0.91113466, 0.2910787, -0.29109246, 0.019286437, 5.277712821960449, 5.109803676605225, 6.505990505218506, -2.668996810913086, 0.21197709441184998, 4.051000595092773, 
33, 2485727138, 0.91124237, 0.29061058, -0.29119185, 0.019752948, 5.294497966766357, 5.017065525054932, 6.526372909545898, -2.1505706310272217, 0.4410187005996704, 3.942134141921997, 
34, 2485743805, 0.9113361, 0.28980082, -0.2917558, 0.01898814, 5.2977824211120605, 4.930489540100098, 6.552184581756592, -2.094529628753662, -0.45029687881469727, 3.538285493850708, 
35, 2485760472, 0.91133565, 0.28957996, -0.29194367, 0.019492295, 5.329967975616455, 4.875057697296143, 6.573902606964111, -1.1209781169891357, -1.1215288639068604, 2.798821210861206, 
36, 2485777139, 0.9112552, 0.2897839, -0.29190746, 0.02072272, 5.323095321655273, 4.943912982940674, 6.538906097412109, -0.08586657792329788, -1.6600357294082642, 1.970032811164856, 
37, 2485793806, 0.9111952, 0.28947565, -0.29244435, 0.020083325, 5.31154727935791, 4.96821403503418, 6.539522171020508, 0.27784013748168945, -1.811803936958313, 1.4446778297424316, 
38, 2485810473, 0.91111845, 0.28954428, -0.29257825, 0.020622067, 5.35260534286499, 5.014405727386475, 6.47856330871582, 0.2621011435985565, -1.6275973320007324, 1.3791478872299194, 
39, 2485827140, 0.91107297, 0.28956336, -0.2926535, 0.021285307, 5.351289749145508, 5.021238803863525, 6.472471714019775, -0.26127514243125916, -1.2966172695159912, 1.6686482429504395, 
40, 2485843807, 0.9110672, 0.28947532, -0.29271784, 0.021843065, 5.335400581359863, 4.9813385009765625, 6.484622955322266, -0.6592581272125244, -0.7826601266860962, 1.89925217628479, 
41, 2485860474, 0.9110861, 0.28918678, -0.29295188, 0.021735948, 5.340663909912109, 4.98149299621582, 6.493639945983887, -0.6221964359283447, -0.5334357023239136, 1.7539255619049072, 
42, 2485877141, 0.9111153, 0.28886408, -0.29320064, 0.021450719, 5.355947017669678, 4.922295570373535, 6.513494491577148, -0.5244969725608826, -0.2977220118045807, 1.5800026655197144, 
43, 2485893808, 0.91112965, 0.28872755, -0.29328194, 0.021562213, 5.367729663848877, 4.945000648498535, 6.515298366546631, -0.28238001465797424, -0.19141650199890137, 1.1885124444961548, 
44, 2485910475, 0.91114193, 0.28870913, -0.29322487, 0.022059148, 5.36436128616333, 4.9600605964660645, 6.519053936004639, -0.3046758770942688, -0.05358177050948143, 1.1945058107376099, 
45, 2485927142, 0.9111628, 0.2885844, -0.29327637, 0.022149766, 5.350341796875, 4.916255474090576, 6.506978988647461, -0.23570086061954498, -0.011282393708825111, 0.9918708801269531, 
46, 2485943809, 0.9111655, 0.28855386, -0.29328743, 0.022291565, 5.339653015136719, 4.89927864074707, 6.510885715484619, 0.2192382961511612, 0.022916963323950768, 0.6915620565414429, 
47, 2485960476, 0.9111668, 0.28844607, -0.29341042, 0.022008669, 5.374864101409912, 4.9358062744140625, 6.511200428009033, 0.5100576877593994, 0.019356796517968178, 0.3824552595615387, 
48, 2485977143, 0.9111672, 0.28845495, -0.29339755, 0.022043798, 5.349040508270264, 4.95831823348999, 6.49752140045166, 0.5586193799972534, 0.22588476538658142, 0.24143168330192566, 
49, 2485993810, 0.91120213, 0.28830063, -0.29346427, 0.021727705, 5.362101078033447, 4.989917278289795, 6.487650394439697, 0.2537834048271179, 0.542681872844696, 0.3492547273635864, 
50, 2486010477, 0.9112515, 0.2881855, -0.2934227, 0.021751761, 5.324561595916748, 4.951033592224121, 6.507699489593506, -0.2359057515859604, 0.6156076192855835, 0.5056523084640503, 
51, 2486027144, 0.91127616, 0.28818676, -0.29333255, 0.021915078, 5.365959644317627, 4.923689842224121, 6.5055251121521, 0.193868950009346, 0.5271158218383789, 0.2813362777233124, 
52, 2486043811, 0.9113234, 0.2878023, -0.29364216, 0.02082796, 5.361789703369141, 4.931271553039551, 6.540797233581543, 0.3494916558265686, 0.5108004212379456, 0.3035168945789337, 
53, 2486060478, 0.91134274, 0.2877713, -0.29361653, 0.020775203, 5.367683410644531, 4.933267116546631, 6.546572685241699, 0.42562544345855713, 0.4925386607646942, 0.15442538261413574, 
54, 2486077145, 0.91134346, 0.2879005, -0.29345948, 0.021169486, 5.341577053070068, 4.955979824066162, 6.5337233543396, 0.5803261399269104, 0.45249316096305847, 0.18984773755073547, 
55, 2486093812, 0.9113565, 0.2878924, -0.29342413, 0.021204136, 5.3520588874816895, 4.963832855224609, 6.515216827392578, 0.45309507846832275, 0.42320504784584045, 0.2686452269554138, 
56, 2486110479, 0.9113957, 0.28763124, -0.29360682, 0.020521412, 5.353239059448242, 4.943233966827393, 6.5199875831604, 0.313467413187027, 0.5176646113395691, 0.3198449909687042, 
57, 2486127146, 0.91139525, 0.28767064, -0.29356417, 0.02060111, 5.343822956085205, 4.887058734893799, 6.5638747215271, 0.6146919131278992, 0.29553210735321045, 0.14878416061401367, 
58, 2486143813, 0.91138095, 0.2877171, -0.29356658, 0.020552948, 5.350156784057617, 4.938818454742432, 6.555688381195068, 0.8859880566596985, 0.14401379227638245, -0.03077365830540657, 
59, 2486160480, 0.9113741, 0.28774223, -0.29356843, 0.020479627, 5.349112510681152, 4.963037490844727, 6.539120197296143, 0.8761783838272095, 0.2978948950767517, 0.08570648729801178, 
60, 2486177147, 0.91137683, 0.28775403, -0.29355505, 0.020384863, 5.3386406898498535, 4.934987545013428, 6.531918048858643, 0.725754976272583, 0.35697057843208313, -0.075275719165802, 
61, 2486193814, 0.91136867, 0.2878359, -0.29349625, 0.020436246, 5.338234901428223, 4.940481185913086, 6.521692752838135, 0.910973310470581, 0.3551008701324463, -0.07682529091835022, 
62, 2486210481, 0.9113585, 0.28788984, -0.29348013, 0.020361384, 5.357461929321289, 4.923003196716309, 6.5421929359436035, 1.0117015838623047, 0.3372936248779297, -0.08408648520708084, 
63, 2486227148, 0.9113325, 0.28805822, -0.29338133, 0.020563493, 5.34116268157959, 4.91504430770874, 6.544099807739258, 1.2041106224060059, 0.2991883158683777, -0.10836733132600784, 
64, 2486243815, 0.91130394, 0.28816095, -0.29337454, 0.02048742, 5.350335121154785, 4.974895477294922, 6.541354179382324, 1.4163631200790405, 0.2931693494319916, -0.09346073120832443, 
65, 2486260482, 0.911285, 0.28828058, -0.29330498, 0.02064634, 5.323925495147705, 4.9696455001831055, 6.510405540466309, 1.0358415842056274, 0.27159708738327026, 0.06542763859033585, 
66, 2486277149, 0.91126734, 0.28844857, -0.29317123, 0.020978052, 5.335784435272217, 4.938755512237549, 6.528054237365723, 0.9352348446846008, 0.30383065342903137, 0.016020743176341057, 
67, 2486293816, 0.911242, 0.2885751, -0.29311657, 0.021099254, 5.359956741333008, 4.9287004470825195, 6.561103820800781, 1.090211033821106, 0.16240373253822327, -0.05353054404258728, 
68, 2486310483, 0.91121155, 0.28866175, -0.29312932, 0.021052869, 5.337972640991211, 4.945880889892578, 6.502787113189697, 1.2011265754699707, 0.06262945383787155, -0.049573373049497604, 
69, 2486327150, 0.91116846, 0.288929, -0.29296744, 0.02150079, 5.327445983886719, 4.942624568939209, 6.547935485839844, 1.2093613147735596, 0.03977012261748314, -0.2945076525211334, 
70, 2486343817, 0.91115254, 0.28884122, -0.2931488, 0.020873817, 5.336521625518799, 4.977780342102051, 6.506442546844482, 1.1593396663665771, 0.039437152445316315, -0.2593029737472534, 
71, 2486360484, 0.91114765, 0.28881857, -0.29320696, 0.02057607, 5.349783897399902, 4.929539203643799, 6.520167350769043, 0.8585056662559509, 0.1864156275987625, -0.2219468355178833, 
72, 2486377151, 0.9111526, 0.28890926, -0.29309493, 0.020684721, 5.347793102264404, 4.951644420623779, 6.525015354156494, 0.6904287338256836, 0.4662535786628723, -0.3091709017753601, 
73, 2486393818, 0.9111684, 0.28909233, -0.2928335, 0.021128204, 5.3325581550598145, 4.952788829803467, 6.498677730560303, 0.534607470035553, 0.7360641956329346, -0.4127614498138428, 
74, 2486410485, 0.91120106, 0.2891316, -0.29269233, 0.021137225, 5.356045722961426, 4.936058521270752, 6.530581951141357, 0.5132976770401001, 0.8877169489860535, -0.42363402247428894, 
75, 2486427152, 0.9112473, 0.2891129, -0.29257795, 0.020986008, 5.343937873840332, 4.953207015991211, 6.535643577575684, 0.4634554386138916, 1.0623699426651, -0.4552401602268219, 
76, 2486443819, 0.9112531, 0.2895936, -0.29197863, 0.022402795, 5.352336883544922, 4.958502292633057, 6.550288677215576, 0.551800012588501, 1.0696632862091064, -0.2846979796886444, 
77, 2486460486, 0.9112915, 0.28973243, -0.2916826, 0.022898378, 5.322693824768066, 4.983625411987305, 6.5409088134765625, 0.3411291241645813, 1.1239941120147705, -0.05502888560295105, 
78, 2486477153, 0.9113385, 0.28971356, -0.291544, 0.023027882, 5.340532302856445, 4.955697059631348, 6.5637431144714355, 0.25733718276023865, 1.037756085395813, 0.3208310604095459, 
79, 2486493820, 0.9113651, 0.28965357, -0.29153687, 0.022818552, 5.3272881507873535, 4.9417033195495605, 6.571861743927002, 0.8434966802597046, 0.9178759455680847, 0.3743104338645935, 
80, 2486510487, 0.9113742, 0.28965253, -0.29150826, 0.022836592, 5.316762924194336, 4.906374454498291, 6.585184574127197, 1.0857672691345215, 0.8644094467163086, 0.8628214597702026, 
81, 2486527154, 0.9113641, 0.28978413, -0.2913688, 0.02334929, 5.33651876449585, 5.019964218139648, 6.512807846069336, 0.9157373309135437, 0.5408185720443726, 0.982112467288971, 
82, 2486543821, 0.9113804, 0.2897373, -0.2913559, 0.023452627, 5.319253444671631, 4.920732021331787, 6.545091152191162, 0.7763465642929077, 0.7882693409919739, 1.3004465103149414, 
83, 2486560488, 0.91142446, 0.28936604, -0.29164457, 0.022721708, 5.320708751678467, 4.981783866882324, 6.532444477081299, 0.13878239691257477, 0.3327473998069763, 1.1698087453842163, 
84, 2486577155, 0.91141284, 0.289328, -0.29170948, 0.022841094, 5.325849533081055, 4.91432523727417, 6.572519302368164, 0.4682193994522095, -0.14827193319797516, 1.0127453804016113, 
85, 2486593822, 0.9113779, 0.28932932, -0.2918164, 0.022852, 5.331013202667236, 4.888261318206787, 6.547752380371094, 0.8213929533958435, -0.4177815616130829, 0.6746321320533752, 
86, 2486610489, 0.9113362, 0.28937906, -0.29188177, 0.023049254, 5.346652507781982, 4.9588541984558105, 6.535670757293701, 0.7254348993301392, -0.5556547045707703, 0.6812658309936523, 
87, 2486627156, 0.9112962, 0.28962713, -0.2916778, 0.02407537, 5.33558988571167, 4.986578941345215, 6.563691139221191, 0.2848324477672577, -0.4542284607887268, 0.8230193257331848, 
88, 2486643823, 0.91132456, 0.28938332, -0.29184803, 0.02386549, 5.332828998565674, 4.991063594818115, 6.5313310623168945, -0.326203316450119, -0.19026391208171844, 1.0557619333267212, 
89, 2486660490, 0.9113705, 0.28906372, -0.29204267, 0.023602914, 5.348952293395996, 4.9386067390441895, 6.54830265045166, -0.5997469425201416, -0.07387983053922653, 1.3428417444229126, 
90, 2486677157, 0.9114238, 0.28870738, -0.2922552, 0.023274135, 5.325985908508301, 4.929671287536621, 6.566507339477539, -0.6633497476577759, -0.004078822210431099, 1.4110292196273804, 
91, 2486693824, 0.9114643, 0.28850037, -0.2923281, 0.023340967, 5.348508358001709, 4.806600570678711, 6.605777740478516, -0.5168002247810364, 0.06478091329336166, 1.3320845365524292, 
92, 2486710491, 0.9114695, 0.2884756, -0.29230896, 0.023679093, 5.365140438079834, 4.910518646240234, 6.542470932006836, -0.1861402988433838, -0.27913999557495117, 0.7247049808502197, 
93, 2486727158, 0.9114837, 0.28829378, -0.2924595, 0.023488075, 5.3423285484313965, 4.942934036254883, 6.580150127410889, -0.020394112914800644, -0.23560483753681183, 0.7878082394599915, 
94, 2486743825, 0.9115053, 0.28808835, -0.29260808, 0.02331998, 5.340327262878418, 4.921704292297363, 6.544329643249512, -0.1003633588552475, -0.13490207493305206, 1.0139490365982056, 
95, 2486760492, 0.9115301, 0.28798562, -0.2926154, 0.023524575, 5.35635232925415, 4.925597667694092, 6.5710577964782715, -0.1750115603208542, 0.08981092274188995, 1.06534743309021, 
96, 2486777159, 0.91156423, 0.28778958, -0.2927056, 0.023481738, 5.364544868469238, 4.900862216949463, 6.582819938659668, -0.21352025866508484, 0.11379081755876541, 1.1601848602294922, 
97, 2486793826, 0.9116095, 0.28765473, -0.2926799, 0.023698064, 5.363492965698242, 4.928450107574463, 6.547338008880615, -0.3136659264564514, 0.418178528547287, 1.2043988704681396, 
98, 2486810493, 0.91167533, 0.28739458, -0.29274008, 0.023574738, 5.299765586853027, 4.8034210205078125, 6.632773399353027, -0.21200911700725555, 0.7906832695007324, 1.4698039293289185, 
99, 2486827160, 0.91171634, 0.28727633, -0.29270744, 0.023837684, 5.426077365875244, 4.931870937347412, 6.474126815795898, -0.40664005279541016, 0.24997356534004211, 1.075150728225708, 
100, 2486843827, 0.9117658, 0.28710303, -0.29271576, 0.023928538, 5.337198734283447, 4.898825168609619, 6.586030960083008, -0.36043474078178406, 0.3932510316371918, 1.1077557802200317, 
101, 2486860494, 0.91181177, 0.2869314, -0.29272985, 0.024062553, 5.335030555725098, 4.827117443084717, 6.604572296142578, -0.42225098609924316, 0.2730121910572052, 1.1773838996887207, 
102, 2486877161, 0.91181743, 0.286935, -0.2926797, 0.024415934, 5.37677526473999, 4.914992332458496, 6.552558898925781, 0.258809894323349, 0.10944946110248566, 0.9218459129333496, 
103, 2486893828, 0.91180724, 0.28704146, -0.29255334, 0.025049355, 5.321617126464844, 4.836578845977783, 6.6335368156433105, 0.25993049144744873, -0.0725671797990799, 0.8051735758781433, 
104, 2486910495, 0.911822, 0.2869296, -0.29260954, 0.025135972, 5.348905086517334, 4.895554542541504, 6.586827278137207, -0.013574730604887009, -0.10864906758069992, 0.9138546586036682, 
105, 2486927162, 0.91184694, 0.2868771, -0.2925478, 0.025548054, 5.369630813598633, 4.913434982299805, 6.557590484619141, -0.23731444776058197, 0.11261262744665146, 1.0756757259368896, 
106, 2486943829, 0.91192067, 0.28646383, -0.2927586, 0.025131445, 5.361692428588867, 4.9046525955200195, 6.579676628112793, -0.7665753364562988, 0.21846991777420044, 1.4270435571670532, 
107, 2486960496, 0.91199595, 0.28617093, -0.2928022, 0.025230452, 5.3214006423950195, 4.78604793548584, 6.624862194061279, -0.7180008292198181, 0.6193214654922485, 1.9422687292099, 
108, 2486977163, 0.9120354, 0.2860165, -0.29279557, 0.025631588, 5.415105819702148, 4.867690086364746, 6.552340984344482, -0.7984119057655334, -0.08818452805280685, 1.4717762470245361, 
109, 2486993830, 0.9120574, 0.28582013, -0.29292086, 0.025604673, 5.353019714355469, 4.83521032333374, 6.6399383544921875, -0.18998220562934875, -0.20510651171207428, 1.2108532190322876, 
110, 2487010497, 0.91205597, 0.28579044, -0.29291865, 0.02601091, 5.332267761230469, 4.824254512786865, 6.632370948791504, -0.034461889415979385, -0.3262161612510681, 1.1153113842010498, 
111, 2487027164, 0.9120355, 0.2858023, -0.29293886, 0.026362836, 5.382266998291016, 4.813180923461914, 6.599698543548584, 0.2756630778312683, -0.5064271092414856, 0.8861032724380493, 
112, 2487043831, 0.91200906, 0.28580105, -0.29300553, 0.026549416, 5.384065628051758, 4.843704700469971, 6.58419132232666, 0.5734618902206421, -0.49525997042655945, 0.8177943229675293, 
113, 2487060498, 0.91200095, 0.28566417, -0.29318, 0.026379067, 5.371930122375488, 4.826345443725586, 6.588502883911133, 0.5311753153800964, -0.35768136382102966, 0.9659124612808228, 
114, 2487077165, 0.91196996, 0.2857897, -0.29310215, 0.026948536, 5.401852130889893, 4.908735752105713, 6.580802917480469, 0.8773950934410095, -0.07522450387477875, 1.0915812253952026, 
115, 2487093832, 0.9119767, 0.28572938, -0.29312894, 0.027070215, 5.3362908363342285, 4.758310794830322, 6.621822834014893, 0.39217525720596313, 0.042433835566043854, 0.8848482966423035, 
116, 2487110499, 0.9119592, 0.2858386, -0.2930258, 0.027617969, 5.405004501342773, 4.822859764099121, 6.5809125900268555, 0.5732442140579224, -0.0629304051399231, 0.7589362859725952, 
117, 2487127166, 0.9119588, 0.28573704, -0.29313934, 0.027477225, 5.3749213218688965, 4.8148322105407715, 6.6035919189453125, 0.5856919884681702, -0.14092107117176056, 0.6521825790405273, 
118, 2487143833, 0.91196966, 0.28575733, -0.29304865, 0.02786949, 5.390860557556152, 4.86266565322876, 6.579921245574951, 0.2547374963760376, 0.176208958029747, 0.6966718435287476, 
119, 2487160500, 0.91200244, 0.28553635, -0.29319274, 0.027541306, 5.372471809387207, 4.836484432220459, 6.615865707397461, 0.23290911316871643, 0.1451599895954132, 0.7829418182373047, 
120, 2487177167, 0.91200256, 0.28555387, -0.29313818, 0.027934816, 5.359589576721191, 4.831521987915039, 6.595261096954346, 0.35159191489219666, 0.006166257429867983, 0.8981668949127197, 
121, 2487193834, 0.9119723, 0.28566265, -0.29308304, 0.028385181, 5.356422424316406, 4.850246906280518, 6.610540390014648, 1.1629317998886108, 0.10531943291425705, 1.1473721265792847, 
122, 2487210501, 0.9119737, 0.28564194, -0.2930744, 0.028637577, 5.395403861999512, 4.764259338378906, 6.62915563583374, 0.392892450094223, -0.043784916400909424, 0.8486576080322266, 
123, 2487227168, 0.9119527, 0.28562635, -0.29314548, 0.02873548, 5.410200595855713, 4.824758052825928, 6.591431617736816, 0.6999182105064392, -0.37644901871681213, 0.7035552263259888, 
124, 2487243835, 0.9119581, 0.2853418, -0.29347458, 0.028022997, 5.400207042694092, 4.787695407867432, 6.593067169189453, 0.5990874171257019, -0.4509499669075012, 0.6687027215957642, 
125, 2487260502, 0.9119444, 0.2852778, -0.29357937, 0.028024124, 5.379461765289307, 4.837841033935547, 6.598850250244141, 0.5393458604812622, -0.44366320967674255, 0.6693559288978577, 
126, 2487277169, 0.911945, 0.28513008, -0.29374036, 0.02781393, 5.387809753417969, 4.8372344970703125, 6.5828399658203125, 0.4453151822090149, -0.35377538204193115, 0.6963323950767517, 
127, 2487293836, 0.9119372, 0.285136, -0.2937264, 0.028160635, 5.38031530380249, 4.844459056854248, 6.594651699066162, 0.35205936431884766, -0.24900025129318237, 0.839571475982666, 
128, 2487310503, 0.91191304, 0.28524223, -0.29365566, 0.028601173, 5.371854782104492, 4.838486671447754, 6.598494529724121, 1.2621427774429321, 0.27953702211380005, 1.17851722240448, 
129, 2487327170, 0.91196424, 0.28504562, -0.29368266, 0.028648408, 5.417265892028809, 4.77493143081665, 6.597684860229492, -0.3686180114746094, 0.22281768918037415, 0.9802749752998352, 
130, 2487343837, 0.91199267, 0.2849227, -0.29370093, 0.028780293, 5.431530952453613, 4.80780553817749, 6.580190658569336, -0.05934461951255798, 0.03448750078678131, 0.8865066766738892, 
131, 2487360504, 0.91202736, 0.28471607, -0.29380783, 0.028632998, 5.378729820251465, 4.811814785003662, 6.600107669830322, 0.012761526741087437, 0.03446828946471214, 0.8964636325836182, 
132, 2487377171, 0.91205853, 0.28456455, -0.29385585, 0.028655905, 5.410071849822998, 4.812644958496094, 6.614920616149902, 0.01335061900317669, 0.07867580652236938, 0.890367865562439, 
133, 2487393838, 0.9120609, 0.28455043, -0.2938418, 0.028863486, 5.324547290802002, 4.779681205749512, 6.6541619300842285, 1.1195374727249146, 0.55631422996521, 1.4014179706573486, 
134, 2487410505, 0.9120863, 0.2843834, -0.29389408, 0.029171437, 5.492281913757324, 4.93557596206665, 6.555692672729492, -0.17281527817249298, -0.0339176170527935, 1.8836603164672852, 
135, 2487427172, 0.9121009, 0.28424695, -0.29394332, 0.029544514, 5.305277347564697, 4.71403694152832, 6.706266403198242, 0.4110454022884369, 0.31198829412460327, 2.5121192932128906, 
136, 2487443839, 0.9120755, 0.28413633, -0.29409257, 0.029905597, 5.467218399047852, 4.794032573699951, 6.555381774902344, 0.43964195251464844, -0.6019432544708252, 2.3733878135681152, 
137, 2487460506, 0.91201526, 0.28409994, -0.2943054, 0.029995717, 5.362627983093262, 4.741298675537109, 6.651501178741455, 1.5760197639465332, -0.567615807056427, 2.052992343902588, 
138, 2487477173, 0.9119438, 0.28416982, -0.29441398, 0.030441131, 5.416383266448975, 4.78034782409668, 6.57020902633667, 1.4126429557800293, -0.7129999399185181, 1.9376393556594849, 
139, 2487493840, 0.9118921, 0.28419474, -0.29452312, 0.030699681, 5.395501136779785, 4.759331703186035, 6.5896382331848145, 1.3678719997406006, -0.4470504820346832, 1.636754035949707, 
140, 2487510507, 0.91187745, 0.28415912, -0.2945641, 0.031067092, 5.457189559936523, 4.80266809463501, 6.548325061798096, 0.3901838958263397, -0.40279173851013184, 1.3807294368743896, 
141, 2487527174, 0.91186893, 0.2841834, -0.29451558, 0.03155134, 5.423795700073242, 4.7228193283081055, 6.589986324310303, 0.3187052309513092, -0.23655888438224792, 0.9855703711509705, 
142, 2487543841, 0.9118593, 0.28430185, -0.29435158, 0.032284666, 5.442126750946045, 4.783761501312256, 6.592616081237793, 0.3465013802051544, -0.045270439237356186, 0.8034446835517883, 
143, 2487560508, 0.91189086, 0.28413737, -0.2944237, 0.03218396, 5.428228378295898, 4.774862766265869, 6.586293697357178, 0.22951538860797882, 0.12424720078706741, 0.7664216160774231, 
144, 2487577175, 0.9119418, 0.28392524, -0.2944933, 0.031977233, 5.400826930999756, 4.752546310424805, 6.611230850219727, 0.09045124053955078, 0.3452719748020172, 0.6780321002006531, 
145, 2487593842, 0.9119992, 0.28369027, -0.29457933, 0.031627476, 5.423192977905273, 4.7522358894348145, 6.582395553588867, 0.14353996515274048, 0.4142661988735199, 0.43887999653816223, 
146, 2487610509, 0.91202044, 0.28364086, -0.29453987, 0.031827398, 5.407801151275635, 4.737237453460693, 6.609646320343018, 0.3223998248577118, 0.18382233381271362, 0.6364883184432983, 
147, 2487627176, 0.9120429, 0.28353733, -0.29457638, 0.03176818, 5.420318126678467, 4.740259170532227, 6.615869045257568, 0.4362611174583435, 0.1106724739074707, 0.4627830386161804, 
148, 2487643843, 0.9120295, 0.2836655, -0.29444674, 0.03220667, 5.400434970855713, 4.763906478881836, 6.629076957702637, 1.093713402748108, 0.2669227421283722, 0.4951190948486328, 
149, 2487660510, 0.91206133, 0.28358644, -0.29441646, 0.032278653, 5.45778226852417, 4.748727798461914, 6.612496852874756, 0.2193087339401245, 0.2161327600479126, 0.32775288820266724, 
150, 2487677177, 0.9121195, 0.28340718, -0.29441804, 0.03219371, 5.459462642669678, 4.792165279388428, 6.5466628074646, -0.09093789011240005, 0.4082600474357605, 0.4351661801338196, 
151, 2487693844, 0.912197, 0.28319085, -0.2943969, 0.03209647, 5.408781051635742, 4.752218723297119, 6.595202445983887, -0.3029085695743561, 0.6374168395996094, 0.4686163365840912, 
152, 2487710511, 0.91226053, 0.28311017, -0.29424512, 0.032391027, 5.416598320007324, 4.736127853393555, 6.638058662414551, -0.21221400797367096, 0.7187114953994751, 0.46305838227272034, 
153, 2487727178, 0.91230667, 0.2829496, -0.2942675, 0.03229397, 5.424877643585205, 4.742701530456543, 6.665560245513916, 0.14525602757930756, 0.3212665021419525, 0.4856872260570526, 
154, 2487743845, 0.9123191, 0.28289375, -0.2942776, 0.032336332, 5.422317028045654, 4.718465805053711, 6.665406703948975, 0.6377626061439514, 0.11434150487184525, 0.5182024836540222, 
155, 2487760512, 0.9123138, 0.28285924, -0.29433173, 0.032295078, 5.422391891479492, 4.716064453125, 6.623632907867432, 0.9859288334846497, -0.056693706661462784, 0.4607788622379303, 
156, 2487777179, 0.9123106, 0.28285548, -0.2943399, 0.03234369, 5.403555870056152, 4.767512798309326, 6.6238884925842285, 0.9721555709838867, 0.042773209512233734, 0.3835245370864868, 
157, 2487793846, 0.9123193, 0.28284824, -0.2942964, 0.03255611, 5.4053192138671875, 4.785795211791992, 6.602007865905762, 0.5957450270652771, 0.09770604223012924, 0.49777644872665405, 
158, 2487810513, 0.91233337, 0.28276756, -0.29432923, 0.03256673, 5.425081253051758, 4.736836910247803, 6.639969348907471, 0.5820550322532654, 0.022391904145479202, 0.5665721297264099, 
159, 2487827180, 0.91233027, 0.28275466, -0.29433382, 0.032723717, 5.421740531921387, 4.751012325286865, 6.618642330169678, 0.7001166343688965, -0.1273975521326065, 0.5396787524223328, 
160, 2487843847, 0.91232336, 0.28269118, -0.2944145, 0.032739658, 5.42246150970459, 4.7390265464782715, 6.641458988189697, 0.6772574186325073, -0.3583216667175293, 0.6059772372245789, 
161, 2487860514, 0.9123296, 0.28254214, -0.2945667, 0.032482836, 5.4364333152771, 4.751835823059082, 6.635902404785156, 0.6329217553138733, -0.3266771733760834, 0.5055754780769348, 
162, 2487877181, 0.9123252, 0.28255624, -0.29453406, 0.032778684, 5.430917263031006, 4.747305393218994, 6.6276350021362305, 0.5474714636802673, -0.18963642418384552, 0.5359073281288147, 
163, 2487893848, 0.91235, 0.28246775, -0.29453138, 0.03287535, 5.435713291168213, 4.744961738586426, 6.599175453186035, 0.22227977216243744, 0.012908799573779106, 0.48556551337242126, 
164, 2487910515, 0.9123858, 0.28233752, -0.2945449, 0.03287971, 5.422370433807373, 4.713616371154785, 6.626064777374268, 0.060407549142837524, 0.026726851239800453, 0.3719988763332367, 
165, 2487927182, 0.912417, 0.28228545, -0.2944802, 0.03304212, 5.455676078796387, 4.711463451385498, 6.642658233642578, 0.15026973187923431, 0.1286398023366928, 0.15874750912189484, 
166, 2487943849, 0.9124676, 0.28211263, -0.29450685, 0.03287874, 5.448190689086914, 4.758984088897705, 6.623289585113525, -0.14439158141613007, 0.035428766161203384, -0.05806398391723633, 
167, 2487960516, 0.9125404, 0.28182018, -0.29460642, 0.032473024, 5.431175231933594, 4.777265548706055, 6.6459736824035645, -0.4090860188007355, 0.09916596114635468, 0.033366940915584564, 
168, 2487977183, 0.9125998, 0.2816001, -0.2946386, 0.032421418, 5.437076091766357, 4.761816501617432, 6.615901470184326, -0.5132784843444824, -0.007402069866657257, 0.4015943109989166, 
169, 2487993850, 0.9126553, 0.2814006, -0.29464167, 0.032563895, 5.441692352294922, 4.7498087882995605, 6.650391578674316, -0.6814003586769104, -0.07618498802185059, 0.6766043305397034, 
170, 2488010517, 0.9126904, 0.281241, -0.2946602, 0.032791603, 5.36198616027832, 4.667344570159912, 6.683248519897461, -0.19824227690696716, -0.04876657947897911, 1.1904398202896118, 
171, 2488027184, 0.91274077, 0.28091016, -0.29481277, 0.03285311, 5.498887538909912, 4.792719841003418, 6.544892311096191, -1.3638570308685303, -0.8974881768226624, 1.1028956174850464, 
172, 2488043851, 0.9127728, 0.28063756, -0.29497847, 0.032805607, 5.427969932556152, 4.62136173248291, 6.697517395019531, -0.6618129014968872, -0.7529556751251221, 0.9755877256393433, 
173, 2488060518, 0.9127624, 0.28056392, -0.29505524, 0.03303352, 5.454284191131592, 4.775146961212158, 6.618375301361084, 0.26099342107772827, -0.6796138882637024, 0.9345690608024597, 
174, 2488077185, 0.91275495, 0.28047577, -0.29514444, 0.033193216, 5.397165775299072, 4.643550872802734, 6.665173053741455, 0.2662632167339325, -0.666621744632721, 0.850821852684021, 
175, 2488093852, 0.9127367, 0.28046006, -0.2951779, 0.033524502, 5.449068546295166, 4.687225341796875, 6.635293006896973, 0.2695736289024353, -0.7710703015327454, 0.6641884446144104, 
176, 2488110519, 0.9127255, 0.28030196, -0.29538313, 0.033345863, 5.450934886932373, 4.731078147888184, 6.5963029861450195, 0.6032366156578064, -0.7579821348190308, 0.8489392399787903, 
177, 2488127186, 0.91271704, 0.28017688, -0.2955401, 0.033234864, 5.42453145980835, 4.6371965408325195, 6.658193588256836, 0.5310024619102478, -0.6885589361190796, 0.6185979247093201, 
178, 2488143853, 0.91268986, 0.28015065, -0.2956401, 0.033315253, 5.455097675323486, 4.666933059692383, 6.621921539306641, 0.7468535304069519, -0.7734715342521667, 0.4836445748806, 
179, 2488160520, 0.9126779, 0.28008637, -0.29572827, 0.033401195, 5.470655918121338, 4.6732401847839355, 6.619476795196533, 0.483926385641098, -0.6687540411949158, 0.5486752986907959, 
180, 2488177187, 0.91269225, 0.28002867, -0.29571438, 0.033612132, 5.45216703414917, 4.7007951736450195, 6.58815336227417, 0.19637258350849152, -0.21934077143669128, 0.4493108093738556, 
181, 2488193854, 0.91274774, 0.27987206, -0.2956894, 0.033632547, 5.445548057556152, 4.717700481414795, 6.609135150909424, -0.16334499418735504, 0.22514203190803528, 0.3023899495601654, 
182, 2488210521, 0.91283005, 0.2796375, -0.2956543, 0.033658903, 5.43704080581665, 4.712374687194824, 6.634837627410889, -0.6452223658561707, 0.42084869742393494, 0.5162432193756104, 
183, 2488227188, 0.9129228, 0.27937293, -0.29561713, 0.033662766, 5.45337438583374, 4.6850996017456055, 6.625734806060791, -0.695519208908081, 0.5898733139038086, 0.6734731197357178, 
184, 2488243855, 0.91301703, 0.2790978, -0.29557303, 0.033778474, 5.4747748374938965, 4.717275619506836, 6.645859241485596, -0.8927819132804871, 0.5342425107955933, 0.9550334811210632, 
185, 2488260522, 0.91313994, 0.2786779, -0.29560652, 0.033631828, 5.441855430603027, 4.7311296463012695, 6.645159721374512, -1.151726245880127, 0.7314985990524292, 1.2428945302963257, 
186, 2488277189, 0.9132866, 0.2781628, -0.29565603, 0.033477146, 5.469853401184082, 4.7277913093566895, 6.656733512878418, -1.689605712890625, 0.7901005744934082, 1.5613503456115723, 
187, 2488293856, 0.9134225, 0.27774024, -0.29558846, 0.03387355, 5.478873252868652, 4.738607883453369, 6.670219421386719, -2.121166944503784, 0.6331523060798645, 2.003406047821045, 
188, 2488310523, 0.9135911, 0.27705812, -0.2956958, 0.033972897, 5.4798712730407715, 4.788388252258301, 6.676276683807373, -2.8599586486816406, 0.48089122772216797, 2.9007279872894287, 
189, 2488327190, 0.91378355, 0.27625197, -0.295795, 0.034494534, 5.565447807312012, 4.92840051651001, 6.687504291534424, -3.5577125549316406, 0.7889864444732666, 4.917727947235107, 
190, 2488343857, 0.9140535, 0.2756127, -0.29546428, 0.03528283, 5.800628185272217, 4.643116474151611, 6.613050937652588, -1.2524164915084839, 4.76739501953125, 6.337056636810303, 
191, 2488360524, 0.9143328, 0.27503836, -0.2949711, 0.036628015, 5.60739803314209, 4.725260257720947, 6.764552116394043, 0.070294089615345, 6.656256675720215, 9.109199523925781, 
192, 2488377191, 0.9145081, 0.274831, -0.29438952, 0.038442235, 5.5560102462768555, 4.4104905128479, 6.7815961837768555, 3.1950647830963135, 7.4969000816345215, 10.738432884216309, 
193, 2488393858, 0.9145008, 0.27471438, -0.29426324, 0.040371425, 5.6296515464782715, 4.64500617980957, 6.833766937255859, 3.5345163345336914, 3.85703182220459, 11.340566635131836, 
194, 2488410525, 0.9140644, 0.27540302, -0.2946975, 0.04234199, 5.575327396392822, 4.601778984069824, 7.1034932136535645, 9.842822074890137, -0.24414047598838806, 11.755362510681152, 
195, 2488427192, 0.9134201, 0.2763575, -0.29549047, 0.044451322, 5.3889851570129395, 4.414827823638916, 7.337266445159912, 11.218384742736816, -3.4955666065216064, 11.787999153137207, 
196, 2488443859, 0.9123357, 0.27832574, -0.29652157, 0.047468916, 5.480220317840576, 4.44746208190918, 7.484706401824951, 19.98712158203125, -4.681115627288818, 15.750103950500488, 
197, 2488460526, 0.9109717, 0.2814387, -0.2969224, 0.052537266, 5.122680187225342, 4.870367050170898, 7.6354241371154785, 31.586952209472656, 1.770923376083374, 24.55471420288086, 
198, 2488477193, 0.9096481, 0.2850917, -0.29620376, 0.059384182, 4.781685829162598, 4.830049514770508, 7.5519700050354, 40.03636932373047, 12.987754821777344, 33.71459197998047, 
199, 2488493860, 0.9088196, 0.28803584, -0.29348552, 0.07034777, 4.018049716949463, 4.048869609832764, 8.466983795166016, 38.32411193847656, 30.142011642456055, 50.4486198425293, 
200, 2488510527, 0.908565, 0.29034153, -0.2880403, 0.085114464, 3.4659359455108643, 4.03963565826416, 8.661913871765137, 42.53987121582031, 56.32707595825195, 70.17171478271484, 
201, 2488527194, 0.909161, 0.29097325, -0.27980125, 0.10233391, 2.855623960494995, 4.599246025085449, 8.368659973144531, 41.602779388427734, 85.0954360961914, 88.17271423339844, 
202, 2488543861, 0.9091467, 0.29384837, -0.26891834, 0.12160822, 2.484867811203003, 5.195685863494873, 7.212054252624512, 63.547767639160156, 103.52972412109375, 92.94219970703125, 
203, 2488560528, 0.91091776, 0.29062858, -0.25756675, 0.1393672, 2.5725786685943604, 10.32179069519043, 7.356431007385254, 17.38878059387207, 110.00533294677734, 89.93051147460938, 
204, 2488577195, 0.9135843, 0.28453305, -0.2472904, 0.15248726, 1.7050416469573975, 6.329954624176025, 5.021214485168457, -10.980071067810059, 98.99480438232422, 68.57554626464844, 
205, 2488593862, 0.91459805, 0.282568, -0.23988752, 0.16161591, 2.559404134750366, 6.275588512420654, 4.130068778991699, 7.771883487701416, 65.51361846923828, 43.26593780517578, 
206, 2488610529, 0.91508186, 0.2831686, -0.2350699, 0.16487245, 5.029440402984619, 6.4339141845703125, 4.40510368347168, 13.838053703308105, 35.44823455810547, 10.017181396484375, 
207, 2488627196, 0.9147687, 0.28865892, -0.23137116, 0.16230181, 4.79442024230957, 4.196502208709717, 3.9626564979553223, 35.423301696777344, 10.400789260864258, -31.270912170410156, 
208, 2488643863, 0.91382545, 0.29600483, -0.23067072, 0.15522705, 8.205341339111328, 7.703640460968018, 6.756141662597656, 37.77150344848633, -20.38913345336914, -55.910396575927734, 
209, 2488660530, 0.91566473, 0.29478922, -0.23023266, 0.14714156, 7.876976013183594, 1.4591748714447021, 6.321134567260742, -23.673114776611328, -10.411497116088867, -51.113162994384766, 
210, 2488677197, 0.91678315, 0.29308861, -0.23048165, 0.14312921, 8.835944175720215, -0.006555808708071709, 7.456643581390381, -19.40167999267578, -7.000621318817139, -22.745927810668945, 
211, 2488693864, 0.91808695, 0.28754222, -0.23055747, 0.145875, 9.708601951599121, -1.7636401653289795, 7.803523540496826, -32.95705795288086, 11.927630424499512, 25.18833351135254, 
212, 2488710531, 0.9188235, 0.2825536, -0.22951704, 0.15247709, 9.456608772277832, -0.2310725301504135, 5.666685104370117, -20.83768653869629, 25.3053035736084, 46.72312927246094, 
213, 2488727198, 0.9213471, 0.27536777, -0.22815761, 0.15243529, 5.946959018707275, 7.034189224243164, 8.14425277709961, -48.20832061767578, 19.749794006347656, 5.499598979949951, 
214, 2488743865, 0.9233051, 0.2698767, -0.22727719, 0.15172291, 4.346428394317627, 2.605839967727661, 9.055586814880371, -38.0398063659668, 12.797393798828125, 0.14230497181415558, 
215, 2488760532, 0.92524767, 0.26404634, -0.22720018, 0.15025435, 5.544107437133789, 5.053556442260742, 7.769591331481934, -42.08729934692383, 6.565179347991943, -2.650899648666382, 
216, 2488777199, 0.9265348, 0.26043317, -0.22682929, 0.14918523, 4.888642311096191, 2.96386456489563, 7.911925792694092, -25.89516258239746, 5.862723350524902, -3.4201555252075195, 
217, 2488793866, 0.9273962, 0.25786266, -0.22679007, 0.14835663, 4.789364337921143, 4.407865524291992, 7.809469223022461, -18.407426834106445, 2.441187858581543, -2.5120773315429688, 
218, 2488810533, 0.928217, 0.2549512, -0.22695147, 0.14800711, 4.749569416046143, 4.060856342315674, 7.525287628173828, -19.97893714904785, 2.2872042655944824, 1.4834126234054565, 
219, 2488827200, 0.928998, 0.2523876, -0.22674192, 0.14782317, 5.052334785461426, 3.6628060340881348, 7.326436519622803, -17.059030532836914, 4.5269856452941895, 1.3919750452041626, 
220, 2488843867, 0.9298985, 0.24965844, -0.22604902, 0.14785594, 4.933801651000977, 4.015060901641846, 7.373808860778809, -17.493297576904297, 8.360393524169922, 2.0643093585968018, 
221, 2488860534, 0.93100053, 0.24650086, -0.22490221, 0.14796789, 5.061773300170898, 3.5557310581207275, 7.385919094085693, -20.004817962646484, 12.15680980682373, 2.256150484085083, 
222, 2488877201, 0.9322087, 0.24346513, -0.22311571, 0.1480917, 5.0499162673950195, 3.6758079528808594, 7.415754318237305, -18.733123779296875, 16.329463958740234, 0.9407565593719482, 
223, 2488893868, 0.9334961, 0.24038203, -0.22085066, 0.14841445, 4.793279647827148, 3.924604654312134, 7.628339767456055, -18.37879180908203, 19.9162540435791, 1.4025804996490479, 
224, 2488910535, 0.93474764, 0.23729412, -0.21854834, 0.148914, 4.672761917114258, 3.6829819679260254, 7.919587135314941, -18.05517578125, 20.40323257446289, 2.5244200229644775, 
225, 2488927202, 0.9358465, 0.23446263, -0.21654141, 0.14942761, 4.5333356857299805, 3.5748775005340576, 8.151620864868164, -16.437580108642578, 18.032352447509766, 2.871189832687378, 
226, 2488943869, 0.93674713, 0.2319101, -0.21507974, 0.14987816, 4.500812530517578, 3.354367733001709, 8.164261817932129, -14.968935012817383, 13.828816413879395, 3.1351654529571533, 
227, 2488960536, 0.9373901, 0.23007387, -0.21400946, 0.15021926, 4.502540588378906, 3.0754880905151367, 8.111003875732422, -10.497687339782715, 10.003316879272461, 2.2576844692230225, 
228, 2488977203, 0.9377829, 0.22894509, -0.21336697, 0.1504058, 4.397521018981934, 3.352729320526123, 8.205388069152832, -6.190020561218262, 5.895942211151123, 1.1469112634658813, 
229, 2488993870, 0.93801796, 0.22823222, -0.2130556, 0.15046518, 4.562108993530273, 3.2076480388641357, 8.073451042175293, -3.7800824642181396, 2.885514497756958, 0.4014662802219391, 
230, 2489010537, 0.93815064, 0.22780816, -0.2128667, 0.15054807, 4.5591230392456055, 3.588862657546997, 8.026351928710938, -1.8358604907989502, 1.6819860935211182, 0.4221613109111786, 
231, 2489027204, 0.93827254, 0.22732808, -0.21274818, 0.15068203, 4.591251373291016, 3.3236448764801025, 7.963720321655273, -2.1825287342071533, 1.3484190702438354, 0.9578766226768494, 
232, 2489043871, 0.93830895, 0.22722326, -0.21265036, 0.15075053, 4.586889743804932, 3.2554142475128174, 8.033574104309082, 0.2599048614501953, 0.5996573567390442, 0.10232273489236832, 
233, 2489060538, 0.9382843, 0.22744532, -0.21251929, 0.15075473, 4.637935161590576, 3.2656455039978027, 7.972872257232666, 2.4120500087738037, 0.2854022979736328, -0.7826407551765442, 
234, 2489077205, 0.93823737, 0.22775401, -0.21239473, 0.15075648, 4.606050491333008, 3.476085901260376, 7.973752021789551, 3.001577854156494, 0.11971375346183777, -0.8988457322120667, 
235, 2489093872, 0.9381426, 0.2281107, -0.21239094, 0.15081216, 4.582453727722168, 3.618777275085449, 7.980595111846924, 3.3393073081970215, -0.6930476427078247, -0.38304436206817627, 
236, 2489110539, 0.93811685, 0.22804278, -0.21254766, 0.15085362, 4.62717342376709, 3.639890193939209, 7.947535037994385, 0.2988489866256714, -1.2082726955413818, 0.32941773533821106, 
237, 2489127206, 0.9381874, 0.2274849, -0.21281701, 0.1508778, 4.658212184906006, 3.523968458175659, 8.006850242614746, -3.161638021469116, -1.3112742900848389, 1.0123932361602783, 
238, 2489143873, 0.9383324, 0.22635475, -0.21347025, 0.15075378, 4.729403972625732, 3.3494346141815186, 8.007445335388184, -7.587065696716309, -3.3135733604431152, 1.4157166481018066, 
239, 2489160540, 0.9386018, 0.22489512, -0.21388529, 0.15067202, 4.625017166137695, 3.4159162044525146, 7.962887287139893, -9.593490600585938, -1.1823147535324097, 1.6671185493469238, 
240, 2489177207, 0.9389394, 0.2232403, -0.2140561, 0.15078746, 4.577354431152344, 3.6490366458892822, 7.873482704162598, -10.416707992553711, 1.0039924383163452, 2.776968240737915, 
241, 2489193874, 0.93933386, 0.22140008, -0.21401186, 0.15110609, 4.5363969802856445, 3.631101131439209, 7.863341331481934, -11.189494132995605, 2.9812939167022705, 3.978243350982666, 
242, 2489210541, 0.93972516, 0.21958415, -0.21381399, 0.15160206, 4.434602737426758, 3.3900399208068848, 7.873728275299072, -10.619869232177734, 4.214661121368408, 4.863277435302734, 
243, 2489227208, 0.93997884, 0.21836136, -0.21356864, 0.15214084, 4.353718280792236, 3.1500084400177, 8.043768882751465, -6.471466541290283, 3.763249397277832, 4.343659400939941, 
244, 2489243875, 0.94013256, 0.2176693, -0.2132942, 0.15256692, 4.500907897949219, 2.9713962078094482, 8.1242094039917, -3.02099871635437, 3.071885108947754, 2.895951271057129, 
245, 2489260542, 0.940189, 0.21746612, -0.21303545, 0.1528698, 4.485423564910889, 3.1446895599365234, 8.077527046203613, 0.09968461841344833, 2.1266608238220215, 1.5020822286605835, 
246, 2489277209, 0.9402171, 0.21745336, -0.21276028, 0.15309891, 4.523322582244873, 3.167550802230835, 8.054309844970703, 1.2876657247543335, 1.8774362802505493, 0.7509642839431763, 
247, 2489293876, 0.9402329, 0.21752429, -0.21245009, 0.1533309, 4.556892395019531, 3.25223708152771, 8.035036087036133, 1.8900762796401978, 2.000441312789917, 0.603499174118042, 
248, 2489310543, 0.9402534, 0.21766502, -0.21203512, 0.15358013, 4.5626301765441895, 3.2443907260894775, 8.00365161895752, 2.47042179107666, 2.6370835304260254, 0.4522818922996521, 
249, 2489327210, 0.9403098, 0.21773715, -0.21152063, 0.1538412, 4.56552791595459, 3.2997679710388184, 8.00497055053711, 2.0962462425231934, 3.4258272647857666, 0.44275400042533875, 
250, 2489343877, 0.9403875, 0.21781364, -0.21089138, 0.15412197, 4.553488731384277, 3.1979029178619385, 7.985640048980713, 2.23938250541687, 4.223585605621338, 0.36694037914276123, 
251, 2489360544, 0.940455, 0.21794057, -0.21026473, 0.15438637, 4.460954666137695, 3.2973499298095703, 8.057438850402832, 2.555955171585083, 4.11754846572876, 0.20189209282398224, 
252, 2489377211, 0.9405296, 0.2180176, -0.20968312, 0.15461391, 4.516642093658447, 3.305690288543701, 8.051359176635742, 2.1201937198638916, 3.831352710723877, 0.09682881087064743, 
253, 2489393878, 0.9406073, 0.2179973, -0.209189, 0.15483889, 4.497348785400391, 3.351539134979248, 8.075149536132812, 1.3878626823425293, 3.3700296878814697, 0.34829431772232056, 
254, 2489410545, 0.9406879, 0.2178813, -0.20876977, 0.155078, 4.523609638214111, 3.3114771842956543, 8.043018341064453, 0.704643726348877, 3.0139358043670654, 0.6895962953567505, 
255, 2489427212, 0.94077533, 0.2176945, -0.20836169, 0.1553584, 4.508220672607422, 3.356637716293335, 8.069729804992676, 0.28125303983688354, 3.089390754699707, 1.0674731731414795, 
256, 2489443879, 0.9408822, 0.2173392, -0.20803134, 0.15565197, 4.455023288726807, 3.260889768600464, 8.109904289245605, -0.903110146522522, 2.8157193660736084, 1.493053913116455, 
257, 2489460546, 0.9409534, 0.21706401, -0.20780365, 0.15590908, 4.4771647453308105, 3.2216269969940186, 8.104104995727539, -0.4959707260131836, 1.9575275182724, 1.3297985792160034, 
258, 2489477213, 0.9409969, 0.21682724, -0.20766845, 0.15615627, 4.4713616371154785, 3.2285163402557373, 8.093775749206543, -0.3225727677345276, 1.2595300674438477, 1.3681408166885376, 
259, 2489493880, 0.9409857, 0.21673365, -0.20761152, 0.15642893, 4.460378170013428, 3.1153440475463867, 8.13696002960205, 0.6364499926567078, 0.5580239295959473, 1.4994186162948608, 
260, 2489510547, 0.9408426, 0.21710037, -0.20762135, 0.1567676, 4.583988189697266, 3.137341260910034, 8.047016143798828, 3.8540964126586914, -0.44806212186813354, 1.5364289283752441, 
261, 2489527214, 0.9408823, 0.21654288, -0.20766784, 0.15723754, 4.37136697769165, 4.242213249206543, 8.024857521057129, -2.2497618198394775, 0.7694694995880127, 3.5524814128875732, 
262, 2489543881, 0.9410977, 0.21517666, -0.20769696, 0.15778603, 4.376567363739014, 3.411726713180542, 8.064168930053711, -7.6517133712768555, 2.1148412227630615, 5.007617473602295, 
263, 2489560548, 0.94134784, 0.21361159, -0.20782621, 0.15824945, 4.4249587059021, 2.8341891765594482, 8.2145414352417, -9.221132278442383, 1.6073638200759888, 4.864749431610107, 
264, 2489577215, 0.94145, 0.21278848, -0.2079908, 0.15853342, 4.501358985900879, 2.920679807662964, 8.178315162658691, -4.485289573669434, 0.09162945300340652, 2.8442647457122803, 
265, 2489593882, 0.9414712, 0.2123098, -0.20821413, 0.15875605, 4.535855770111084, 3.0194554328918457, 8.124244689941406, -2.28074049949646, -0.8695576190948486, 2.122281074523926, 
266, 2489610549, 0.9413843, 0.21228564, -0.20849754, 0.15893146, 4.523295879364014, 2.960232973098755, 8.179369926452637, 0.6994956135749817, -1.9689571857452393, 1.3829319477081299, 
267, 2489627216, 0.9411879, 0.21275094, -0.20882758, 0.15903912, 4.498244285583496, 2.929124355316162, 8.168132781982422, 3.881707191467285, -3.064847707748413, 0.41712844371795654, 
268, 2489643883, 0.94091845, 0.21350345, -0.20924138, 0.15908061, 4.451716899871826, 3.1280479431152344, 8.170755386352539, 5.626163482666016, -4.154002666473389, -0.30131426453590393, 
269, 2489660550, 0.9406445, 0.21428365, -0.20965324, 0.15911004, 4.486201763153076, 3.2019917964935303, 8.093351364135742, 5.8435893058776855, -4.164644241333008, -0.33691588044166565, 
270, 2489677217, 0.940359, 0.21505581, -0.21011014, 0.15915321, 4.531640529632568, 3.2040600776672363, 8.071168899536133, 5.78935432434082, -4.437227249145508, -0.1378411501646042, 
271, 2489693884, 0.9400968, 0.21574639, -0.21052065, 0.15922542, 4.577088356018066, 3.2910008430480957, 7.975289821624756, 5.301943778991699, -3.9815003871917725, 0.0432470440864563, 
272, 2489710551, 0.93991596, 0.21619424, -0.2108025, 0.15931308, 4.604635715484619, 3.305314302444458, 7.977773189544678, 3.771009922027588, -2.741628408432007, 0.21455763280391693, 
273, 2489727218, 0.93981165, 0.21638487, -0.21097422, 0.1594416, 4.600530624389648, 3.2876217365264893, 7.989802360534668, 2.1705739498138428, -1.571319818496704, 0.6075589060783386, 
274, 2489743885, 0.93974036, 0.21649219, -0.21107562, 0.15958235, 4.566532135009766, 3.2550947666168213, 8.011409759521484, 1.673789620399475, -0.9581902027130127, 0.661575973033905, 
275, 2489760552, 0.939693, 0.21651572, -0.21113947, 0.15974407, 4.531932830810547, 3.2472968101501465, 8.060371398925781, 1.1478842496871948, -0.5693254470825195, 0.8055194020271301, 
276, 2489777219, 0.9396227, 0.21655557, -0.2112578, 0.15994671, 4.569762706756592, 3.2152552604675293, 8.065983772277832, 1.24336838722229, -0.9419646263122559, 1.0794600248336792, 
277, 2489793886, 0.9394957, 0.21672603, -0.21147798, 0.16017194, 4.565670490264893, 3.2073309421539307, 8.000733375549316, 2.1612250804901123, -1.743270754814148, 1.368025541305542, 
278, 2489810553, 0.9394099, 0.21680409, -0.21162422, 0.16037545, 4.610891819000244, 3.243133306503296, 7.96016788482666, 1.591765284538269, -1.1046565771102905, 1.2769851684570312, 
279, 2489827220, 0.93937135, 0.21678138, -0.21165346, 0.16059346, 4.511512756347656, 3.3380837440490723, 8.03160572052002, 0.9692486524581909, -0.1802045702934265, 1.2043988704681396, 
280, 2489843887, 0.9393627, 0.21661247, -0.21169259, 0.16082016, 4.562711715698242, 3.272657871246338, 8.06818675994873, -0.026822898536920547, -0.030780060216784477, 1.4483981132507324, 
281, 2489860554, 0.9393368, 0.21650285, -0.2117245, 0.1610771, 4.461879253387451, 3.3565409183502197, 8.029511451721191, 0.46396124362945557, -0.007626181468367577, 1.6207717657089233, 
282, 2489877221, 0.9393217, 0.21622747, -0.21188541, 0.16132349, 4.5616021156311035, 3.2571799755096436, 8.062747955322266, -0.7284059524536133, -0.6173749566078186, 2.0786116123199463, 
283, 2489893888, 0.93927693, 0.21601056, -0.21210623, 0.16158356, 4.537223815917969, 3.1909685134887695, 8.092080116271973, -0.4269317090511322, -1.1456241607666016, 2.0781121253967285, 
284, 2489910555, 0.93919945, 0.21589501, -0.21239574, 0.16180786, 4.594666004180908, 3.126819372177124, 8.09008502960205, 0.21935996413230896, -1.752862572669983, 1.9583340883255005, 
285, 2489927222, 0.9390885, 0.21593614, -0.21270058, 0.1619959, 4.595893383026123, 3.0618555545806885, 8.053574562072754, 1.1483837366104126, -2.174870252609253, 1.4437365531921387, 
286, 2489943889, 0.9389336, 0.21617857, -0.21301104, 0.16216378, 4.605823993682861, 3.108389377593994, 8.07837963104248, 2.408849000930786, -2.581613063812256, 0.9468247294425964, 
287, 2489960556, 0.9387499, 0.21650565, -0.21334842, 0.16234726, 4.625239849090576, 3.1523940563201904, 8.019001960754395, 2.8472867012023926, -2.975203037261963, 0.7389135360717773, 
288, 2489977223, 0.93856966, 0.21682829, -0.21368463, 0.16251618, 4.605727672576904, 3.2903690338134766, 8.044164657592773, 2.9415032863616943, -2.8714592456817627, 0.9004912972450256, 
289, 2489993890, 0.9384253, 0.21693775, -0.21407582, 0.16268899, 4.621056079864502, 3.3686788082122803, 7.989918231964111, 1.5400530099868774, -2.8656575679779053, 1.4305588006973267, 
290, 2490010557, 0.9383343, 0.21682271, -0.21443537, 0.16289447, 4.67305326461792, 3.291440725326538, 7.951031684875488, 0.2601737976074219, -2.160156011581421, 2.159662961959839, 
291, 2490027224, 0.93828136, 0.21657099, -0.21466292, 0.16323388, 4.682681560516357, 3.251051187515259, 7.952538967132568, -0.6447292566299438, -1.1183849573135376, 2.458268404006958, 
292, 2490043891, 0.9382663, 0.21621421, -0.21481512, 0.16359149, 4.658687591552734, 3.2131471633911133, 7.959542274475098, -1.1487743854522705, -0.3418719172477722, 2.784625768661499, 
293, 2490060558, 0.9382551, 0.21584019, -0.21492782, 0.16400124, 4.663384914398193, 3.120857000350952, 8.013875007629395, -1.2845345735549927, -0.08031502366065979, 2.845698833465576, 
294, 2490077225, 0.9382318, 0.21555106, -0.21506469, 0.16433564, 4.667177677154541, 3.1154799461364746, 7.994932174682617, -0.7276631593704224, -0.3688420355319977, 2.5026423931121826, 
295, 2490093892, 0.93821806, 0.21527933, -0.21519916, 0.16459423, 4.660676002502441, 3.1058287620544434, 7.967586517333984, -0.5646896362304688, -0.3449326157569885, 2.2670185565948486, 
296, 2490110559, 0.93820447, 0.21510474, -0.21523516, 0.16485211, 4.648660659790039, 3.087181806564331, 7.990024566650391, -0.024799495935440063, 0.03954600542783737, 1.6341029405593872, 
297, 2490127226, 0.9382291, 0.214894, -0.21518116, 0.16505745, 4.68924617767334, 3.164661169052124, 7.972015857696533, -0.28271937370300293, 0.6453632116317749, 1.1818852424621582, 
298, 2490143893, 0.93829274, 0.21461238, -0.21504727, 0.16523658, 4.6705474853515625, 3.2071781158447266, 7.9925665855407715, -0.7560421228408813, 1.2560853958129883, 0.9404727816581726, 
299, 2490160560, 0.9384147, 0.2142259, -0.2148948, 0.16524377, 4.678254127502441, 3.1581504344940186, 7.994237899780273, -1.1963884830474854, 1.7261677980422974, 0.8491891026496887, 
300, 2490177227, 0.93852264, 0.21382293, -0.2147385, 0.16535637, 4.688435077667236, 3.1666789054870605, 7.997600555419922, -1.5872511863708496, 1.5760903358459473, 0.7661271095275879, 
301, 2490193894, 0.9386618, 0.21335928, -0.21455963, 0.16539706, 4.6516594886779785, 3.1799659729003906, 8.024356842041016, -1.8510617017745972, 1.9156889915466309, 0.7590963840484619, 
302, 2490210561, 0.93878317, 0.21285002, -0.21434574, 0.16564171, 4.611087799072266, 3.1760613918304443, 8.055517196655273, -2.4369266033172607, 2.0009920597076416, 0.9878689646720886, 
303, 2490227228, 0.93888265, 0.2123706, -0.21418852, 0.1658965, 4.58756685256958, 3.1462056636810303, 8.103461265563965, -2.288167953491211, 1.5661269426345825, 1.0693047046661377, 
304, 2490243895, 0.9389535, 0.21195279, -0.21414961, 0.16607937, 4.621341705322266, 3.114698886871338, 8.076194763183594, -1.8134496212005615, 0.7796761989593506, 1.2020808458328247, 
305, 2490260562, 0.9390189, 0.21150604, -0.21417601, 0.1662453, 4.609975814819336, 3.16552472114563, 8.062987327575684, -2.0311832427978516, 0.40103083848953247, 1.3420286178588867, 
306, 2490277229, 0.9391035, 0.21100754, -0.2141896, 0.16638261, 4.638864040374756, 3.038344621658325, 8.027850151062012, -2.3212087154388428, 0.6018729209899902, 1.3644399642944336, 
307, 2490293896, 0.9391787, 0.21058604, -0.214141, 0.16655543, 4.640627384185791, 3.074340343475342, 8.049664497375488, -1.8996620178222656, 0.8034960031509399, 1.033113956451416, 
308, 2490310563, 0.9392648, 0.21017186, -0.21408238, 0.16666809, 4.64141845703125, 3.0804169178009033, 8.065656661987305, -1.7434245347976685, 0.9302917122840881, 0.9550719857215881, 
309, 2490327230, 0.9393519, 0.20977336, -0.21398042, 0.16681023, 4.61694860458374, 3.0836517810821533, 8.076279640197754, -1.6323294639587402, 1.1823718547821045, 0.9204052686691284, 
310, 2490343897, 0.9394392, 0.20933801, -0.21396644, 0.1668832, 4.634391784667969, 3.0872318744659424, 8.109187126159668, -1.798978328704834, 0.7489537596702576, 1.12093985080719, 
311, 2490360564, 0.9394166, 0.20917797, -0.21402839, 0.1671315, 4.681751251220703, 2.871335029602051, 8.11795425415039, -0.07953382283449173, -0.23548953235149384, 1.4164462089538574, 
312, 2490377231, 0.93933386, 0.20946613, -0.21403353, 0.16722925, 4.696254730224609, 2.9023337364196777, 8.054960250854492, 3.593986988067627, -0.10067712515592575, 1.2362353801727295, 
313, 2490393898, 0.9392035, 0.21006733, -0.21374404, 0.16757746, 4.602649688720703, 3.104438304901123, 8.083917617797852, 5.63808536529541, 1.2088555097579956, 0.7051688432693481, 
314, 2490410565, 0.93912524, 0.21052015, -0.21341665, 0.16786517, 4.686715126037598, 3.030095100402832, 8.04354190826416, 4.618533134460449, 1.6556177139282227, 0.5251883864402771, 
315, 2490427232, 0.9389757, 0.21137674, -0.2129168, 0.16825913, 4.715454578399658, 2.7813668251037598, 8.07918930053711, 7.420999050140381, 2.166476011276245, 0.0069794622249901295, 
316, 2490443899, 0.9386491, 0.21324633, -0.21204978, 0.16881631, 4.599684238433838, 3.0208828449249268, 8.111810684204102, 15.067668914794922, 3.4747111797332764, -0.45628416538238525, 
317, 2490460566, 0.9383286, 0.21502051, -0.21134469, 0.16923209, 4.5748090744018555, 3.064812421798706, 8.095698356628418, 14.206722259521484, 2.451828718185425, -0.732927143573761, 
318, 2490477233, 0.9380135, 0.21666269, -0.21083854, 0.16951467, 4.517444610595703, 3.200038194656372, 8.133733749389648, 12.685530662536621, 0.9593498110771179, -1.535936951637268, 
319, 2490493900, 0.9376786, 0.21827644, -0.21059446, 0.16960111, 4.607453346252441, 3.091069459915161, 8.09841537475586, 12.106974601745605, -0.9012537002563477, -2.0525708198547363, 
320, 2490510567, 0.93723226, 0.22026576, -0.21048194, 0.16963495, 4.633927345275879, 3.0530171394348145, 8.075566291809082, 14.284597396850586, -2.5652737617492676, -2.916898012161255, 
321, 2490527234, 0.9367412, 0.22225748, -0.21058577, 0.16962096, 4.414480209350586, 3.567234754562378, 8.116898536682129, 14.041507720947266, -4.105981349945068, -2.876981019973755, 
322, 2490543901, 0.93622, 0.22370966, -0.21099891, 0.17007542, 4.436288833618164, 3.5493357181549072, 8.076704025268555, 9.630365371704102, -5.7792582511901855, -0.7435048818588257, 
323, 2490560568, 0.93568724, 0.22503144, -0.21180904, 0.17025635, 4.551777362823486, 3.2955825328826904, 8.089069366455078, 9.167581558227539, -7.700965881347656, 0.38534319400787354, 
324, 2490577235, 0.9350136, 0.22665097, -0.21299452, 0.17033042, 4.461817741394043, 3.2840285301208496, 8.090278625488281, 11.209061622619629, -10.45897388458252, 0.8477939367294312, 
325, 2490593902, 0.9341192, 0.22864711, -0.21482354, 0.17027251, 4.13273811340332, 3.3873257637023926, 8.291343688964844, 13.156404495239258, -15.475848197937012, 0.9216358661651611, 
326, 2490610569, 0.932905, 0.23107798, -0.21736556, 0.17042191, 4.591485500335693, 3.6399757862091064, 8.049274444580078, 15.327919960021973, -21.1811466217041, 2.126678943634033, 
327, 2490627236, 0.9315721, 0.23317151, -0.22090161, 0.17031439, 4.517349720001221, 3.8743374347686768, 8.36903190612793, 12.71857738494873, -27.0595645904541, 4.189585208892822, 
328, 2490643903, 0.9298438, 0.2351887, -0.22558796, 0.17084225, 4.896435260772705, 3.9558794498443604, 8.397031784057617, 11.304247856140137, -34.81098937988281, 8.818714141845703, 
329, 2490660570, 0.92742646, 0.23802067, -0.23132919, 0.17237514, 4.847866058349609, 4.22271728515625, 8.385305404663086, 18.571245193481445, -41.496761322021484, 17.478534698486328, 
330, 2490677237, 0.92443246, 0.2406336, -0.2391246, 0.17418261, 4.8114824295043945, 4.233450889587402, 8.493937492370605, 16.36480140686035, -54.63693618774414, 23.997310638427734, 
331, 2490693904, 0.9207687, 0.24309283, -0.24835289, 0.17723449, 4.734556674957275, 4.613032817840576, 8.49185562133789, 14.700483322143555, -64.0945053100586, 32.32880783081055, 
332, 2490710571, 0.9165344, 0.24557368, -0.25868565, 0.18094207, 5.153942108154297, 4.151278495788574, 8.309616088867188, 16.78630256652832, -70.14938354492188, 40.78883743286133, 
333, 2490727238, 0.9116597, 0.24876972, -0.26910257, 0.18594128, 5.376343727111816, 4.115017414093018, 7.99441385269165, 24.498991012573242, -70.57510375976562, 48.56492233276367, 
334, 2490743905, 0.90640336, 0.25228912, -0.2789566, 0.19226652, 5.768432140350342, 4.023153305053711, 7.602792263031006, 30.02189826965332, -66.1014633178711, 55.47218704223633, 
335, 2490760572, 0.90110576, 0.25599307, -0.28742635, 0.19965495, 5.238068580627441, 4.152242183685303, 7.445690631866455, 35.60950469970703, -55.64500045776367, 60.04094314575195, 
336, 2490777239, 0.89610356, 0.25972915, -0.2939487, 0.20768628, 4.615911483764648, 5.449389934539795, 7.730812072753906, 39.55371856689453, -41.73713684082031, 60.528114318847656, 
337, 2490793906, 0.89276016, 0.25970793, -0.2992156, 0.21447906, 3.1794731616973877, 6.442902565002441, 8.309285163879395, 12.690196990966797, -27.546871185302734, 55.924537658691406, 
338, 2490810573, 0.89100975, 0.25798917, -0.30222288, 0.21955554, 3.066498279571533, 5.151590824127197, 7.931191444396973, -0.8447189927101135, -11.064703941345215, 42.55363845825195, 
339, 2490827240, 0.8902673, 0.25627288, -0.30300248, 0.22346832, 2.7858569622039795, 4.712613105773926, 7.386846542358398, -1.68806791305542, 2.529313325881958, 30.017719268798828, 
340, 2490843907, 0.89090073, 0.2551086, -0.30051962, 0.22561856, 2.3327598571777344, 5.434218406677246, 7.920410633087158, 0.5864166617393494, 21.334152221679688, 10.274182319641113, 
341, 2490860574, 0.8923021, 0.2534513, -0.29723284, 0.2263014, 2.160766124725342, 4.162469387054443, 7.354732513427734, -5.594167232513428, 25.939647674560547, -0.2247072011232376, 
342, 2490877241, 0.893942, 0.25378263, -0.29215533, 0.22607017, 2.502168655395508, 3.985767126083374, 7.740139484405518, 7.099116325378418, 32.64128875732422, -13.339749336242676, 
343, 2490893908, 0.8960532, 0.25421298, -0.2860508, 0.2250326, 2.7388625144958496, 4.168880462646484, 7.9707417488098145, 6.859589099884033, 38.258548736572266, -20.975954055786133, 
344, 2490910575, 0.8983473, 0.25487873, -0.27913728, 0.22381075, 2.9259867668151855, 3.6414475440979004, 7.944632053375244, 8.877145767211914, 42.84019088745117, -24.22919273376465, 
345, 2490927242, 0.90062493, 0.2562963, -0.27132407, 0.22264346, 3.3859310150146484, 3.908611297607422, 8.110451698303223, 15.045720100402832, 47.237117767333984, -26.856603622436523, 
346, 2490943909, 0.90298486, 0.25794202, -0.26283517, 0.22136381, 3.697479486465454, 4.166773796081543, 8.184539794921875, 17.142303466796875, 50.97108459472656, -29.2652530670166, 
347, 2490960576, 0.9053658, 0.25981376, -0.25385806, 0.21992213, 3.9926445484161377, 4.231808662414551, 8.230026245117188, 18.95901870727539, 53.36332321166992, -31.548158645629883, 
348, 2490977243, 0.90769887, 0.26175597, -0.24478011, 0.21828775, 4.315979957580566, 4.311502456665039, 8.314672470092773, 19.300540924072266, 53.42012405395508, -32.953067779541016, 
349, 2490993910, 0.90991783, 0.26369166, -0.23585083, 0.21654323, 4.552290439605713, 4.0914411544799805, 8.44234848022461, 19.05672836303711, 52.085750579833984, -33.17030715942383, 
350, 2491010577, 0.9119831, 0.266024, -0.22690758, 0.21454866, 4.827183246612549, 3.9446027278900146, 8.549391746520996, 21.441007614135742, 50.8626708984375, -35.16267395019531, 
351, 2491027244, 0.9139409, 0.26881465, -0.21781932, 0.21214503, 5.13308572769165, 3.927233934402466, 8.515892028808594, 24.099058151245117, 50.17073440551758, -38.5436897277832, 
352, 2491043911, 0.91569585, 0.27168632, -0.20899768, 0.20978098, 5.121361255645752, 3.5254552364349365, 8.260723114013672, 24.669017791748047, 48.14944839477539, -37.6284065246582, 
353, 2491060578, 0.9169741, 0.27465677, -0.2008796, 0.20825471, 5.13046932220459, 3.131251811981201, 8.176494598388672, 26.391517639160156, 44.468971252441406, -30.50200653076172, 
354, 2491077245, 0.91778713, 0.27748448, -0.19350581, 0.20790568, 5.223799228668213, 2.984917163848877, 8.230147361755371, 26.956201553344727, 41.57688522338867, -20.827747344970703, 
355, 2491093912, 0.91830134, 0.27977327, -0.1869486, 0.20856607, 5.440178871154785, 2.830620288848877, 8.2689847946167, 24.328798294067383, 38.743980407714844, -11.7769193649292, 
356, 2491110579, 0.9186754, 0.2817313, -0.18061706, 0.2098581, 5.890279769897461, 2.926302433013916, 8.044466972351074, 23.030839920043945, 38.85463333129883, -6.75612211227417, 
357, 2491127246, 0.9188945, 0.28345346, -0.17468739, 0.21159258, 5.902800559997559, 3.054269313812256, 7.536794662475586, 21.83444595336914, 37.36079788208008, -2.699807643890381, 
358, 2491143913, 0.9188997, 0.28508887, -0.16957656, 0.2135216, 5.981805324554443, 3.2828750610351562, 6.8782501220703125, 20.762744903564453, 32.483341217041016, 0.509054958820343, 
359, 2491160580, 0.9185363, 0.28698525, -0.16593426, 0.21539778, 6.022557735443115, 3.236412286758423, 6.319305419921875, 20.922351837158203, 22.343862533569336, 3.2577412128448486, 
360, 2491177247, 0.9178775, 0.2895786, -0.16344911, 0.21663225, 6.9534525871276855, 3.6375620365142822, 5.924015045166016, 23.460920333862305, 12.464720726013184, 1.0974301099777222, 
361, 2491193914, 0.9170347, 0.29320294, -0.1616226, 0.21669678, 8.04407024383545, 3.4502058029174805, 5.004347324371338, 28.029123306274414, 4.322475910186768, -5.897360324859619, 
362, 2491210581, 0.9158027, 0.2982398, -0.16040702, 0.21593511, 8.176645278930664, 2.7564754486083984, 3.8698136806488037, 35.87482452392578, -3.6165502071380615, -10.91889476776123, 
363, 2491227248, 0.9141034, 0.30498615, -0.15944259, 0.21442151, 8.823742866516113, 3.5331978797912598, 3.864074945449829, 46.38043975830078, -9.665122032165527, -16.392316818237305, 
364, 2491243915, 0.9132943, 0.31040168, -0.15777896, 0.21130571, 7.378993511199951, 2.839744806289673, 3.424943208694458, 35.395198822021484, -5.555351734161377, -27.84588623046875, 
365, 2491260582, 0.9126041, 0.31682768, -0.15694742, 0.20528367, 4.874257564544678, 2.0246388912200928, 2.4127702713012695, 37.10915756225586, -18.21187400817871, -45.645652770996094, 
366, 2491277249, 0.912587, 0.31954843, -0.1614778, 0.19748113, 4.0717949867248535, 3.678101062774658, 2.5100741386413574, 2.893766403198242, -49.70848083496094, -42.12833023071289, 
367, 2491293916, 0.9124633, 0.3143431, -0.17749883, 0.1925965, 19.20052146911621, 2.981271505355835, 1.4514765739440918, -59.004905700683594, -104.706298828125, 10.356616020202637, 
368, 2491310583, 0.9168138, 0.29768768, -0.17293526, 0.2023071, 18.233186721801758, 4.671374320983887, 20.116989135742188, -95.49754333496094, 76.95083618164062, 65.2948226928711, 
369, 2491327250, 0.9185955, 0.28570932, -0.17779405, 0.20722425, -11.814034461975098, 7.5051984786987305, 8.620112419128418, -79.40791320800781, -1.6864256858825684, 52.21595764160156, 
370, 2491343917, 0.92161965, 0.27109233, -0.18200418, 0.2097635, 11.456194877624512, 0.08597253262996674, 9.061284065246582, -100.51927185058594, 2.693732738494873, 37.58755874633789, 
371, 2491360584, 0.92296064, 0.26369905, -0.18532415, 0.21038453, 6.557645797729492, 4.601163387298584, 8.051163673400879, -52.63740158081055, -7.637923240661621, 17.046768188476562, 
372, 2491377251, 0.9246883, 0.2568743, -0.18607591, 0.21057776, 4.637621879577637, 2.425973653793335, 7.730283737182617, -46.5721321105957, 7.592818260192871, 8.383028030395508, 
373, 2491393918, 0.9259681, 0.25212872, -0.18640205, 0.21040155, 4.406338691711426, 3.390064001083374, 8.121746063232422, -32.39265441894531, 6.069529056549072, 3.2573587894439697, 
374, 2491410585, 0.9270377, 0.24801652, -0.18682426, 0.21020404, 4.620114326477051, 3.7284703254699707, 7.919907569885254, -28.15287971496582, 4.232587814331055, 2.7802157402038574, 
375, 2491427252, 0.92787087, 0.24485117, -0.18687697, 0.21019189, 4.45821475982666, 3.3996024131774902, 8.019186973571777, -20.942766189575195, 5.233874320983887, 2.4596047401428223, 
376, 2491443919, 0.9283427, 0.2426467, -0.18736042, 0.21023455, 4.298197269439697, 3.0482590198516846, 8.407007217407227, -14.753650665283203, 0.7242379784584045, 2.8217146396636963, 
377, 2491460586, 0.92839676, 0.24169125, -0.18818259, 0.21036226, 4.416871547698975, 3.6168723106384277, 8.172780990600586, -6.450257778167725, -3.6472296714782715, 2.921858787536621, 
378, 2491477253, 0.9284102, 0.24046291, -0.18926781, 0.21073708, 4.594424724578857, 3.9271223545074463, 7.8968963623046875, -8.186455726623535, -4.577202320098877, 5.3497772216796875, 
379, 2491493920, 0.9284814, 0.23881048, -0.19028217, 0.21138714, 4.578402996063232, 3.968827724456787, 7.823472023010254, -10.536399841308594, -2.978637456893921, 7.463123321533203, 
380, 2491510587, 0.9286666, 0.23647377, -0.19121061, 0.21236116, 4.621733665466309, 3.89518141746521, 7.869354248046875, -14.55483627319336, -0.7531743049621582, 10.126581192016602, 
381, 2491527254, 0.92887664, 0.23409374, -0.19184661, 0.21350291, 4.704915523529053, 3.1484456062316895, 7.967837810516357, -14.232782363891602, 1.4850516319274902, 10.749008178710938, 
382, 2491543921, 0.92913896, 0.23178455, -0.19233613, 0.2144384, 4.546847820281982, 3.468409776687622, 7.968333721160889, -13.918524742126465, 2.0567660331726074, 9.023478507995605, 
383, 2491560588, 0.92946154, 0.2292, -0.19286554, 0.21534131, 4.500369071960449, 3.1996519565582275, 8.006567001342773, -15.877440452575684, 2.235018014907837, 9.158113479614258, 
384, 2491577255, 0.92966014, 0.22716792, -0.193553, 0.21601896, 4.480273723602295, 2.7976279258728027, 8.175270080566406, -12.68264389038086, -0.11332987248897552, 7.4191975593566895, 
385, 2491593922, 0.9297878, 0.22559349, -0.19432038, 0.21642953, 4.378469467163086, 3.222764730453491, 8.075340270996094, -10.1115083694458, -1.8174077272415161, 5.330031394958496, 
386, 2491610589, 0.92986846, 0.22411032, -0.195219, 0.21681562, 4.537570476531982, 3.1231789588928223, 8.018207550048828, -9.683979034423828, -2.8968424797058105, 5.3280839920043945, 
387, 2491627256, 0.9298987, 0.2226901, -0.19613259, 0.21732397, 4.3542633056640625, 3.411092519760132, 8.079752922058105, -9.061872482299805, -2.9662399291992188, 6.1249213218688965, 
388, 2491643923, 0.9298525, 0.22112745, -0.19729483, 0.21806373, 4.347328186035156, 3.216135263442993, 8.128583908081055, -9.920246124267578, -4.097541332244873, 8.295625686645508, 
389, 2491660590, 0.9296427, 0.21966624, -0.19874837, 0.21911295, 4.1478590965271, 3.568054437637329, 8.190751075744629, -9.041001319885254, -5.86964750289917, 10.82927417755127, 
390, 2491677257, 0.92943525, 0.2172018, -0.20043008, 0.22091095, 4.419772624969482, 3.9103357791900635, 7.841044902801514, -14.785786628723145, -4.693145751953125, 17.33572006225586, 
391, 2491693924, 0.92914313, 0.21387772, -0.20252551, 0.22345732, 4.6693291664123535, 3.1600379943847656, 8.130410194396973, -19.76656150817871, -5.034289836883545, 24.061960220336914, 
392, 2491710591, 0.92847025, 0.21121587, -0.20538321, 0.22616065, 4.432779788970947, 2.878208875656128, 8.577925682067871, -15.931059837341309, -11.22257137298584, 25.850914001464844, 
393, 2491727258, 0.9271115, 0.20919675, -0.20994164, 0.229403, 4.234617710113525, 3.8505256175994873, 8.94848346710205, -12.711434364318848, -23.27508544921875, 31.921825408935547, 
394, 2491743925, 0.9245955, 0.20748974, -0.21700272, 0.23448072, 4.459695339202881, 4.265130043029785, 9.617524147033691, -10.368402481079102, -38.7731819152832, 48.61005783081055, 
395, 2491760592, 0.92070365, 0.205986, -0.22762236, 0.24096242, 2.8265979290008545, 5.443065166473389, 10.93187427520752, -10.771773338317871, -61.80082321166992, 64.54351043701172, 
396, 2491777259, 0.91525584, 0.20266858, -0.24341358, 0.24896227, 4.062036514282227, 5.091598033905029, 10.433211326599121, -26.271467208862305, -91.89920806884766, 86.93614959716797, 
397, 2491793926, 0.9072436, 0.19981907, -0.26539552, 0.25796595, 4.485936641693115, 4.629258155822754, 11.362476348876953, -28.701772689819336, -134.6121826171875, 105.52339935302734, 
398, 2491810593, 0.8946852, 0.19782431, -0.29839566, 0.2671407, 3.212947130203247, 6.094282627105713, 14.921899795532227, -36.38169860839844, -213.01490783691406, 128.27536010742188, 
399, 2491827260, 0.8735474, 0.19558938, -0.34944305, 0.27667543, -0.3912804126739502, 6.410527229309082, 18.402057647705078, -58.655609130859375, -340.9785461425781, 171.4000244140625, 
400, 2491843927, 0.83965534, 0.18933932, -0.41986, 0.28783202, -3.310844898223877, 10.660326957702637, 19.40350914001465, -98.6781234741211, -478.73370361328125, 241.3230438232422, 
401, 2491860594, 0.7901599, 0.17675093, -0.50328547, 0.301845, -3.6262989044189453, 9.1519775390625, 16.826433181762695, -132.684326171875, -583.4261474609375, 324.34228515625, 
402, 2491877261, 0.7324304, 0.16152929, -0.5788713, 0.31994075, 1.1818270683288574, 3.0138261318206787, 11.801032066345215, -106.68242645263672, -559.1822509765625, 363.3865966796875, 
403, 2491893928, 0.6893172, 0.1589117, -0.6164794, 0.3457483, -4.054350852966309, -6.5670623779296875, 10.654242515563965, 54.883792877197266, -328.43023681640625, 277.4054870605469, 
404, 2491910595, 0.68386334, 0.1558134, -0.61202157, 0.365353, 4.697334289550781, 35.57917785644531, 30.035545349121094, 85.06483459472656, 24.960111618041992, 114.27500915527344, 
405, 2491927262, 0.70965296, 0.14739782, -0.5820578, 0.368613, -26.820262908935547, 15.87452220916748, 9.573943138122559, 21.5260009765625, 271.6857604980469, -45.3525276184082, 
406, 2491943929, 0.7234235, 0.14198945, -0.56924003, 0.36395496, -11.901158332824707, 3.023611068725586, 3.1792197227478027, -26.917430877685547, 123.89462280273438, -48.08385467529297, 
407, 2491960596, 0.7430105, 0.15275271, -0.5349575, 0.37205198, -8.501205444335938, 4.801611423492432, 3.7316296100616455, 151.49510192871094, 225.35604858398438, -83.48444366455078, 
408, 2491977263, 0.7621113, 0.16414966, -0.49600515, 0.38238734, -3.8443639278411865, 7.985089302062988, 2.0485944747924805, 175.39120483398438, 248.0962677001953, -77.95425415039062, 
409, 2491993930, 0.7818263, 0.1775884, -0.45616326, 0.38616735, 3.822787046432495, 6.139870643615723, 0.6718777418136597, 165.301513671875, 242.0626678466797, -121.73577117919922, 
410, 2492010597, 0.80672246, 0.19511929, -0.41816583, 0.36914062, 9.571959495544434, 6.807713985443115, -1.2479318380355835, 110.80691528320312, 212.1708984375, -257.8614807128906, 
411, 2492027264, 0.83050364, 0.2141967, -0.3919766, 0.33277315, 11.418654441833496, -2.3941164016723633, -6.872275352478027, 35.35376739501953, 113.63566589355469, -350.8607482910156, 
412, 2492043931, 0.8439411, 0.2321815, -0.38186008, 0.29671204, 19.794960021972656, -8.67209529876709, -8.00828742980957, 8.603199005126953, -2.926769733428955, -298.8089599609375, 
413, 2492060598, 0.84725404, 0.24839234, -0.38357702, 0.2707964, 28.33734893798828, -14.221654891967773, -6.403967380523682, 17.20244789123535, -78.0083999633789, -195.8427734375, 
414, 2492077265, 0.8446683, 0.26697597, -0.38847345, 0.25366873, 34.70894241333008, -16.669282913208008, -5.998465061187744, 58.591773986816406, -101.02081298828125, -134.7684783935547, 
415, 2492093932, 0.84091914, 0.28508037, -0.39133456, 0.24174662, 34.399139404296875, -13.682323455810547, -6.854918479919434, 75.59552764892578, -81.37123107910156, -105.33586120605469, 
416, 2492110599, 0.83846223, 0.29162067, -0.39674535, 0.23351997, 34.701717376708984, -13.428269386291504, -8.614859580993652, 12.014412879943848, -65.64453125, -50.3682861328125, 
417, 2492127266, 0.8373913, 0.2916015, -0.39909342, 0.23338601, 31.201940536499023, -14.789039611816406, -10.269050598144531, -1.5142565965652466, -16.91897964477539, 5.428642749786377, 
418, 2492143933, 0.8320669, 0.2951784, -0.40371946, 0.23988605, 16.3055419921875, -10.878157615661621, -10.660669326782227, 42.341705322265625, -33.67055892944336, 44.761695861816406, 
419, 2492160600, 0.8526364, 0.2749113, -0.38762832, 0.21720801, 50.70441818237305, 29.64768409729004, 23.981414794921875, -193.4534454345703, 137.23162841796875, -140.97784423828125, 
420, 2492177267, 0.88304377, 0.27390024, -0.31682208, 0.21174602, 14.447165489196777, -17.88962745666504, 2.327599287033081, 28.32567596435547, 488.55792236328125, -209.4504852294922, 
421, 2492193934, 0.9081479, 0.25833887, -0.26390347, 0.19718978, -12.4583158493042, 15.990663528442383, 20.701614379882812, -95.71822357177734, 372.3983154296875, -191.7676239013672, 
422, 2492210601, 0.9223627, 0.24837624, -0.21892627, 0.19906723, 10.922479629516602, 11.522335052490234, 11.645755767822266, -22.349523544311523, 324.1006774902344, -70.06024169921875, 
423, 2492227268, 0.93150806, 0.2311788, -0.19142734, 0.20543809, 1.6934224367141724, 11.389631271362305, 19.108484268188477, -76.79685974121094, 223.1520233154297, 6.210020542144775, 
424, 2492243935, 0.93293, 0.22063105, -0.19135861, 0.21058345, -9.965547561645508, 4.543999671936035, 19.04986572265625, -62.295963287353516, 25.768884658813477, 44.223201751708984, 
425, 2492260602, 0.9319647, 0.21780305, -0.19560704, 0.21387261, 8.437810897827148, -1.9485597610473633, 5.340510368347168, -17.776081085205078, -19.387361526489258, 32.25904083251953, 
426, 2492277269, 0.9315635, 0.21662112, -0.19522358, 0.21714658, 6.980205059051514, 2.4770822525024414, 6.222470283508301, -1.223130702972412, 8.698564529418945, 22.122297286987305, 
427, 2492293936, 0.93064266, 0.21490736, -0.19687252, 0.2212698, 2.67224383354187, 5.83926248550415, 9.931806564331055, -5.751526355743408, -2.906649112701416, 32.06412124633789, 
428, 2492310603, 0.9295604, 0.21049757, -0.20039767, 0.22682443, 5.694460391998291, 4.980496406555176, 7.268040657043457, -23.706979751586914, -8.967872619628906, 47.92693328857422, 
429, 2492327270, 0.92737025, 0.20555608, -0.20610626, 0.235057, 4.279127597808838, 7.913958549499512, 10.133502960205078, -25.24923324584961, -19.727720260620117, 70.68192291259766, 
430, 2492343937, 0.9225335, 0.197654, -0.22139972, 0.24667208, 2.1056268215179443, 10.984064102172852, 14.135233879089355, -51.143890380859375, -75.06771087646484, 114.32478332519531, 
431, 2492360604, 0.91293, 0.18847011, -0.25277328, 0.25912148, 0.7814323902130127, 7.913236141204834, 17.97889518737793, -78.89644622802734, -181.15296936035156, 151.62127685546875, 
432, 2492377271, 0.89443666, 0.17842709, -0.30730465, 0.2714978, -1.788396954536438, 7.062507629394531, 20.9698486328125, -114.23216247558594, -340.86126708984375, 198.65599060058594, 
433, 2492393938, 0.8630066, 0.16444555, -0.38536766, 0.28225723, -5.46160364151001, 6.965017795562744, 20.617582321166992, -170.08901977539062, -508.2264709472656, 250.30789184570312, 
434, 2492410605, 0.81630117, 0.1474682, -0.4748778, 0.2939337, -2.6077723503112793, 1.4921504259109497, 14.506598472595215, -190.5635986328125, -610.5693969726562, 306.5715026855469, 
435, 2492427272, 0.7671296, 0.14042164, -0.5437867, 0.30998367, 2.1850295066833496, 4.5666913986206055, 14.265646934509277, -76.22319030761719, -518.4344482421875, 282.5970764160156, 
436, 2492443939, 0.73638624, 0.13743976, -0.5760401, 0.32714465, -3.0831854343414307, 7.365863800048828, 18.101276397705078, 9.699127197265625, -263.4513854980469, 198.39535522460938, 
437, 2492460606, 0.7167903, 0.1446538, -0.5851558, 0.350542, -42.96366882324219, 31.445463180541992, 24.911420822143555, 127.40726470947266, -119.42023468017578, 142.73423767089844, 
438, 2492477273, 0.73700917, 0.1555021, -0.5544697, 0.35383645, -10.733067512512207, 16.902721405029297, 15.873483657836914, 120.49085235595703, 207.59716796875, -106.16214752197266, 
439, 2492493940, 0.7560565, 0.15557933, -0.531073, 0.34947872, -23.470911026000977, 11.374645233154297, 8.471477508544922, 20.091102600097656, 183.86151123046875, -93.01026916503906, 
440, 2492510607, 0.77677906, 0.17142278, -0.48933923, 0.35745767, -7.627435684204102, 3.6113991737365723, 2.7662253379821777, 189.3515167236328, 260.4125671386719, -110.01229858398438, 
441, 2492527274, 0.79667157, 0.1895056, -0.4466074, 0.36047736, -2.6646432876586914, 7.230175495147705, -1.0907080173492432, 188.0471649169922, 251.5420684814453, -143.09255981445312, 
442, 2492543941, 0.8133939, 0.21224095, -0.4137199, 0.34954286, 3.9098548889160156, 0.8662464618682861, -4.340023517608643, 150.383056640625, 158.13783264160156, -212.98239135742188, 
443, 2492560608, 0.8229662, 0.23786838, -0.39874476, 0.32733482, 12.105831146240234, -1.2987895011901855, -5.6176066398620605, 101.96806335449219, 14.289311408996582, -240.85476684570312, 
444, 2492577275, 0.82527983, 0.25974125, -0.40093097, 0.30116826, 25.75360107421875, -5.107107162475586, -6.508336067199707, 43.266353607177734, -100.55225372314453, -208.5267333984375, 
445, 2492593942, 0.82493496, 0.28013265, -0.40768296, 0.27350116, 37.46537399291992, -6.83729887008667, -9.307929992675781, 26.19232177734375, -133.04869079589844, -199.40081787109375, 
446, 2492610609, 0.82605946, 0.29709703, -0.41041413, 0.24681856, 39.03717803955078, -8.624799728393555, -13.179683685302734, 14.375044822692871, -97.27198791503906, -194.90643310546875, 
447, 2492627276, 0.8258428, 0.31333116, -0.41356814, 0.22083631, 37.283172607421875, -14.674970626831055, -13.581541061401367, 14.298602104187012, -100.23129272460938, -185.99017333984375, 
448, 2492643943, 0.8235649, 0.33617812, -0.40912142, 0.20333467, 37.61898422241211, -15.544377326965332, -17.762434005737305, 92.01548767089844, -54.15398406982422, -170.25445556640625, 
449, 2492660610, 0.81756413, 0.3519094, -0.41169554, 0.19559047, 24.940574645996094, -11.577035903930664, -17.826984405517578, 77.94376373291016, -71.2917709350586, -73.96102905273438, 
450, 2492677277, 0.80575, 0.35532543, -0.43158078, 0.1955737, 36.737552642822266, 3.265793800354004, -1.928389310836792, 21.32590675354004, -149.35035705566406, 53.73946762084961, 
451, 2492693944, 0.84158754, 0.3041558, -0.4037245, 0.19033232, 46.58104705810547, 4.698198318481445, 10.857319831848145, -349.072998046875, 317.7381591796875, 5.927042484283447, 
452, 2492710611, 0.8772968, 0.29165557, -0.33001244, 0.19073294, 2.024624824523926, 2.4915196895599365, 16.369169235229492, -49.08203125, 544.52392578125, -164.83616638183594, 
453, 2492727278, 0.9056989, 0.2582631, -0.28115016, 0.18429472, -0.4006556272506714, 6.07987117767334, 13.930089950561523, -208.5251007080078, 391.2203674316406, -99.10247802734375, 
454, 2492743945, 0.922777, 0.24013084, -0.23213536, 0.19217974, 3.6580698490142822, 1.7771408557891846, 12.378195762634277, -65.33570861816406, 376.1299133300781, -25.165315628051758, 
455, 2492760612, 0.9320482, 0.22617184, -0.20313239, 0.19715421, -4.225437164306641, 11.949934959411621, 18.372882843017578, -56.9424934387207, 226.1675262451172, -6.903606414794922, 
456, 2492777279, 0.93548006, 0.21123528, -0.19763505, 0.20297064, 0.3310931324958801, 2.7997875213623047, 18.314102172851562, -84.8340072631836, 69.7498550415039, 44.45973205566406, 
457, 2492793946, 0.9337919, 0.20566815, -0.2069983, 0.20708723, 3.487213373184204, 2.141746997833252, 11.448774337768555, -40.10292434692383, -48.47687911987305, 49.54883575439453, 
458, 2492810613, 0.9299701, 0.20431273, -0.21863022, 0.2135723, 5.631915092468262, 4.036900520324707, 8.257659912109375, -9.871212005615234, -68.77285766601562, 65.00772857666016, 
459, 2492827280, 0.9254986, 0.20267299, -0.2315156, 0.22085422, 4.928382396697998, 3.9387965202331543, 8.729421615600586, -11.430513381958008, -76.22705078125, 73.2519302368164, 
460, 2492843947, 0.9198854, 0.20096941, -0.24830854, 0.22751945, 4.753394603729248, 1.866512417793274, 9.626059532165527, -17.16888999938965, -103.69083404541016, 76.62017059326172, 
461, 2492860614, 0.9130316, 0.19927616, -0.26981091, 0.23208754, 5.052501201629639, 1.9151631593704224, 9.727692604064941, -26.31816291809082, -138.54257202148438, 71.783447265625, 
462, 2492877281, 0.90333873, 0.19746517, -0.2985757, 0.23630346, 4.04831600189209, 4.292283535003662, 11.870140075683594, -35.40038299560547, -189.74276733398438, 84.27059936523438, 
463, 2492893948, 0.887819, 0.1928869, -0.3400312, 0.24279815, 2.649894952774048, 7.719818592071533, 14.429858207702637, -60.64466857910156, -273.07562255859375, 130.848876953125, 
464, 2492910615, 0.8622853, 0.18346068, -0.39758137, 0.25443158, 1.9979779720306396, 8.981439590454102, 15.05831241607666, -91.9029312133789, -380.1373596191406, 211.77484130859375, 
465, 2492927282, 0.82084626, 0.16789222, -0.47275776, 0.27299085, -1.9068443775177002, 7.34941291809082, 15.610607147216797, -120.31987762451172, -509.22137451171875, 320.04022216796875, 
466, 2492943949, 0.76240414, 0.14629617, -0.55813473, 0.29295623, -2.758836269378662, 6.52779483795166, 13.850837707519531, -149.4854278564453, -609.85986328125, 391.66265869140625, 
467, 2492960616, 0.70248705, 0.12122528, -0.63001925, 0.30804604, 11.85068416595459, 2.5705065727233887, 4.398443698883057, -157.80979919433594, -542.61767578125, 368.74591064453125, 
468, 2492977283, 0.6742953, 0.112638265, -0.65641636, 0.31899223, 31.973339080810547, 7.507359504699707, 14.506011962890625, -26.0404052734375, -223.0708465576172, 171.75643920898438, 
469, 2492993950, 0.68171144, 0.11774887, -0.64010245, 0.3341759, -9.797802925109863, -0.7090797424316406, 19.1804141998291, 122.59864807128906, 108.80010986328125, 18.60094451904297, 
470, 2493010617, 0.6822642, 0.12229577, -0.6228593, 0.36277512, -72.2411880493164, 45.57674026489258, 19.27577781677246, 186.6022186279297, 94.82846069335938, 98.94436645507812, 
471, 2493027284, 0.70264417, 0.1414086, -0.59488994, 0.3638691, 2.694296360015869, 13.794774055480957, 18.084178924560547, 146.9573974609375, 170.13829040527344, -150.62091064453125, 
472, 2493043951, 0.73466057, 0.14474735, -0.5626496, 0.35035372, -22.867530822753906, 10.681192398071289, 6.083857536315918, 10.219015121459961, 263.3974914550781, -189.79896545410156, 
473, 2493060618, 0.75873506, 0.1654557, -0.5235003, 0.35056138, 2.9064178466796875, 6.433971881866455, 5.216957092285156, 175.60946655273438, 239.18634033203125, -175.3768768310547, 
474, 2493077285, 0.7792815, 0.185518, -0.48596966, 0.34948125, 3.9369492530822754, -0.4524594843387604, -1.921302080154419, 167.68011474609375, 218.07162475585938, -169.29388427734375, 
475, 2493093952, 0.7953715, 0.21230371, -0.45304602, 0.3421416, 9.760551452636719, 1.3211332559585571, -0.6498763561248779, 177.45770263671875, 154.40846252441406, -208.6873779296875, 
476, 2493110619, 0.8013406, 0.23993543, -0.4404514, 0.32601675, 14.917540550231934, -4.112973213195801, -4.807681083679199, 121.70282745361328, -3.055551528930664, -205.78448486328125, 
477, 2493127286, 0.7966144, 0.27539358, -0.44205523, 0.3068409, 27.448728561401367, -8.766942977905273, -4.646900177001953, 141.55770874023438, -136.07557678222656, -198.91432189941406, 
478, 2493143953, 0.78896326, 0.3127988, -0.44480214, 0.286086, 38.785003662109375, -5.773838043212891, -3.3679280281066895, 150.73106384277344, -158.02276611328125, -205.25595092773438, 
479, 2493160620, 0.7897624, 0.33671302, -0.44214776, 0.25962523, 43.990989685058594, -7.657163619995117, -10.898927688598633, 52.6334114074707, -88.24051666259766, -223.32485961914062, 
480, 2493177287, 0.7938772, 0.34565887, -0.44093728, 0.23633328, 37.23211669921875, -16.127756118774414, -16.208707809448242, -29.234651565551758, -51.487518310546875, -163.41835021972656, 
481, 2493193954, 0.7917785, 0.34873062, -0.44709945, 0.22710341, 26.629114151000977, -27.111339569091797, -21.239370346069336, -15.844919204711914, -67.12153625488281, -41.588497161865234, 
482, 2493210621, 0.77620447, 0.3569739, -0.46242538, 0.23714809, 43.050086975097656, -12.169181823730469, -18.488868713378906, 89.6272964477539, -119.81684875488281, 89.99407196044922, 
483, 2493227288, 0.8037521, 0.31032693, -0.44753867, 0.23955986, 42.1506233215332, 3.837447166442871, 6.5388994216918945, -284.27508544921875, 249.95697021484375, 79.03204345703125, 
484, 2493243955, 0.82922465, 0.2987126, -0.402332, 0.24756093, -3.186647891998291, -1.6605671644210815, 11.898062705993652, -18.894805908203125, 365.57489013671875, -59.287506103515625, 
485, 2493260622, 0.8611494, 0.2717062, -0.35658756, 0.23967293, 8.36494255065918, 11.172981262207031, 16.83470916748047, -162.9327392578125, 379.9577941894531, -119.40461730957031, 
486, 2493277289, 0.8803054, 0.25394094, -0.32467243, 0.23487104, 8.856231689453125, -5.39332914352417, 9.886537551879883, -99.51577758789062, 257.00872802734375, -76.71883392333984, 
487, 2493293956, 0.8944043, 0.24471906, -0.28960508, 0.23723978, 4.683413505554199, -0.5749337673187256, 10.21282958984375, -17.739627838134766, 263.5077819824219, -49.77531051635742, 
488, 2493310623, 0.90166533, 0.24993703, -0.25979328, 0.2388277, 4.6699347496032715, 3.3010363578796387, 11.676199913024902, 72.52005004882812, 192.61312866210938, -63.346038818359375, 
489, 2493327290, 0.9059849, 0.25248662, -0.24130931, 0.23918998, 2.418707847595215, 6.962461471557617, 11.116676330566406, 40.25951385498047, 119.31639862060547, -41.86731719970703, 
490, 2493343957, 0.908989, 0.24661712, -0.23257865, 0.24254106, 3.9487721920013428, 9.154051780700684, 10.999213218688965, -20.997194290161133, 75.32542419433594, 9.868327140808105, 
491, 2493360624, 0.9096005, 0.23932849, -0.23336641, 0.24675699, 4.316748142242432, 4.786762237548828, 11.096692085266113, -40.33769226074219, 15.785776138305664, 37.73699188232422, 
492, 2493377291, 0.9086254, 0.23245236, -0.24039036, 0.2501566, 5.0965681076049805, 3.9172897338867188, 10.118896484375, -47.03288650512695, -27.850650787353516, 44.95124816894531, 
493, 2493393958, 0.9053313, 0.22630295, -0.2547931, 0.25346202, 4.725648403167725, 4.755527019500732, 11.692831039428711, -51.62979507446289, -79.21328735351562, 58.961090087890625, 
494, 2493410625, 0.89674526, 0.22122255, -0.2826974, 0.25882643, 3.5966806411743164, 6.832810401916504, 15.492987632751465, -56.67393493652344, -171.2595672607422, 100.1654052734375, 
495, 2493427292, 0.87867886, 0.21573476, -0.33153298, 0.2673353, 0.7523669600486755, 8.750926971435547, 19.364028930664062, -75.94795227050781, -313.4621276855469, 169.1483154296875, 
496, 2493443959, 0.8457739, 0.20802113, -0.4031985, 0.28075773, -4.936379909515381, 8.386006355285645, 18.626924514770508, -98.25910949707031, -474.3951110839844, 265.29803466796875, 
497, 2493460626, 0.79163074, 0.201458, -0.49144638, 0.30201977, -0.5161269903182983, 5.072116851806641, 14.346741676330566, -71.56793212890625, -621.633056640625, 372.878173828125, 
498, 2493477293, 0.7346591, 0.18511772, -0.5709014, 0.31635275, 12.085126876831055, 10.459770202636719, 13.434822082519531, -126.17276000976562, -572.6187133789062, 361.83148193359375, 
499, 2493493960, 0.7032096, 0.16541988, -0.6147036, 0.3166578, 31.794252395629883, 6.530155658721924, 3.6868650913238525, -153.10528564453125, -302.2445983886719, 202.901611328125, 
500, 2493510627, 0.69565964, 0.1662545, -0.61548287, 0.3310563, 10.370697975158691, -5.664468288421631, 15.304591178894043, 72.26776123046875, -21.688257217407227, 83.34541320800781, 
501, 2493527294, 0.7020267, 0.15910524, -0.6021247, 0.3453837, -53.403987884521484, 31.316492080688477, 21.908145904541016, 50.01102828979492, 122.74653625488281, 68.89232635498047, 
502, 2493543961, 0.7039652, 0.16452429, -0.5969261, 0.34791398, -12.386740684509277, 22.002851486206055, 16.35597038269043, 47.086421966552734, 21.797489166259766, -20.386438369750977, 
503, 2493560628, 0.7311007, 0.15378562, -0.5708295, 0.34058133, -21.179819107055664, 10.116941452026367, 7.2644429206848145, -50.27436447143555, 253.62948608398438, -85.52398681640625, 
504, 2493577295, 0.7521212, 0.16386119, -0.53925276, 0.34156948, -21.584369659423828, 8.583590507507324, 1.0003104209899902, 106.27420043945312, 217.03732299804688, -116.83573150634766, 
505, 2493593962, 0.76853603, 0.18348396, -0.50828177, 0.342543, -7.987499713897705, 9.345436096191406, 4.188710689544678, 159.34185791015625, 174.27293395996094, -140.7432861328125, 
506, 2493610629, 0.78710914, 0.20980416, -0.4710638, 0.33843815, -0.049101151525974274, 7.809891700744629, 3.934526205062866, 188.97926330566406, 192.5843048095703, -203.85670471191406, 
507, 2493627296, 0.8045253, 0.2301515, -0.4413394, 0.32401994, 7.57724142074585, 10.060782432556152, 2.955350160598755, 107.44481658935547, 147.2205810546875, -226.688232421875, 
508, 2493643963, 0.81585515, 0.24480882, -0.4279512, 0.3021705, 13.757022857666016, 1.8503679037094116, 1.3532403707504272, 26.63838768005371, 39.263240814208984, -210.96511840820312, 
509, 2493660630, 0.81906927, 0.26863456, -0.42257723, 0.27998108, 21.85965347290039, -1.5037150382995605, 1.3406612873077393, 74.17599487304688, -49.128868103027344, -209.48150634765625, 
510, 2493677297, 0.8175851, 0.29229417, -0.42417076, 0.25728992, 32.598907470703125, -2.38740873336792, 0.8329542875289917, 67.17024993896484, -102.4776840209961, -189.9376678466797, 
511, 2493693964, 0.81676674, 0.31448656, -0.42371833, 0.23335195, 38.455360412597656, -7.465864181518555, -2.7011337280273438, 57.68378829956055, -88.70458984375, -198.05113220214844, 
512, 2493710631, 0.81622964, 0.3372627, -0.4190983, 0.21066499, 39.33293533325195, -13.150246620178223, -6.562530994415283, 70.80192565917969, -62.38818359375, -202.39312744140625, 
513, 2493727298, 0.81664944, 0.3522739, -0.4134061, 0.19514677, 38.58277130126953, -14.033141136169434, -12.723196983337402, 47.299285888671875, -25.370065689086914, -143.94349670410156, 
514, 2493743965, 0.8192227, 0.3505508, -0.41018403, 0.19426176, 33.4399299621582, -14.684859275817871, -17.993242263793945, -13.57050609588623, 25.19893455505371, -11.448180198669434, 
515, 2493760632, 0.8191558, 0.34292117, -0.41058692, 0.20689933, 22.939706802368164, -15.462911605834961, -21.751094818115234, -7.167863368988037, 38.26409149169922, 93.32789611816406, 
516, 2493777299, 0.8066172, 0.35299915, -0.41970646, 0.22046995, 14.571778297424316, -1.8171589374542236, -21.28896141052246, 112.22575378417969, -68.62005615234375, 86.62213897705078, 
517, 2493793966, 0.81533664, 0.32834703, -0.4237863, 0.2186771, 43.9990119934082, 4.459723949432373, 17.663331985473633, -168.7513885498047, 36.38593292236328, 57.1358528137207, 
518, 2493810633, 0.8353928, 0.30542576, -0.39900196, 0.2227822, -8.905505180358887, 4.495870590209961, 9.735136032104492, -123.96544647216797, 242.07814025878906, 2.840574264526367, 
519, 2493827300, 0.8621152, 0.27863806, -0.36214736, 0.21901529, 31.229177474975586, 7.284543514251709, 10.521363258361816, -163.27720642089844, 319.0068664550781, -67.21854400634766, 
520, 2493843967, 0.88199717, 0.2586754, -0.32970732, 0.21554874, -2.58705997467041, 4.840580940246582, 11.15876579284668, -115.55165100097656, 266.1839599609375, -63.64388656616211, 
521, 2493860634, 0.8963118, 0.24401118, -0.29800588, 0.21971895, 12.193519592285156, 4.613216400146484, 9.505841255187988, -57.25895690917969, 254.65541076660156, -19.678810119628906, 
522, 2493877301, 0.9068859, 0.23125094, -0.2717018, 0.22418556, 1.2651104927062988, 2.8896424770355225, 11.6392240524292, -46.76504898071289, 211.35069274902344, -7.016727924346924, 
523, 2493893968, 0.9147566, 0.2210174, -0.25019765, 0.22753671, 5.952369213104248, 0.05321379005908966, 9.809673309326172, -36.15586471557617, 170.59463500976562, -6.857236385345459, 
524, 2493910635, 0.9208482, 0.21320572, -0.23277135, 0.22890969, 3.9231228828430176, -0.08737841248512268, 9.817549705505371, -27.95159149169922, 135.06521606445312, -14.486802101135254, 
525, 2493927302, 0.9249459, 0.20837615, -0.22042052, 0.22906218, 3.6953067779541016, 3.5627312660217285, 10.522100448608398, -16.044374465942383, 93.21941375732422, -16.408226013183594, 
526, 2493943969, 0.9276597, 0.20338233, -0.21301995, 0.22957762, 4.587523460388184, 3.4156646728515625, 10.009125709533691, -22.34836196899414, 60.377037048339844, -4.558774948120117, 
527, 2493960636, 0.9292332, 0.19880836, -0.20941707, 0.23053336, 4.276925563812256, 3.5585520267486572, 9.402817726135254, -23.422603607177734, 34.41598129272461, 4.762877464294434, 
528, 2493977303, 0.93014926, 0.19390884, -0.20918556, 0.23122106, 4.208061218261719, 3.459298610687256, 9.673649787902832, -30.33615493774414, 12.058560371398926, 9.188030242919922, 
529, 2493993970, 0.93057317, 0.18824387, -0.21186347, 0.2317583, 4.633462429046631, 2.492575168609619, 9.02086353302002, -39.42039108276367, -6.260865688323975, 14.005189895629883, 
530, 2494010637, 0.930054, 0.18422154, -0.21697971, 0.23234028, 4.522432327270508, 2.6523029804229736, 9.386907577514648, -31.506622314453125, -25.807348251342773, 16.56768798828125, 
531, 2494027304, 0.92865545, 0.18061535, -0.22505164, 0.23308599, 4.371905326843262, 3.0029561519622803, 9.444000244140625, -32.209442138671875, -46.49330520629883, 22.150941848754883, 
532, 2494043971, 0.9263055, 0.17790307, -0.23539735, 0.23430102, 4.669166088104248, 1.674626350402832, 8.983569145202637, -28.24261474609375, -63.355770111083984, 28.12190818786621, 
533, 2494060638, 0.92312324, 0.176832, -0.24738495, 0.23531851, 5.120466232299805, 1.0730383396148682, 8.638883590698242, -19.730741500854492, -78.06147003173828, 27.55459213256836, 
534, 2494077305, 0.9193016, 0.17725275, -0.26026013, 0.23607413, 5.159039497375488, 0.9186186194419861, 8.41472339630127, -11.357131004333496, -87.5284423828125, 25.46019172668457, 
535, 2494093972, 0.9150615, 0.17814542, -0.27378568, 0.236576, 5.444309234619141, 1.2806652784347534, 7.967041492462158, -9.366523742675781, -93.47696685791016, 24.471647262573242, 
536, 2494110639, 0.9107468, 0.17918713, -0.28705567, 0.23670967, 5.985839366912842, 0.831946074962616, 7.131646156311035, -8.613771438598633, -92.71339416503906, 21.672704696655273, 
537, 2494127306, 0.9063412, 0.18104468, -0.29943866, 0.23686552, 6.387740612030029, 1.3459835052490234, 7.064396858215332, -1.9025728702545166, -88.64141845703125, 19.244787216186523, 
538, 2494143973, 0.90182066, 0.18286575, -0.31116474, 0.23760548, 6.446004390716553, 2.2527389526367188, 6.677051544189453, 0.28355294466018677, -83.99761962890625, 22.31965446472168, 
539, 2494160640, 0.8971527, 0.18466823, -0.32214734, 0.2392405, 6.561642169952393, 2.3289129734039307, 6.433037757873535, 3.4737045764923096, -78.55027770996094, 27.216028213500977, 
540, 2494177307, 0.89228916, 0.18629052, -0.33275005, 0.2416472, 6.670764923095703, 2.294339179992676, 6.472541809082031, 4.9346723556518555, -75.36489868164062, 32.21621322631836, 
541, 2494193974, 0.8869601, 0.18836462, -0.34306845, 0.24520335, 7.216073513031006, 1.8680481910705566, 6.750540256500244, 11.398435592651367, -73.97132110595703, 38.64432907104492, 
542, 2494210641, 0.88045484, 0.1927044, -0.35412395, 0.24952096, 6.389857292175293, 0.8280872702598572, 7.446372032165527, 27.289167404174805, -84.08031463623047, 40.87630081176758, 
543, 2494227308, 0.87145615, 0.20179796, -0.36762884, 0.2543441, 6.400296688079834, -0.15962383151054382, 8.02534294128418, 56.40524673461914, -112.49392700195312, 39.86341857910156, 
544, 2494243975, 0.85928917, 0.21381713, -0.38506475, 0.26005688, 6.738335132598877, 3.530736207962036, 9.42547607421875, 73.7146224975586, -147.98260498046875, 48.755584716796875, 
545, 2494260642, 0.84395224, 0.22407338, -0.40819263, 0.26629826, 7.202309608459473, 3.620840072631836, 9.229680061340332, 59.16391372680664, -186.1443328857422, 70.5805435180664, 
546, 2494277309, 0.82630557, 0.23169914, -0.43533733, 0.2720588, 8.187050819396973, 4.194624900817871, 9.30141830444336, 38.72934341430664, -211.92861938476562, 85.59100341796875, 
547, 2494293976, 0.80779046, 0.23518007, -0.46344572, 0.27817807, 10.408287048339844, 4.985606670379639, 8.676623344421387, 15.806562423706055, -211.73928833007812, 103.20692443847656, 
548, 2494310643, 0.79135144, 0.23156117, -0.49023432, 0.28251144, 11.17043685913086, 5.087183952331543, 8.012402534484863, -30.18159294128418, -187.13661193847656, 109.82979583740234, 
549, 2494327310, 0.77770233, 0.22530743, -0.51211566, 0.2866242, 10.324479103088379, 3.0625202655792236, 6.381485939025879, -40.19453430175781, -146.2912139892578, 104.31055450439453, 
550, 2494343977, 0.76622117, 0.21699584, -0.53105885, 0.2894734, 11.210810661315918, 3.1034088134765625, 5.9828643798828125, -53.228477478027344, -120.87293243408203, 95.99800109863281, 
551, 2494360644, 0.7596787, 0.20918383, -0.5421158, 0.29196095, 11.414690971374512, 1.2786552906036377, 9.737222671508789, -43.597679138183594, -62.84529495239258, 70.6994400024414, 
552, 2494377311, 0.7612613, 0.20501456, -0.5366681, 0.30072853, 2.908482074737549, 5.903812408447266, 10.201552391052246, 20.2716064453125, 55.293785095214844, 49.88392639160156, 
553, 2494393978, 0.7670309, 0.19567962, -0.53122133, 0.30195522, -0.3089545965194702, 3.8103301525115967, 6.875174522399902, -40.53033447265625, 70.67281341552734, 20.87964630126953, 
554, 2494410645, 0.775652, 0.1918147, -0.5196458, 0.30255464, 1.2426419258117676, 4.125320911407471, 5.719217777252197, -5.1135149002075195, 101.12489318847656, -16.534500122070312, 
555, 2494427312, 0.7866803, 0.18819867, -0.5060339, 0.299408, 1.0511122941970825, 2.9373440742492676, 5.381285667419434, -16.133649826049805, 115.06501770019531, -45.052677154541016, 
556, 2494443979, 0.79988533, 0.18922795, -0.4878883, 0.2938391, 0.8900331258773804, 2.8016717433929443, 5.500235557556152, 7.061192035675049, 134.41119384765625, -84.63971710205078, 
557, 2494460646, 0.8147203, 0.19269507, -0.46715087, 0.2843764, 1.1780027151107788, 3.821627616882324, 5.657245635986328, 10.506235122680664, 144.0887451171875, -120.87873840332031, 
558, 2494477313, 0.8306845, 0.19624707, -0.44596142, 0.26938593, 1.9914288520812988, 3.55574107170105, 5.504921913146973, -7.407167911529541, 142.7039337158203, -154.89854431152344, 
559, 2494493980, 0.84701633, 0.20055722, -0.42450413, 0.24927239, 4.119479179382324, 3.370136260986328, 5.671092510223389, -18.80055809020996, 136.99948120117188, -187.5087432861328, 
560, 2494510647, 0.8639358, 0.2045629, -0.40165186, 0.22459854, 6.2162699699401855, 3.472492218017578, 5.931936740875244, -32.31257247924805, 141.04600524902344, -216.10186767578125, 
561, 2494527314, 0.88034683, 0.20789745, -0.37857866, 0.19607726, 7.133968353271484, 3.0016632080078125, 5.901515483856201, -45.87041473388672, 136.56517028808594, -236.6229705810547, 
562, 2494543981, 0.8956412, 0.21044746, -0.35573086, 0.16429937, 8.839329719543457, 3.2324938774108887, 6.425036430358887, -57.800865173339844, 128.6956024169922, -252.46983337402344, 
563, 2494560648, 0.91048634, 0.20707206, -0.33351272, 0.1300198, 12.285781860351562, 6.243945598602295, 6.7761735916137695, -100.47248077392578, 126.80829620361328, -251.96847534179688, 
564, 2494577315, 0.92483747, 0.19487695, -0.31249553, 0.095107324, 14.35531997680664, 6.282131195068359, 4.050230979919434, -157.5362548828125, 125.18668365478516, -233.54144287109375, 
565, 2494593982, 0.9367535, 0.17680068, -0.29577884, 0.06123302, 16.085790634155273, 4.203773021697998, 0.6798028349876404, -192.28475952148438, 97.9285659790039, -206.92581176757812, 
566, 2494610649, 0.94456017, 0.16083853, -0.2848284, 0.028461175, 18.062593460083008, 4.496189594268799, -0.05055266618728638, -173.8723602294922, 53.009056091308594, -195.36940002441406, 
567, 2494627316, 0.94880164, 0.15018661, -0.27783543, -0.005213553, 18.55590057373047, 4.575891494750977, -0.4664483666419983, -138.01995849609375, 18.446950912475586, -206.54571533203125, 
568, 2494643983, 0.9489821, 0.14756322, -0.27603045, -0.038279522, 17.80589485168457, 3.693909168243408, -1.093575119972229, -80.14937591552734, -22.07141876220703, -212.68182373046875, 
569, 2494660650, 0.94610757, 0.14944683, -0.2787928, -0.06943329, 14.082820892333984, 6.318641185760498, 1.6627641916275024, -42.8694953918457, -54.379730224609375, -204.92184448242188, 
570, 2494677317, 0.9412508, 0.15419653, -0.28368002, -0.098975256, 10.837905883789062, 0.8337782621383667, 1.9509690999984741, -18.163795471191406, -68.87201690673828, -198.66871643066406, 
571, 2494693984, 0.93469745, 0.16398674, -0.289947, -0.12401555, 8.217865943908691, 3.6309239864349365, 4.710412979125977, 25.942001342773438, -72.83599853515625, -179.07615661621094, 
572, 2494710651, 0.9282222, 0.17185721, -0.2961835, -0.1454107, 8.222689628601074, 1.9467225074768066, 5.1651997566223145, 20.71451759338379, -69.98306274414062, -151.7861785888672, 
573, 2494727318, 0.9229021, 0.17712967, -0.30081716, -0.16243757, 8.863912582397461, 3.841810464859009, 6.73192024230957, 10.039277076721191, -54.809326171875, -119.3713150024414, 
574, 2494743985, 0.9201029, 0.17622475, -0.30403632, -0.17296708, 8.192740440368652, 1.6789360046386719, 6.93605899810791, -20.387853622436523, -39.581459045410156, -64.27989196777344, 
575, 2494760652, 0.9205489, 0.17295934, -0.3025981, -0.17637828, 7.84004545211792, -1.0484919548034668, 9.053337097167969, -29.899553298950195, 2.5035552978515625, -16.124937057495117, 
576, 2494777319, 0.92199874, 0.17565696, -0.2973576, -0.17504764, 3.5908865928649902, 4.525452136993408, 8.21080493927002, 11.951635360717773, 41.530216217041016, -1.8814697265625, 
577, 2494793986, 0.924026, 0.17333992, -0.29275256, -0.17442805, 2.9900670051574707, 7.676584720611572, 7.8939971923828125, -21.21614646911621, 31.76744842529297, 5.329012393951416, 
578, 2494810653, 0.9263672, 0.16881263, -0.28893486, -0.17280822, 5.147469520568848, 4.376373767852783, 8.815522193908691, -32.689247131347656, 25.91958999633789, 17.485755920410156, 
579, 2494827320, 0.9283652, 0.16346881, -0.28607172, -0.17198582, 5.734855651855469, 6.237115383148193, 8.259673118591309, -37.928955078125, 17.254518508911133, 14.731392860412598, 
580, 2494843987, 0.9299792, 0.15708357, -0.28444183, -0.17192012, 5.314576625823975, 3.8477258682250977, 7.941707611083984, -44.18095016479492, 6.549850940704346, 12.90202808380127, 
581, 2494860654, 0.9312766, 0.1527025, -0.2830283, -0.17117448, 4.728636264801025, 4.378957271575928, 7.931476593017578, -29.42890167236328, 7.65066385269165, 13.192928314208984, 
582, 2494877321, 0.9324604, 0.14842294, -0.28179595, -0.17052697, 5.087340354919434, 3.662865161895752, 7.435171604156494, -28.633140563964844, 6.281172275543213, 12.432313919067383, 
583, 2494893988, 0.93357915, 0.14477028, -0.28034356, -0.16993879, 4.941797256469727, 3.5759775638580322, 7.557713031768799, -24.91383934020996, 8.241083145141602, 10.538894653320312, 
584, 2494910655, 0.93475175, 0.14144078, -0.27838993, -0.16950847, 5.275340557098389, 3.2663819789886475, 7.348338603973389, -23.775875091552734, 11.781906127929688, 8.469522476196289, 
585, 2494927322, 0.93598604, 0.13852486, -0.2758329, -0.16928563, 4.749970436096191, 3.5628886222839355, 7.444636821746826, -22.272085189819336, 16.06138038635254, 5.828948020935059, 
586, 2494943989, 0.9371091, 0.13587138, -0.27334872, -0.16925184, 4.793405532836914, 3.0386688709259033, 7.823220252990723, -20.746761322021484, 15.505087852478027, 4.0577473640441895, 
587, 2494960656, 0.9380353, 0.13400568, -0.2710349, -0.16932878, 4.8260698318481445, 3.264538049697876, 7.851324081420898, -15.489238739013672, 14.848608016967773, 1.7923859357833862, 
588, 2494977323, 0.9389977, 0.13201028, -0.2686223, -0.16940707, 4.694315433502197, 3.177347421646118, 7.957814693450928, -16.47064781188965, 15.397249221801758, 1.9753509759902954, 
589, 2494993990, 0.9397238, 0.13090484, -0.26650774, -0.16957848, 4.678287982940674, 2.874350070953369, 8.064432144165039, -10.330123901367188, 13.985053062438965, -0.27517029643058777, 
590, 2495010657, 0.94015473, 0.13056833, -0.26495525, -0.16988203, 4.454495906829834, 3.203001022338867, 8.17142391204834, -4.674306869506836, 10.586163520812988, -2.3807270526885986, 
591, 2495027324, 0.9405154, 0.13011894, -0.26376647, -0.17008045, 4.611037731170654, 3.8208343982696533, 8.00581169128418, -4.720806121826172, 8.063271522521973, -1.2529735565185547, 
592, 2495043991, 0.9410318, 0.12901516, -0.26248515, -0.17004761, 4.559086799621582, 3.766758680343628, 7.887313365936279, -8.77935791015625, 8.382431983947754, 1.5329656600952148, 
593, 2495060658, 0.94149756, 0.12806998, -0.2613389, -0.16994874, 4.464862823486328, 3.3284072875976562, 8.13081169128418, -7.430682182312012, 7.65870475769043, 1.7369834184646606, 
594, 2495077325, 0.941761, 0.12751628, -0.26076302, -0.16979007, 4.399473190307617, 3.2387068271636963, 8.238541603088379, -3.9400534629821777, 4.10732364654541, 1.6878708600997925, 
595, 2495093992, 0.94182456, 0.12738617, -0.2607175, -0.16960518, 4.4124627113342285, 3.4150748252868652, 8.18289852142334, -0.3514958620071411, 0.8279880881309509, 1.3292670249938965, 
596, 2495110659, 0.9419079, 0.12698254, -0.26071483, -0.1694482, 4.593693256378174, 3.0039749145507812, 7.891210556030273, -2.135727643966675, 0.23725683987140656, 1.6998956203460693, 
597, 2495127326, 0.94187367, 0.12725043, -0.26077047, -0.16935194, 4.496536731719971, 3.4096879959106445, 8.1311616897583, 2.279895305633545, 0.37629538774490356, 0.014554417692124844, 
598, 2495143993, 0.9418162, 0.12751469, -0.2608647, -0.16932815, 4.490755558013916, 3.5053579807281494, 8.056795120239258, 2.194080114364624, 0.01258223969489336, -0.44242098927497864, 
599, 2495160660, 0.94176656, 0.12770016, -0.26095784, -0.16932063, 4.513360500335693, 3.306142568588257, 8.095734596252441, 1.6489903926849365, -0.07533975690603256, -0.3971633017063141, 
600, 2495177327, 0.94162077, 0.12833841, -0.26121017, -0.16925985, 4.4669508934021, 3.374828338623047, 8.025200843811035, 4.9497504234313965, -0.7087547183036804, -0.8380732536315918, 
601, 2495193994, 0.94145924, 0.12892891, -0.26150057, -0.16926101, 4.489185810089111, 3.280649423599243, 7.948585510253906, 4.590007305145264, -1.0973505973815918, -1.1384717226028442, 
602, 2495210661, 0.94118476, 0.12978542, -0.26198515, -0.16938363, 4.420653820037842, 3.1236250400543213, 8.0973539352417, 6.422596454620361, -2.359173059463501, -2.36446213722229, 
603, 2495227328, 0.9407828, 0.1310945, -0.2626954, -0.16950871, 4.464824676513672, 3.4415721893310547, 8.027830123901367, 9.727598190307617, -3.5282914638519287, -3.1444594860076904, 
604, 2495243995, 0.94049567, 0.13171624, -0.26333874, -0.16962212, 4.545626163482666, 3.8172664642333984, 7.896247386932373, 5.124327182769775, -3.682978868484497, -1.754969596862793, 
605, 2495260662, 0.94033843, 0.13193156, -0.2638143, -0.16958727, 4.522988796234131, 3.5813043117523193, 7.9153289794921875, 2.451244354248047, -2.7045857906341553, -0.05867869779467583, 
606, 2495277329, 0.94026107, 0.13179317, -0.2642657, -0.16942175, 4.546842098236084, 3.711674690246582, 7.896763801574707, 0.301365464925766, -2.7003471851348877, 1.5002192258834839, 
607, 2495293996, 0.94027615, 0.1313393, -0.26459435, -0.1691766, 4.598906993865967, 3.361124277114868, 7.92838191986084, -1.8181302547454834, -2.0357871055603027, 2.5873496532440186, 
608, 2495310663, 0.9402652, 0.13099258, -0.26493138, -0.16897868, 4.554479598999023, 3.4088094234466553, 7.959610939025879, -1.1749186515808105, -2.057199478149414, 2.063852310180664, 
609, 2495327330, 0.9402752, 0.13046871, -0.26521263, -0.16888659, 4.525771141052246, 3.567033052444458, 7.937473773956299, -2.5934269428253174, -1.9631750583648682, 1.6775999069213867, 
610, 2495343997, 0.9403693, 0.12951043, -0.26540047, -0.16880508, 4.651373386383057, 3.5250375270843506, 7.920689582824707, -5.603253364562988, -1.722172737121582, 2.4175000190734863, 
611, 2495360664, 0.94055414, 0.12823418, -0.26539522, -0.1687585, 4.617129802703857, 3.486692428588867, 7.89458703994751, -8.024306297302246, -0.711008608341217, 2.7075252532958984, 
612, 2495377331, 0.9408226, 0.126484, -0.26531184, -0.16871436, 4.548442363739014, 3.620309352874756, 8.023360252380371, -11.256799697875977, -0.6067908406257629, 3.586554527282715, 
613, 2495393998, 0.94113934, 0.12453352, -0.2651597, -0.16863748, 4.592189311981201, 3.528965950012207, 7.958553791046143, -12.61234188079834, -0.2807537913322449, 4.165184497833252, 
614, 2495410665, 0.9416178, 0.121823974, -0.26486963, -0.16840178, 4.652036190032959, 3.722501516342163, 7.858705997467041, -17.53041648864746, 0.1600603461265564, 6.650339126586914, 
615, 2495427332, 0.94239223, 0.11805981, -0.26413336, -0.16790584, 4.627325534820557, 4.032780647277832, 7.865148544311523, -24.64883804321289, 2.5847055912017822, 10.232087135314941, 
616, 2495443999, 0.94368017, 0.11229811, -0.2625361, -0.16712835, 4.744583606719971, 4.219410419464111, 7.724850654602051, -38.491451263427734, 7.016982078552246, 15.590144157409668, 
617, 2495460666, 0.9454304, 0.10463892, -0.25993744, -0.16626672, 4.723947048187256, 3.5322866439819336, 7.854229927062988, -52.1622314453125, 12.236024856567383, 19.334474563598633, 
618, 2495477333, 0.94720125, 0.096756674, -0.25705597, -0.16543975, 4.635289192199707, 2.987856864929199, 8.117965698242188, -54.011741638183594, 13.830879211425781, 19.340803146362305, 
619, 2495494000, 0.9489522, 0.08858954, -0.25401366, -0.16467819, 4.589772701263428, 2.655376434326172, 8.244941711425781, -56.14767074584961, 14.472782135009766, 19.297855377197266, 
620, 2495510667, 0.9504018, 0.081207335, -0.25144595, -0.16406414, 4.372654438018799, 1.6332265138626099, 8.566795349121094, -50.5572395324707, 11.645687103271484, 16.920228958129883, 
621, 2495527334, 0.9514074, 0.07510824, -0.24972863, -0.1637641, 4.32851505279541, 1.6950123310089111, 8.64305591583252, -41.497100830078125, 6.586150646209717, 12.624603271484375, 
622, 2495544001, 0.9520578, 0.070190385, -0.24867757, -0.16376524, 4.385692119598389, 1.697620153427124, 8.549320220947266, -33.34294128417969, 2.7848098278045654, 8.570281982421875, 
623, 2495560668, 0.9525785, 0.0657028, -0.24778655, -0.1639494, 4.536776542663574, 1.8228200674057007, 8.493775367736816, -30.589481353759766, 1.9054185152053833, 6.568994522094727, 
624, 2495577335, 0.95293385, 0.061953712, -0.24717522, -0.16426693, 4.480625629425049, 1.834639549255371, 8.564640998840332, -25.584177017211914, 0.5596708059310913, 4.378955841064453, 
625, 2495594002, 0.9532328, 0.057688933, -0.24666673, -0.16484812, 4.480948448181152, 2.279672384262085, 8.675010681152344, -29.26682472229004, -0.9095993638038635, 3.505486488342285, 
626, 2495610669, 0.9533872, 0.05333541, -0.24638866, -0.16583405, 4.473437309265137, 1.3598603010177612, 8.70407772064209, -30.216381072998047, -2.9325993061065674, 0.933630645275116, 
627, 2495627336, 0.9532238, 0.04902819, -0.24676447, -0.1675352, 4.27994441986084, 1.1024928092956543, 9.013384819030762, -30.25152015686035, -7.971019744873047, -3.9450862407684326, 
628, 2495644003, 0.95253104, 0.044533428, -0.24841152, -0.17027436, 4.070713520050049, 1.2887495756149292, 9.588838577270508, -31.59333038330078, -17.7772216796875, -10.616375923156738, 
629, 2495660670, 0.9512877, 0.037964024, -0.25145903, -0.17429572, 3.5245778560638428, 2.455643653869629, 10.406550407409668, -45.55617904663086, -30.726898193359375, -15.6852445602417, 
630, 2495677337, 0.9488302, 0.028271781, -0.2573104, -0.18086848, 3.924875259399414, 2.0747663974761963, 10.874741554260254, -66.71633911132812, -55.598182678222656, -27.674898147583008, 
631, 2495694004, 0.9456305, 0.014206083, -0.26532516, -0.18757415, 3.7545154094696045, 3.868495464324951, 10.322534561157227, -92.6512680053711, -76.51795196533203, -21.296409606933594, 
632, 2495710671, 0.9417402, -0.0025115313, -0.275921, -0.19231942, 4.530406475067139, 3.373779535293579, 10.025182723999023, -102.92469024658203, -97.81478881835938, -4.299307346343994, 
633, 2495727338, 0.9367281, -0.02241974, -0.2897409, -0.19516166, 4.777562141418457, 3.0537307262420654, 10.400712966918945, -115.75395202636719, -125.10124206542969, 12.543183326721191, 
634, 2495744005, 0.930327, -0.046038367, -0.30676982, -0.19561303, 3.945871114730835, 2.9341330528259277, 10.943353652954102, -130.80030822753906, -153.91844177246094, 33.018070220947266, 
635, 2495760672, 0.9222109, -0.07009249, -0.32758018, -0.19314636, 5.303616523742676, 1.5601024627685547, 10.441436767578125, -122.81629943847656, -183.27992248535156, 49.23821258544922, 
636, 2495777339, 0.91266954, -0.096987605, -0.35000816, -0.18740878, 5.752414226531982, 2.5334157943725586, 10.807021141052246, -131.81832885742188, -202.1501922607422, 73.95281219482422, 
637, 2495794006, 0.90067756, -0.13097213, -0.37084448, -0.18466383, 4.058099746704102, 2.2276339530944824, 10.863566398620605, -187.07766723632812, -205.2831268310547, 70.29175567626953, 
638, 2495810673, 0.8849292, -0.17185657, -0.3887743, -0.19031654, 5.293244361877441, 2.007723808288574, 10.978386878967285, -258.54931640625, -198.13719177246094, 33.4918327331543, 
639, 2495827340, 0.86585325, -0.21685863, -0.39919817, -0.20955098, 6.792274475097656, -0.8005051612854004, 10.101251602172852, -335.9503479003906, -150.25416564941406, -35.5948600769043, 
640, 2495844007, 0.8441465, -0.2559353, -0.40247765, -0.24479672, 7.042256832122803, 1.3943183422088623, 8.583074569702148, -357.23748779296875, -82.9721450805664, -138.87535095214844, 
641, 2495860674, 0.81940246, -0.28356332, -0.402231, -0.2939076, 3.80434250831604, 5.314187049865723, 8.334052085876465, -342.3931579589844, -26.724397659301758, -251.3544921875, 
642, 2495877341, 0.7932249, -0.3112017, -0.39234847, -0.34642562, 6.828135013580322, 4.0445451736450195, 8.469712257385254, -370.43426513671875, 29.009136199951172, -251.93731689453125, 
643, 2495894008, 0.77373886, -0.33265892, -0.37277374, -0.38949457, 5.097774982452393, -2.3792724609375, 5.985956192016602, -321.0278625488281, 94.66876220703125, -181.0430450439453, 
644, 2495910675, 0.7630174, -0.34370798, -0.3500388, -0.4208827, 3.383934736251831, -2.5510008335113525, 7.0641608238220215, -224.24832153320312, 135.07473754882812, -115.0019302368164, 
645, 2495927342, 0.759929, -0.34305903, -0.32526714, -0.44611657, 4.0228071212768555, 2.7952632904052734, 7.087839126586914, -135.8916015625, 183.3638916015625, -83.99041748046875, 
646, 2495944009, 0.7570871, -0.33772016, -0.29908904, -0.47255683, 4.830729007720947, 7.384432315826416, 5.9978132247924805, -117.84449005126953, 208.44593811035156, -96.69610595703125, 
647, 2495960676, 0.7477001, -0.3302849, -0.27520162, -0.5060834, 4.035654067993164, 10.264358520507812, 4.619600772857666, -129.3162078857422, 206.29461669921875, -164.450439453125, 
648, 2495977343, 0.72986317, -0.32304826, -0.25660414, -0.5450632, 5.270721435546875, 9.882027626037598, 3.6909637451171875, -141.49697875976562, 174.7576446533203, -233.48936462402344, 
649, 2495994010, 0.70571285, -0.31389323, -0.24427935, -0.5863173, 6.908071041107178, 9.107203483581543, 3.472057342529297, -126.43283081054688, 144.34014892578125, -285.85516357421875, 
650, 2496010677, 0.67684436, -0.30481026, -0.23570234, -0.62722963, 9.234116554260254, 8.634347915649414, 4.195091247558594, -121.30511474609375, 117.16766357421875, -311.1554260253906, 
