sep=,
DeviceTag:,L Forearm - 10,,,,,,,,,,,,,,,,,
FirmwareVersion:,3.0.0,,,,,,,,,,,,,,,,,
AppVersion:,2023.6.1,,,,,,,,,,,,,,,,,
StartTime:,2024-05-23 11:49:42.000 +0200,,,,,,,,,,,,,,,,,
 2024,,,,,,,,,,,,,,,,,,,

PacketCounter,SampleTimeFine,Quat_W,Quat_X,Quat_Y,Quat_Z,Acc_X,Acc_Y,Acc_Z,Gyr_X,Gyr_Y,Gyr_Z,
0, 2504855525, 0.65364367, 0.4486554, -0.44038394, 0.4213316, 0.0, 0.0, 0.0, 0.0, 0.0, 0.0, 
1, 2504872192, 0.6534655, 0.44807076, -0.4410991, 0.42148197, 9.338133811950684, 2.172966957092285, 2.067255735397339, -0.38839098811149597, -0.21152251958847046, 5.85851526260376, 
2, 2504888859, 0.65345246, 0.44784757, -0.44121554, 0.42161787, 9.340531349182129, 2.1990530490875244, 2.073453187942505, -0.08388160169124603, -0.09544573724269867, 6.580588340759277, 
3, 2504905526, 0.65328985, 0.44802293, -0.44090208, 0.42201105, 9.380207061767578, 2.2455294132232666, 2.075711965560913, 0.48302367329597473, -0.20819289982318878, 7.010704040527344, 
4, 2504922193, 0.65324974, 0.44812503, -0.4407454, 0.4221283, 9.39161205291748, 2.2369232177734375, 2.1296660900115967, 0.9824969172477722, -0.1572876125574112, 7.490902423858643, 
5, 2504938860, 0.6533118, 0.44795683, -0.44069192, 0.42226657, 9.401647567749023, 2.255150556564331, 2.1461434364318848, 1.589582085609436, 0.08028943091630936, 7.849032402038574, 
6, 2504955527, 0.6531361, 0.44793302, -0.44045, 0.4228159, 9.421222686767578, 2.286569833755493, 2.1131579875946045, 2.5158910751342773, 0.21520432829856873, 8.143922805786133, 
7, 2504972194, 0.65298015, 0.44782624, -0.44039518, 0.42322642, 9.413129806518555, 2.3391330242156982, 2.1476221084594727, 2.9103524684906006, 0.235989049077034, 8.362733840942383, 
8, 2504988861, 0.6529273, 0.44759583, -0.4404447, 0.42350042, 9.469087600708008, 2.3689332008361816, 2.141887664794922, 2.457853078842163, 0.31796255707740784, 8.500581741333008, 
9, 2505005528, 0.6526863, 0.44756487, -0.44030392, 0.42405045, 9.463217735290527, 2.3712635040283203, 2.120194673538208, 2.6822328567504883, 0.5394099950790405, 8.461099624633789, 
10, 2505022195, 0.6524211, 0.4475773, -0.4401899, 0.42456374, 9.447208404541016, 2.373537540435791, 2.13607120513916, 2.984104871749878, 0.4880821704864502, 8.189156532287598, 
11, 2505038862, 0.65214574, 0.4476022, -0.44006312, 0.42509112, 9.424783706665039, 2.3833489418029785, 2.1445770263671875, 2.5392627716064453, 0.5077782869338989, 7.8384294509887695, 
12, 2505055529, 0.6519817, 0.4475363, -0.4400221, 0.4254549, 9.406170845031738, 2.3718154430389404, 2.143385410308838, 2.4443163871765137, 0.5737565755844116, 7.434298992156982, 
13, 2505072196, 0.65184206, 0.44749546, -0.43995807, 0.4257778, 9.434715270996094, 2.3604819774627686, 2.1487438678741455, 2.836946725845337, 0.6763995885848999, 6.876826286315918, 
14, 2505088863, 0.6516525, 0.44755772, -0.43978384, 0.42618257, 9.42557144165039, 2.362147808074951, 2.1293866634368896, 3.5530900955200195, 0.9094365835189819, 6.3444647789001465, 
15, 2505105530, 0.65155923, 0.44757912, -0.4396338, 0.42645743, 9.43410873413086, 2.3891749382019043, 2.169703483581543, 3.4514074325561523, 1.0848580598831177, 5.614361763000488, 
16, 2505122197, 0.6514667, 0.4476465, -0.4393557, 0.42681408, 9.400762557983398, 2.390101194381714, 2.202003240585327, 2.6747536659240723, 1.4153770208358765, 4.914302349090576, 
17, 2505138864, 0.6514647, 0.44767958, -0.43908507, 0.42706108, 9.3829345703125, 2.3785483837127686, 2.1455533504486084, 2.297734498977661, 1.4339590072631836, 4.213141918182373, 
18, 2505155531, 0.65155405, 0.44765306, -0.43890962, 0.42713273, 9.405517578125, 2.405731678009033, 2.146474838256836, 1.7445064783096313, 1.148242712020874, 3.6417927742004395, 
19, 2505172198, 0.65161705, 0.44766837, -0.43869305, 0.42724305, 9.399797439575195, 2.3752007484436035, 2.1761012077331543, 0.805826723575592, 0.9920181632041931, 3.1865780353546143, 
20, 2505188865, 0.65176535, 0.44762498, -0.43850088, 0.42725965, 9.398712158203125, 2.3269495964050293, 2.157959222793579, 0.8043797016143799, 1.2228657007217407, 2.7878530025482178, 
21, 2505205532, 0.65187776, 0.4476786, -0.43825412, 0.42728546, 9.384588241577148, 2.307218551635742, 2.1349241733551025, 1.6539850234985352, 1.1603771448135376, 2.2770652770996094, 
22, 2505222199, 0.65195817, 0.44781306, -0.4379887, 0.42729402, 9.402608871459961, 2.324439287185669, 2.144467830657959, 2.1606619358062744, 0.9243495464324951, 1.7856791019439697, 
23, 2505238866, 0.65203583, 0.447971, -0.43764848, 0.42735818, 9.398515701293945, 2.3453476428985596, 2.1485157012939453, 1.594224214553833, 1.1622275114059448, 1.3242663145065308, 
24, 2505255533, 0.6522888, 0.44796115, -0.4374814, 0.4271536, 9.38061809539795, 2.3311402797698975, 2.1681859493255615, 0.8872495889663696, 1.0329346656799316, 0.9318028092384338, 
25, 2505272200, 0.6525087, 0.44798398, -0.43726614, 0.4270142, 9.375358581542969, 2.2947611808776855, 2.1746721267700195, 0.11083894968032837, 0.9622691869735718, 0.6264354586601257, 
26, 2505288867, 0.65277493, 0.44793516, -0.43714476, 0.4267827, 9.367715835571289, 2.267354726791382, 2.1741080284118652, -0.2277737408876419, 0.7625476121902466, 0.5777136087417603, 
27, 2505305534, 0.65304786, 0.4478815, -0.43703264, 0.4265364, 9.402726173400879, 2.2122254371643066, 2.1893115043640137, -0.045027121901512146, 0.7816227078437805, 0.4419471025466919, 
28, 2505322201, 0.6531948, 0.44794452, -0.43680516, 0.42647815, 9.380400657653809, 2.184960126876831, 2.183494806289673, 0.6181753277778625, 0.9022201895713806, 0.5010612607002258, 
29, 2505338868, 0.6533053, 0.4480257, -0.4365631, 0.4264716, 9.380256652832031, 2.2288825511932373, 2.182238817214966, 1.2014918327331543, 1.0116760730743408, 0.6060348749160767, 
30, 2505355535, 0.6534851, 0.44797, -0.4364322, 0.4263884, 9.393033027648926, 2.255558729171753, 2.2127034664154053, 0.7533976435661316, 1.1027036905288696, 0.897737979888916, 
31, 2505372202, 0.6536484, 0.447872, -0.43629718, 0.42637944, 9.399202346801758, 2.229081869125366, 2.2186458110809326, 0.05400438234210014, 1.2405766248703003, 1.109606146812439, 
32, 2505388869, 0.65385056, 0.44769925, -0.4361873, 0.42636308, 9.423095703125, 2.209033250808716, 2.220229148864746, -0.12805065512657166, 1.5184166431427002, 1.2433747053146362, 
33, 2505405536, 0.65394324, 0.4476098, -0.43600914, 0.42649695, 9.429970741271973, 2.1961348056793213, 2.2140262126922607, 0.3985207974910736, 1.528015375137329, 1.4820148944854736, 
34, 2505422203, 0.654011, 0.44754097, -0.43579227, 0.42668685, 9.471745491027832, 2.212747573852539, 2.256895065307617, 0.6013733744621277, 1.6898362636566162, 1.4702074527740479, 
35, 2505438870, 0.65412635, 0.44740808, -0.43562436, 0.42682114, 9.474549293518066, 2.209691286087036, 2.234503746032715, 0.6759575605392456, 1.8073984384536743, 1.5254924297332764, 
36, 2505455537, 0.65422916, 0.44726905, -0.4354416, 0.4269957, 9.475981712341309, 2.225287675857544, 2.2572414875030518, 0.45734038949012756, 1.8961467742919922, 1.5494660139083862, 
37, 2505472204, 0.6543317, 0.44714576, -0.43516886, 0.42724568, 9.467918395996094, 2.251552104949951, 2.241741180419922, -0.10252122581005096, 2.2357325553894043, 1.2447386980056763, 
38, 2505488871, 0.65464455, 0.4468373, -0.43501085, 0.42725012, 9.451711654663086, 2.2181875705718994, 2.263603925704956, -0.756861686706543, 2.5727059841156006, 0.8254589438438416, 
39, 2505505538, 0.65499675, 0.44654277, -0.43478054, 0.42725268, 9.423749923706055, 2.1779661178588867, 2.271822452545166, -1.056331753730774, 2.868814706802368, 0.28259772062301636, 
40, 2505522205, 0.6553742, 0.44628528, -0.43446818, 0.4272604, 9.399653434753418, 2.130415201187134, 2.261800527572632, -0.8757238388061523, 3.182755470275879, -0.22589118778705597, 
41, 2505538872, 0.65573704, 0.4460785, -0.43414935, 0.4272441, 9.363153457641602, 2.164684534072876, 2.275306224822998, -0.9716178774833679, 2.876837968826294, -0.6024747490882874, 
42, 2505555539, 0.6562314, 0.44570386, -0.4339667, 0.42706117, 9.360077857971191, 2.1642110347747803, 2.341649055480957, -2.740360736846924, 2.704291820526123, -0.7986360788345337, 
43, 2505572206, 0.65681523, 0.4451389, -0.43392894, 0.4267912, 9.33260726928711, 2.0367398262023926, 2.299898862838745, -3.9381000995635986, 2.732901096343994, -0.3377739191055298, 
44, 2505588873, 0.6572897, 0.4446208, -0.4339729, 0.42655644, 9.325166702270508, 2.017832040786743, 2.274974822998047, -3.927950859069824, 1.9141652584075928, 0.08467558771371841, 
45, 2505605540, 0.6576894, 0.44403693, -0.43416825, 0.42634964, 9.351407051086426, 2.095205783843994, 2.324338912963867, -5.554409027099609, 1.0207622051239014, 0.731927752494812, 
46, 2505622207, 0.6582243, 0.4432221, -0.43458912, 0.4259431, 9.36851692199707, 2.0502610206604004, 2.351205348968506, -7.832826137542725, 0.5673982501029968, 0.8725478649139404, 
47, 2505638874, 0.6588017, 0.4423263, -0.43510714, 0.4254522, 9.390859603881836, 1.9813215732574463, 2.283694267272949, -8.523971557617188, 0.3041316866874695, 0.9346525073051453, 
48, 2505655541, 0.65933084, 0.4414886, -0.43561184, 0.42498592, 9.406964302062988, 1.9660574197769165, 2.258201837539673, -8.221845626831055, 0.08715363591909409, 0.860388457775116, 
49, 2505672208, 0.65993786, 0.4406245, -0.4361148, 0.4244244, 9.402470588684082, 2.0233540534973145, 2.291710376739502, -7.952923774719238, 0.33580178022384644, 0.43791961669921875, 
50, 2505688875, 0.6605302, 0.439821, -0.43647802, 0.42396307, 9.357842445373535, 2.0698728561401367, 2.3056836128234863, -8.383216857910156, 0.737658679485321, -0.0631481185555458, 
51, 2505705542, 0.6612409, 0.43894216, -0.4368346, 0.4233981, 9.3721342086792, 2.093921422958374, 2.2534117698669434, -8.961822509765625, 1.130557656288147, -0.5960333347320557, 
52, 2505722209, 0.66184705, 0.43821812, -0.43701515, 0.42301446, 9.390535354614258, 2.102911949157715, 2.273542881011963, -8.985121726989746, 1.2662663459777832, -0.9930749535560608, 
53, 2505738876, 0.662651, 0.43735045, -0.43728414, 0.42237535, 9.39948558807373, 2.081897020339966, 2.2491157054901123, -8.58865737915039, 1.7156351804733276, -1.3875809907913208, 
54, 2505755543, 0.66328883, 0.4367071, -0.43731186, 0.4220108, 9.378124237060547, 2.075350522994995, 2.2423107624053955, -7.682555675506592, 2.0378811359405518, -1.601818561553955, 
55, 2505772210, 0.66393936, 0.43608728, -0.4373229, 0.42161715, 9.382646560668945, 2.1330718994140625, 2.2194888591766357, -7.123027801513672, 2.137021541595459, -1.774954080581665, 
56, 2505788877, 0.6647437, 0.4353111, -0.43748993, 0.42097846, 9.411782264709473, 2.186826229095459, 2.235881805419922, -7.570411205291748, 2.0583391189575195, -1.9243720769882202, 
57, 2505805544, 0.6655123, 0.43454748, -0.4376288, 0.42040846, 9.4736967086792, 2.147658348083496, 2.23319149017334, -8.37614917755127, 1.9938658475875854, -1.9393556118011475, 
58, 2505822211, 0.6662487, 0.43382996, -0.4377292, 0.419878, 9.536019325256348, 2.0668118000030518, 2.209493398666382, -8.064212799072266, 2.035057544708252, -1.9808868169784546, 
59, 2505838878, 0.66693103, 0.43320784, -0.43776965, 0.41939488, 9.573806762695312, 2.0211408138275146, 2.209306001663208, -6.71899938583374, 2.141746997833252, -1.9806368350982666, 
60, 2505855545, 0.6675059, 0.43272704, -0.43773898, 0.4190081, 9.583489418029785, 2.012162208557129, 2.181140899658203, -5.07415771484375, 2.0979108810424805, -1.844459891319275, 
61, 2505872212, 0.6679734, 0.43234468, -0.43764913, 0.4187518, 9.560855865478516, 2.0417120456695557, 2.21106219291687, -4.466355800628662, 2.025362730026245, -1.6219627857208252, 
62, 2505888879, 0.668493, 0.43183723, -0.43769348, 0.4183998, 9.518023490905762, 2.0225751399993896, 2.2417240142822266, -4.894241809844971, 1.889096975326538, -1.2026957273483276, 
63, 2505905546, 0.6689083, 0.43135363, -0.43775377, 0.41817144, 9.452301025390625, 1.997338056564331, 2.2390434741973877, -5.673930644989014, 1.4850691556930542, -0.7749379277229309, 
64, 2505922213, 0.66934806, 0.43074223, -0.43802932, 0.41780952, 9.434741973876953, 1.928511619567871, 2.2458784580230713, -6.248974800109863, 0.8078182935714722, -0.16773760318756104, 
65, 2505938880, 0.6697221, 0.4301292, -0.43840745, 0.41744468, 9.417506217956543, 1.893614649772644, 2.254819393157959, -5.952904224395752, 0.2445693016052246, 0.39769482612609863, 
66, 2505955547, 0.66996706, 0.42955545, -0.43880317, 0.41722676, 9.410603523254395, 1.8694171905517578, 2.262115955352783, -5.412578582763672, 0.020906368270516396, 1.241044282913208, 
67, 2505972214, 0.6700431, 0.42906865, -0.43919656, 0.41719183, 9.3880033493042, 1.900896668434143, 2.2460832595825195, -4.7660627365112305, -0.35204657912254333, 2.05804443359375, 
68, 2505988881, 0.67013675, 0.4284698, -0.4397005, 0.4171256, 9.361026763916016, 1.959713101387024, 2.309296131134033, -5.336483955383301, -0.4726056158542633, 2.617919445037842, 
69, 2506005548, 0.6702837, 0.42772993, -0.4403029, 0.41701365, 9.320371627807617, 1.9297316074371338, 2.335350513458252, -5.838505744934082, -0.3285341262817383, 3.1460533142089844, 
70, 2506022215, 0.6702462, 0.42719203, -0.44074544, 0.41715783, 9.309837341308594, 1.9543465375900269, 2.274557590484619, -4.8428239822387695, -0.3450671434402466, 3.3130991458892822, 
71, 2506038882, 0.67019534, 0.42668965, -0.44120434, 0.41726878, 9.378579139709473, 2.039872407913208, 2.287987470626831, -3.9070897102355957, -0.45928695797920227, 3.3650035858154297, 
72, 2506055549, 0.670163, 0.42615664, -0.44164383, 0.41740036, 9.434042930603027, 2.1034038066864014, 2.328826904296875, -3.9665238857269287, -0.15058989822864532, 3.4515867233276367, 
73, 2506072216, 0.6701863, 0.42559928, -0.44203746, 0.41751477, 9.406206130981445, 2.0940797328948975, 2.313406467437744, -3.437967538833618, 0.41239655017852783, 3.350161075592041, 
74, 2506088883, 0.6701108, 0.42521408, -0.44230694, 0.41774306, 9.361980438232422, 2.113159418106079, 2.256072998046875, -2.1291587352752686, 0.4293457567691803, 3.1594808101654053, 
75, 2506105550, 0.6700711, 0.42485052, -0.44254932, 0.4179196, 9.29870319366455, 2.18349552154541, 2.2636735439300537, -1.6027017831802368, 0.5925561785697937, 2.8474466800689697, 
76, 2506122217, 0.6700358, 0.42449695, -0.44278014, 0.41809097, 9.25446891784668, 2.240424394607544, 2.2849156856536865, -2.2967419624328613, 0.46958959102630615, 2.575516939163208, 
77, 2506138884, 0.67006564, 0.42407313, -0.44307235, 0.41816363, 9.263176918029785, 2.2467586994171143, 2.2785634994506836, -3.5302109718322754, 0.2568762004375458, 2.293034553527832, 
78, 2506155551, 0.6700931, 0.4236335, -0.44342157, 0.41819525, 9.289365768432617, 2.2054381370544434, 2.286571979522705, -4.175203800201416, -0.13948677480220795, 2.280574321746826, 
79, 2506172218, 0.6701318, 0.4232172, -0.4437959, 0.41815773, 9.322739601135254, 2.189791202545166, 2.2851648330688477, -3.667034149169922, -0.33142831921577454, 2.143571615219116, 
80, 2506188885, 0.6701159, 0.42287633, -0.4441212, 0.41818288, 9.354423522949219, 2.2076070308685303, 2.2718632221221924, -3.0988292694091797, -0.35544025897979736, 2.173743486404419, 
81, 2506205552, 0.67007464, 0.42258355, -0.44444358, 0.41820225, 9.363835334777832, 2.247588872909546, 2.245845079421997, -3.11086106300354, -0.6231378316879272, 2.008458375930786, 
82, 2506222219, 0.6700726, 0.42225564, -0.4448143, 0.41814253, 9.396166801452637, 2.2516326904296875, 2.2593092918395996, -3.8482635021209717, -0.8581343293190002, 1.7886117696762085, 
83, 2506238886, 0.6700689, 0.42195243, -0.44516265, 0.41808397, 9.419889450073242, 2.2048981189727783, 2.287217378616333, -4.238966464996338, -0.9324432611465454, 1.5348604917526245, 
84, 2506255553, 0.6701577, 0.4216118, -0.44552666, 0.4178978, 9.440826416015625, 2.1409311294555664, 2.296725034713745, -3.93375825881958, -0.7356927394866943, 1.1743934154510498, 
85, 2506272220, 0.6702097, 0.42140433, -0.4457154, 0.41782194, 9.497408866882324, 2.1083920001983643, 2.277930498123169, -2.6292459964752197, -0.14681197702884674, 0.8212583661079407, 
86, 2506288887, 0.670265, 0.42126936, -0.44574612, 0.41783652, 9.564017295837402, 2.0836706161499023, 2.2491419315338135, -1.323683500289917, 0.7082424163818359, 0.6243351697921753, 
87, 2506305554, 0.670278, 0.42125395, -0.4455416, 0.41804937, 9.544893264770508, 2.026977062225342, 2.250253915786743, 0.5694279074668884, 1.895256519317627, 0.6032494902610779, 
88, 2506322221, 0.67022526, 0.42137906, -0.44509566, 0.41848287, 9.515535354614258, 2.0065455436706543, 2.275510549545288, 2.258291006088257, 2.9502692222595215, 0.5471577048301697, 
89, 2506338888, 0.67017, 0.42158067, -0.44452253, 0.4189771, 9.489155769348145, 1.971436858177185, 2.258329153060913, 4.0735015869140625, 3.6756467819213867, 0.4721252918243408, 
90, 2506355555, 0.6699838, 0.4219869, -0.44373608, 0.41969886, 9.479031562805176, 2.0110023021698, 2.2598443031311035, 5.5193071365356445, 4.105485916137695, 0.3352190852165222, 
91, 2506372222, 0.6698003, 0.42242005, -0.44295466, 0.42038107, 9.431174278259277, 2.00992751121521, 2.2368171215057373, 6.241228103637695, 4.060523509979248, 0.275759220123291, 
92, 2506388889, 0.66957605, 0.42291975, -0.44213596, 0.421097, 9.354264259338379, 2.0235841274261475, 2.271904945373535, 6.49310827255249, 3.949613332748413, 0.13851991295814514, 
93, 2506405556, 0.66930044, 0.42342067, -0.44139907, 0.42180455, 9.334537506103516, 2.082158088684082, 2.2958450317382812, 6.201610565185547, 3.361494541168213, 0.43752261996269226, 
94, 2506422223, 0.6690733, 0.42376906, -0.44087046, 0.42236713, 9.352568626403809, 2.123375654220581, 2.3012959957122803, 4.855175495147705, 2.6875088214874268, 0.8521025776863098, 
95, 2506438890, 0.6688165, 0.42406896, -0.44043377, 0.42292812, 9.316754341125488, 2.0854055881500244, 2.3565616607666016, 4.1733527183532715, 2.266141414642334, 1.2836765050888062, 
96, 2506455557, 0.6684493, 0.424439, -0.44001424, 0.42357358, 9.272687911987305, 2.0931434631347656, 2.361260414123535, 4.495637893676758, 1.78983473777771, 1.6967453956604004, 
97, 2506472224, 0.66807586, 0.4247781, -0.4397386, 0.42410874, 9.304115295410156, 2.1698639392852783, 2.391470193862915, 4.305200099945068, 1.0194493532180786, 1.9172002077102661, 
98, 2506488891, 0.66773695, 0.42500585, -0.43958834, 0.4245699, 9.295662879943848, 2.239121437072754, 2.473926067352295, 2.6080641746520996, 0.5579469799995422, 2.06201434135437, 
99, 2506505558, 0.66750354, 0.4250287, -0.4395983, 0.42490363, 9.31532096862793, 2.2063612937927246, 2.5029051303863525, 0.5656949281692505, 0.37265196442604065, 2.293527603149414, 
100, 2506522225, 0.66732246, 0.42498055, -0.4396673, 0.42516467, 9.376561164855957, 2.1301591396331787, 2.472414255142212, 0.1490403115749359, 0.3406873345375061, 2.3348922729492188, 
101, 2506538892, 0.6671225, 0.42500696, -0.4396645, 0.42545506, 9.38244342803955, 2.120757818222046, 2.454824209213257, 0.6847363710403442, 0.44697365164756775, 2.0558483600616455, 
102, 2506555559, 0.66696274, 0.42498162, -0.43966028, 0.42573518, 9.348374366760254, 2.1678550243377686, 2.476411819458008, 0.01737181283533573, 0.6345482468605042, 1.9781391620635986, 
103, 2506572226, 0.66693527, 0.4247877, -0.4397454, 0.42588374, 9.376893043518066, 2.1493847370147705, 2.4414749145507812, -1.4129247665405273, 0.8075748682022095, 1.8791718482971191, 
104, 2506588893, 0.6669416, 0.42455474, -0.439831, 0.4260174, 9.41093635559082, 2.099113702774048, 2.398284435272217, -1.8987842798233032, 0.9456783533096313, 1.7990679740905762, 
105, 2506605560, 0.66692454, 0.42438293, -0.43985057, 0.4261954, 9.42669677734375, 2.053652048110962, 2.3570520877838135, -1.2878707647323608, 1.1194158792495728, 1.6861608028411865, 
106, 2506622227, 0.666821, 0.4243586, -0.43971986, 0.426516, 9.434245109558105, 2.0609827041625977, 2.323183059692383, -0.1445196568965912, 1.4058681726455688, 1.5383882522583008, 
107, 2506638894, 0.6667312, 0.42435125, -0.43958768, 0.42680013, 9.437846183776855, 2.1450393199920654, 2.3024544715881348, 0.4098415970802307, 1.4329408407211304, 1.449524998664856, 
108, 2506655561, 0.6666977, 0.42424384, -0.43955442, 0.4269934, 9.424802780151367, 2.1705901622772217, 2.3162076473236084, -0.5856343507766724, 1.22671377658844, 1.5247303247451782, 
109, 2506672228, 0.6666722, 0.4241093, -0.43954113, 0.42718068, 9.389455795288086, 2.13364577293396, 2.303889036178589, -1.1481084823608398, 1.1657238006591797, 1.5379146337509155, 
110, 2506688895, 0.6666081, 0.42401487, -0.43954387, 0.42737153, 9.39051342010498, 2.0734455585479736, 2.3130314350128174, -0.5590611696243286, 0.9447372555732727, 1.696341872215271, 
111, 2506705562, 0.66647536, 0.42400676, -0.4395491, 0.427581, 9.43418025970459, 2.0890004634857178, 2.3294782638549805, 0.48917046189308167, 0.6144421696662903, 1.8486922979354858, 
112, 2506722229, 0.66627413, 0.4240567, -0.43952096, 0.42787394, 9.4224853515625, 2.1407363414764404, 2.351935386657715, 0.7939040660858154, 0.5447436571121216, 2.0287435054779053, 
113, 2506738896, 0.6661302, 0.42399785, -0.43958062, 0.428095, 9.405251502990723, 2.2029857635498047, 2.429555892944336, 0.2111383080482483, 0.5428739786148071, 2.282949447631836, 
114, 2506755563, 0.6660135, 0.42384294, -0.4397185, 0.42828846, 9.403304100036621, 2.193382978439331, 2.4628896713256836, -1.1236867904663086, 0.3715762794017792, 2.477029800415039, 
115, 2506772230, 0.6659424, 0.42362416, -0.4398689, 0.42846122, 9.361702919006348, 2.147268533706665, 2.460083484649658, -2.0874030590057373, 0.4974114000797272, 2.37548828125, 
116, 2506788897, 0.6658601, 0.4234366, -0.4400151, 0.42862424, 9.336760520935059, 2.1103157997131348, 2.4960575103759766, -1.8259934186935425, 0.38022691011428833, 2.3019351959228516, 
117, 2506805564, 0.6658036, 0.42324832, -0.44014457, 0.42876476, 9.342551231384277, 2.1211888790130615, 2.5068020820617676, -1.7591058015823364, 0.49906980991363525, 2.133531332015991, 
118, 2506822231, 0.6658031, 0.423035, -0.4402576, 0.42885995, 9.339177131652832, 2.1180741786956787, 2.4766390323638916, -1.9691108465194702, 0.7114695310592651, 1.8467909097671509, 
119, 2506838898, 0.665846, 0.42275107, -0.44038954, 0.428938, 9.323214530944824, 2.16031813621521, 2.445937395095825, -2.614173173904419, 0.896950364112854, 1.8989063501358032, 
120, 2506855565, 0.66594714, 0.4223697, -0.44058704, 0.42895374, 9.339190483093262, 2.147723913192749, 2.4186346530914307, -4.063070774078369, 0.792386531829834, 1.8234001398086548, 
121, 2506872232, 0.6661741, 0.4218437, -0.4408301, 0.42886922, 9.31592845916748, 2.059954881668091, 2.3827314376831055, -4.844841003417969, 1.232675313949585, 1.767737627029419, 
122, 2506888899, 0.66631246, 0.42146558, -0.4409724, 0.42888, 9.339021682739258, 2.0093741416931152, 2.298403263092041, -3.245161294937134, 1.2889080047607422, 1.7560067176818848, 
123, 2506905566, 0.6663243, 0.42131302, -0.4409789, 0.42900452, 9.391424179077148, 2.0898277759552, 2.3028223514556885, -1.521317481994629, 1.1199026107788086, 1.467863917350769, 
124, 2506922233, 0.6663498, 0.42114928, -0.4409801, 0.42912433, 9.399914741516113, 2.1579713821411133, 2.353238582611084, -1.919870138168335, 1.160293698310852, 1.3533493280410767, 
125, 2506938900, 0.66646403, 0.42087564, -0.44102433, 0.42916992, 9.352922439575195, 2.1283891201019287, 2.361600875854492, -3.002775192260742, 1.3554879426956177, 1.2359408140182495, 
126, 2506955567, 0.6665791, 0.4206045, -0.44109264, 0.42918718, 9.408047676086426, 2.050649642944336, 2.340474843978882, -2.918163537979126, 1.208573579788208, 1.2460194826126099, 
127, 2506972234, 0.66665673, 0.42040867, -0.4410987, 0.42925194, 9.414899826049805, 2.03096079826355, 2.35052227973938, -2.3556578159332275, 1.2659332752227783, 1.1170083284378052, 
128, 2506988901, 0.6667576, 0.42020202, -0.44109103, 0.42930558, 9.354191780090332, 2.0186684131622314, 2.3591856956481934, -1.7980691194534302, 1.5323821306228638, 1.1831787824630737, 
129, 2507005568, 0.66682184, 0.4200171, -0.44106233, 0.42941627, 9.32071304321289, 2.0437910556793213, 2.4031178951263428, -1.7294269800186157, 1.5577770471572876, 1.3329359292984009, 
130, 2507022235, 0.66689, 0.4197875, -0.4410815, 0.42951533, 9.330028533935547, 2.069009780883789, 2.438148260116577, -2.194073438644409, 1.43919038772583, 1.5341111421585083, 
131, 2507038902, 0.66694224, 0.4195507, -0.44110444, 0.42964235, 9.389426231384277, 1.9986636638641357, 2.416516065597534, -2.1198418140411377, 1.476341724395752, 1.7516525983810425, 
132, 2507055569, 0.66691905, 0.41942096, -0.44101474, 0.42989644, 9.42044448852539, 1.9469702243804932, 2.3800458908081055, -0.5801469087600708, 1.8409512042999268, 1.9458478689193726, 
133, 2507072236, 0.66680443, 0.4194468, -0.44078416, 0.4302853, 9.387121200561523, 1.9887568950653076, 2.360183000564575, 1.0962492227554321, 2.1247143745422363, 1.9251275062561035, 
134, 2507088903, 0.66671604, 0.41944614, -0.44056508, 0.43064737, 9.399168014526367, 2.0606796741485596, 2.365412473678589, 1.1268306970596313, 2.224872589111328, 1.9409173727035522, 
135, 2507105570, 0.66665757, 0.41941282, -0.44032848, 0.43101245, 9.517766952514648, 2.014740228652954, 2.322161912918091, 0.5122796297073364, 2.4322714805603027, 1.8035439252853394, 
136, 2507122237, 0.6665466, 0.41949368, -0.44000104, 0.43143937, 9.619596481323242, 1.9312537908554077, 2.2286643981933594, 1.9533846378326416, 2.601475954055786, 1.7286971807479858, 
137, 2507138904, 0.6663133, 0.41980484, -0.43954843, 0.43195805, 9.60632610321045, 1.9699786901474, 2.239100217819214, 3.7700552940368652, 2.364020824432373, 1.3886374235153198, 
138, 2507155571, 0.6660639, 0.42014825, -0.4391829, 0.43238053, 9.581376075744629, 2.0513031482696533, 2.280636787414551, 3.546142816543579, 1.5920344591140747, 1.1890441179275513, 
139, 2507172238, 0.6658578, 0.42037448, -0.4389672, 0.43269718, 9.471745491027832, 2.022873640060425, 2.3213181495666504, 1.596350073814392, 0.99843430519104, 1.2271429300308228, 
140, 2507188905, 0.6657454, 0.42047963, -0.43890798, 0.4328279, 9.360177993774414, 1.9047857522964478, 2.350951671600342, 0.5067216157913208, 0.5425922274589539, 1.136781096458435, 
141, 2507205572, 0.66554165, 0.42070693, -0.4387335, 0.43309718, 9.32080364227295, 1.8012264966964722, 2.4205708503723145, 1.5591603517532349, 0.7454063892364502, 1.193539023399353, 
142, 2507222239, 0.66521114, 0.42116532, -0.43832198, 0.43357578, 9.28194808959961, 1.8286603689193726, 2.478398323059082, 4.389671802520752, 1.3790006637573242, 1.1620227098464966, 
143, 2507238906, 0.66486377, 0.42173773, -0.43768752, 0.43419263, 9.264649391174316, 1.915283441543579, 2.5757856369018555, 6.135509967803955, 2.4291088581085205, 0.8763001561164856, 
144, 2507255573, 0.6645849, 0.4222398, -0.4369564, 0.43486735, 9.211390495300293, 2.006455898284912, 2.5387680530548096, 6.277660369873047, 3.484351873397827, 0.9261680841445923, 
145, 2507272240, 0.6643487, 0.42268813, -0.43614054, 0.43561125, 9.127676963806152, 2.065213441848755, 2.477083206176758, 6.076755523681641, 4.3044328689575195, 0.9574413895606995, 
146, 2507288907, 0.6641356, 0.4230901, -0.43535602, 0.43633023, 9.126794815063477, 2.152205467224121, 2.3858957290649414, 5.6291279792785645, 4.295153617858887, 1.0156012773513794, 
147, 2507305574, 0.66399676, 0.4233871, -0.43460962, 0.43699667, 9.171394348144531, 2.1148974895477295, 2.383413553237915, 4.7871294021606445, 4.533512592315674, 1.0329346656799316, 
148, 2507322241, 0.66373754, 0.42383432, -0.43375364, 0.43780708, 9.178216934204102, 2.0246307849884033, 2.313786745071411, 6.5543928146362305, 4.645068645477295, 1.2910594940185547, 
149, 2507338908, 0.66324914, 0.42458722, -0.43277174, 0.4387882, 9.242695808410645, 2.116046667098999, 2.244260311126709, 9.497065544128418, 4.123095989227295, 1.48744535446167, 
150, 2507355575, 0.6626812, 0.42543232, -0.4318077, 0.43977642, 9.329590797424316, 2.2341997623443604, 2.3235154151916504, 10.205192565917969, 3.583986520767212, 1.5750536918640137, 
151, 2507372242, 0.66221184, 0.42613196, -0.430988, 0.44060943, 9.380291938781738, 2.3011462688446045, 2.400491237640381, 8.749768257141113, 3.2934160232543945, 1.5566825866699219, 
152, 2507388909, 0.6617437, 0.42678085, -0.4302067, 0.44144753, 9.499044418334961, 2.222939968109131, 2.4268076419830322, 7.683541774749756, 3.163156032562256, 1.6530823707580566, 
153, 2507405576, 0.6612601, 0.42751133, -0.429374, 0.44227496, 9.549153327941895, 2.17568039894104, 2.474213123321533, 8.336731910705566, 3.103747844696045, 1.307784914970398, 
154, 2507422243, 0.6607404, 0.42831492, -0.42848477, 0.44313586, 9.504988670349121, 2.174194574356079, 2.525189161300659, 8.975831031799316, 3.1276824474334717, 1.1762763261795044, 
155, 2507438910, 0.6602614, 0.4291027, -0.42760077, 0.4439408, 9.390957832336426, 2.2218315601348877, 2.6086127758026123, 8.572904586791992, 3.106205940246582, 0.861713707447052, 
156, 2507455577, 0.6598574, 0.4297748, -0.42682806, 0.44463474, 9.33452320098877, 2.2029147148132324, 2.632598876953125, 7.501025676727295, 2.911280870437622, 0.91214519739151, 
157, 2507472244, 0.65943307, 0.43040985, -0.4261026, 0.4453451, 9.3185453414917, 2.1936910152435303, 2.645517349243164, 6.786495685577393, 2.694444179534912, 1.162509560585022, 
158, 2507488911, 0.6590423, 0.43095624, -0.42547908, 0.44599065, 9.333949089050293, 2.1785900592803955, 2.670289993286133, 6.180767059326172, 2.4827799797058105, 1.4539177417755127, 
159, 2507505578, 0.65866065, 0.43141425, -0.4249267, 0.4466375, 9.367890357971191, 2.2098734378814697, 2.660365104675293, 5.2058587074279785, 2.3898956775665283, 1.8174774646759033, 
160, 2507522245, 0.6583805, 0.43168765, -0.4245089, 0.44718358, 9.380565643310547, 2.233768939971924, 2.6495883464813232, 3.7086803913116455, 2.408144474029541, 2.100036382675171, 
161, 2507538912, 0.65817904, 0.43178573, -0.42423385, 0.4476463, 9.331360816955566, 2.246933937072754, 2.592447519302368, 1.8064382076263428, 2.240816593170166, 2.3741564750671387, 
162, 2507555579, 0.65805185, 0.4317811, -0.42407185, 0.44799113, 9.320618629455566, 2.219367504119873, 2.5341577529907227, 0.504531741142273, 1.925114631652832, 2.284473419189453, 
163, 2507572246, 0.65794194, 0.43179747, -0.42390916, 0.44829077, 9.33313274383545, 2.190237045288086, 2.484060049057007, 0.5370215177536011, 1.804926872253418, 2.0106098651885986, 
164, 2507588913, 0.6578213, 0.43188477, -0.4237198, 0.44856247, 9.378479957580566, 2.225740671157837, 2.4267640113830566, 1.089794635772705, 1.6366771459579468, 1.7036157846450806, 
165, 2507605580, 0.65768796, 0.4319877, -0.42355302, 0.4488162, 9.36984634399414, 2.2553420066833496, 2.452925682067871, 0.8821654915809631, 1.3671674728393555, 1.6407880783081055, 
166, 2507622247, 0.6575726, 0.4320509, -0.42343345, 0.44903728, 9.365033149719238, 2.256664276123047, 2.4409754276275635, 0.26115989685058594, 1.2098671197891235, 1.6649023294448853, 
167, 2507638914, 0.6574249, 0.43213558, -0.42336002, 0.44924116, 9.338919639587402, 2.2488346099853516, 2.4372458457946777, 0.24228332936763763, 0.7946595549583435, 1.774101972579956, 
168, 2507655581, 0.6572759, 0.43217078, -0.42340744, 0.44938073, 9.317626953125, 2.221961498260498, 2.4496710300445557, -0.1334613710641861, 0.2937905192375183, 2.1210646629333496, 
169, 2507672248, 0.65704006, 0.4322835, -0.42344505, 0.44958183, 9.328213691711426, 2.204672336578369, 2.491816759109497, -0.03660695254802704, -0.10688820481300354, 2.217867612838745, 
170, 2507688915, 0.6567989, 0.43239343, -0.4235467, 0.44973257, 9.314397811889648, 2.2159736156463623, 2.5507450103759766, 0.06593990325927734, -0.46207234263420105, 2.3488383293151855, 
171, 2507705582, 0.6566169, 0.4324273, -0.42374182, 0.44978207, 9.281000137329102, 2.2582130432128906, 2.609748601913452, -0.8251322507858276, -0.7343993186950684, 2.2808620929718018, 
172, 2507722249, 0.6564615, 0.4323469, -0.42407793, 0.44976935, 9.249539375305176, 2.3212854862213135, 2.658125638961792, -2.616215705871582, -1.2460131645202637, 2.5225820541381836, 
173, 2507738916, 0.6564831, 0.432013, -0.42464834, 0.44952062, 9.303854942321777, 2.3030459880828857, 2.7024829387664795, -5.341163158416748, -1.6417289972305298, 2.4671943187713623, 
174, 2507755583, 0.65659046, 0.4315494, -0.42524326, 0.44924626, 9.283710479736328, 2.1753506660461426, 2.687598466873169, -6.549456596374512, -1.2303894758224487, 2.496060371398926, 
175, 2507772250, 0.6566559, 0.43118072, -0.42574397, 0.4490306, 9.294620513916016, 2.1480343341827393, 2.5776097774505615, -5.265530109405518, -1.0046005249023438, 2.4241394996643066, 
176, 2507788917, 0.6567202, 0.43084136, -0.42621884, 0.44881153, 9.338900566101074, 2.220398187637329, 2.535426616668701, -4.967474937438965, -0.9787830710411072, 2.2849857807159424, 
177, 2507805584, 0.65686864, 0.43036777, -0.42674482, 0.44854918, 9.331595420837402, 2.2324020862579346, 2.5594773292541504, -6.351482391357422, -0.725281298160553, 2.321317672729492, 
178, 2507822251, 0.6570843, 0.42982933, -0.42724302, 0.44827527, 9.354265213012695, 2.1477012634277344, 2.5265626907348633, -6.927896499633789, -0.26503387093544006, 2.1469461917877197, 
179, 2507838918, 0.6572718, 0.42939103, -0.42764458, 0.44803745, 9.354083061218262, 2.115757703781128, 2.420334577560425, -5.820761680603027, -0.08241526782512665, 1.877500295639038, 
180, 2507855585, 0.65742123, 0.42909655, -0.42794526, 0.44781277, 9.364638328552246, 2.1536874771118164, 2.3606908321380615, -4.664758205413818, -0.12823638319969177, 1.353836178779602, 
181, 2507872252, 0.6575493, 0.42885214, -0.42818916, 0.44762588, 9.36005687713623, 2.1845672130584717, 2.3913893699645996, -4.611368656158447, -0.066343292593956, 1.1414172649383545, 
182, 2507888919, 0.6577734, 0.42848575, -0.42852315, 0.4473279, 9.335596084594727, 2.1719040870666504, 2.375170946121216, -5.509400367736816, -0.03234243765473366, 1.1327600479125977, 
183, 2507905586, 0.65800035, 0.42810288, -0.4289059, 0.44699374, 9.325765609741211, 2.0867602825164795, 2.349796772003174, -5.84975528717041, -0.2958459258079529, 1.170641541481018, 
184, 2507922253, 0.6581619, 0.42779484, -0.42924738, 0.4467228, 9.33126449584961, 2.0383129119873047, 2.3605644702911377, -5.219478607177734, -0.3753349483013153, 1.2605804204940796, 
185, 2507938920, 0.6582324, 0.42758733, -0.42958593, 0.44649217, 9.346936225891113, 2.05163836479187, 2.399118423461914, -4.108526706695557, -0.7648400068283081, 1.4978049993515015, 
186, 2507955587, 0.65825707, 0.4274157, -0.429922, 0.4462966, 9.363103866577148, 2.0479185581207275, 2.391998767852783, -3.7835781574249268, -0.9063116908073425, 1.666080355644226, 
187, 2507972254, 0.6582692, 0.42722222, -0.4303053, 0.44609454, 9.334169387817383, 2.073479413986206, 2.4503324031829834, -4.23004674911499, -1.1426019668579102, 1.8227791786193848, 
188, 2507988921, 0.65833867, 0.426923, -0.43078622, 0.44581422, 9.350345611572266, 2.0663602352142334, 2.4921441078186035, -5.119210720062256, -1.2643837928771973, 1.9815013408660889, 
189, 2508005588, 0.65836126, 0.42666116, -0.4312317, 0.44560063, 9.388630867004395, 2.026639938354492, 2.4966793060302734, -4.8334245681762695, -1.2216490507125854, 2.1270196437835693, 
190, 2508022255, 0.65840805, 0.42641422, -0.43164212, 0.44537058, 9.41799259185791, 2.0321552753448486, 2.5261435508728027, -3.8476743698120117, -0.9137011170387268, 2.098320484161377, 
191, 2508038922, 0.6583508, 0.42627463, -0.4319286, 0.44531116, 9.433286666870117, 2.079251289367676, 2.5693814754486084, -3.4183411598205566, -0.7195055484771729, 2.1616861820220947, 
192, 2508055589, 0.6583708, 0.42603278, -0.4322359, 0.44521475, 9.41845989227295, 2.1066606044769287, 2.6026296615600586, -3.8043372631073, -0.2956666052341461, 2.2645466327667236, 
193, 2508072256, 0.65840214, 0.42578194, -0.43250063, 0.44515136, 9.472612380981445, 2.099191665649414, 2.652038335800171, -3.3942267894744873, 0.09639338403940201, 2.361990213394165, 
194, 2508088923, 0.6583959, 0.4255925, -0.43259084, 0.44525382, 9.555130004882812, 2.0261151790618896, 2.7652573585510254, -2.1282296180725098, 1.0384284257888794, 2.4995687007904053, 
195, 2508105590, 0.6582611, 0.42560604, -0.43246996, 0.4455577, 9.588224411010742, 2.031604528427124, 2.8032848834991455, 1.025660514831543, 1.6805132627487183, 2.757770538330078, 
196, 2508122257, 0.657945, 0.42584082, -0.43214357, 0.44611666, 9.808149337768555, 2.2220795154571533, 2.8862366676330566, 3.4111759662628174, 2.0314583778381348, 3.0611274242401123, 
197, 2508138924, 0.65759796, 0.42607749, -0.43175644, 0.44677678, 9.98029899597168, 2.279325246810913, 2.8939273357391357, 4.105908393859863, 2.5126829147338867, 3.4705851078033447, 
198, 2508155591, 0.6571987, 0.42642057, -0.43121105, 0.44756272, 9.903637886047363, 2.2556068897247314, 2.822399854660034, 5.289932727813721, 3.050511598587036, 3.345813274383545, 
199, 2508172258, 0.65685314, 0.4268392, -0.43058676, 0.4482716, 9.71442699432373, 2.3282666206359863, 2.705653667449951, 6.235451698303223, 3.237920045852661, 2.5962576866149902, 
200, 2508188925, 0.65658337, 0.4274304, -0.42969695, 0.4489568, 9.363227844238281, 2.1880619525909424, 2.6468846797943115, 6.575639247894287, 3.8836028575897217, 0.7119818925857544, 
201, 2508205592, 0.65644145, 0.42834648, -0.42839777, 0.4495327, 8.85854434967041, 2.0538346767425537, 2.531712770462036, 9.082867622375488, 4.867183208465576, -2.193312406539917, 
202, 2508222259, 0.65644133, 0.42954242, -0.42682293, 0.4498895, 8.568964004516602, 2.175551414489746, 2.4699761867523193, 10.204577445983887, 5.02635383605957, -5.2280473709106445, 
203, 2508238926, 0.6567097, 0.43070704, -0.42521513, 0.44990674, 8.454202651977539, 2.0688226222991943, 2.4994618892669678, 8.688408851623535, 5.11047887802124, -7.4902262687683105, 
204, 2508255593, 0.6570998, 0.43196774, -0.42355666, 0.4496928, 8.336197853088379, 2.0258898735046387, 2.5379860401153564, 8.066648483276367, 4.6701202392578125, -9.37884521484375, 
205, 2508272260, 0.65760845, 0.43316752, -0.4221131, 0.44915232, 8.313998222351074, 2.2228550910949707, 2.5469810962677, 6.178554534912109, 3.32353138923645, -10.299135208129883, 
206, 2508288927, 0.6582614, 0.43403956, -0.42115334, 0.44825405, 8.414721488952637, 2.255855083465576, 2.69183611869812, 1.145477294921875, 1.3715094327926636, -10.120471954345703, 
207, 2508305594, 0.6590302, 0.43441296, -0.42086044, 0.4470359, 8.54433822631836, 2.1581075191497803, 2.8685848712921143, -4.434321403503418, -0.747654139995575, -8.476493835449219, 
208, 2508322261, 0.6596239, 0.4345538, -0.42111477, 0.4457822, 8.677840232849121, 1.9824769496917725, 3.000786542892456, -6.638819694519043, -3.132235527038574, -5.7516984939575195, 
209, 2508338928, 0.65975714, 0.43481925, -0.4217214, 0.44475162, 8.85969352722168, 1.9663758277893066, 3.1490159034729004, -4.910140514373779, -5.764875411987305, -2.578321933746338, 
210, 2508355595, 0.65968317, 0.4348876, -0.4227592, 0.44380814, 9.0302095413208, 2.244893789291382, 3.3674299716949463, -6.349242210388184, -7.517040729522705, 0.2739278972148895, 
211, 2508372262, 0.6598699, 0.43412524, -0.42471436, 0.44240817, 8.994287490844727, 2.255129814147949, 3.250088930130005, -15.067832946777344, -9.807337760925293, 2.555330753326416, 
212, 2508388929, 0.66019326, 0.4328414, -0.4272582, 0.4407311, 8.906516075134277, 2.000603437423706, 3.141326904296875, -21.382028579711914, -11.560407638549805, 3.9050233364105225, 
213, 2508405596, 0.66067696, 0.43128487, -0.43002358, 0.43883842, 8.875736236572266, 1.833812952041626, 3.125753402709961, -23.65220069885254, -11.796028137207031, 4.10599422454834, 
214, 2508422263, 0.6613378, 0.4295065, -0.43282428, 0.43682945, 8.991658210754395, 1.919838547706604, 3.13393497467041, -25.7816104888916, -11.180575370788574, 3.7493832111358643, 
215, 2508438930, 0.6623547, 0.42746773, -0.43566892, 0.43445408, 9.080179214477539, 1.8918876647949219, 2.973644495010376, -28.489158630371094, -10.510891914367676, 2.1138358116149902, 
216, 2508455597, 0.6636217, 0.42546487, -0.4382892, 0.4318431, 9.16236400604248, 1.8749600648880005, 2.822255849838257, -29.378225326538086, -9.631526947021484, -0.5595816373825073, 
217, 2508472264, 0.6650337, 0.42368636, -0.4405002, 0.42916158, 9.348312377929688, 1.952478051185608, 2.696894645690918, -28.284635543823242, -8.324787139892578, -3.3312811851501465, 
218, 2508488931, 0.66672176, 0.42186764, -0.44248027, 0.4262875, 9.597394943237305, 2.0461647510528564, 2.635732889175415, -28.96367645263672, -6.851154804229736, -5.527602672576904, 
219, 2508505598, 0.6686356, 0.4199802, -0.44422224, 0.42333162, 9.869379043579102, 2.0364863872528076, 2.563105344772339, -28.892850875854492, -5.002969264984131, -6.893178939819336, 
220, 2508522265, 0.6704415, 0.41847327, -0.44543362, 0.4206866, 10.116986274719238, 1.8817867040634155, 2.520911693572998, -24.695158004760742, -3.1769042015075684, -7.945525646209717, 
221, 2508538932, 0.67196035, 0.41762564, -0.4459275, 0.41857705, 10.030364036560059, 1.7805770635604858, 2.4628727436065674, -16.761329650878906, -1.041311264038086, -8.653645515441895, 
222, 2508555599, 0.67320526, 0.41733086, -0.4458481, 0.4169525, 9.548853874206543, 1.9168013334274292, 2.4057304859161377, -10.085084915161133, 0.6169784069061279, -8.93425464630127, 
223, 2508572266, 0.6743855, 0.41709712, -0.44564572, 0.41549274, 9.026910781860352, 2.002711772918701, 2.363225221633911, -8.957456588745117, 1.2518789768218994, -8.587827682495117, 
224, 2508588933, 0.67580235, 0.4163842, -0.44574732, 0.41379324, 8.595813751220703, 2.0225212574005127, 2.2707579135894775, -12.12276840209961, 1.5260570049285889, -7.679512023925781, 
225, 2508605600, 0.6772492, 0.41544503, -0.4460277, 0.41206622, 8.410493850708008, 2.003697156906128, 2.1848130226135254, -14.761029243469238, 1.1669412851333618, -6.928158283233643, 
226, 2508622267, 0.6784872, 0.41447186, -0.44652173, 0.4104712, 8.53039264678955, 1.9981476068496704, 2.1519317626953125, -14.797987937927246, -0.048747412860393524, -5.0766143798828125, 
227, 2508638934, 0.679438, 0.41352794, -0.44711697, 0.4092005, 8.874316215515137, 2.0467522144317627, 2.210401773452759, -13.25428581237793, -0.5800767540931702, -2.58679461479187, 
228, 2508655601, 0.6801134, 0.41269866, -0.44761318, 0.40837264, 9.216064453125, 2.127723217010498, 2.216134548187256, -10.0769624710083, 0.025580693036317825, -0.3178665339946747, 
229, 2508672268, 0.6803392, 0.41221312, -0.447853, 0.40822396, 9.60067081451416, 2.198392629623413, 2.1374495029449463, -5.078678607940674, 0.6720836758613586, 2.1484897136688232, 
230, 2508688935, 0.680334, 0.4118179, -0.44797024, 0.4085027, 10.07507038116455, 2.3070390224456787, 2.120959520339966, -1.2158348560333252, 1.7499043941497803, 4.476196765899658, 
231, 2508705602, 0.68020207, 0.41155747, -0.44771641, 0.40926248, 10.356917381286621, 2.2848401069641113, 2.088542938232422, 1.9134418964385986, 4.03076696395874, 5.514472961425781, 
232, 2508722269, 0.6799676, 0.41160187, -0.4469014, 0.4104964, 10.387189865112305, 2.2006564140319824, 2.0220508575439453, 6.436620712280273, 6.811014175415039, 5.430963039398193, 
233, 2508738936, 0.6796321, 0.41208345, -0.44552213, 0.41206512, 10.364838600158691, 2.2744367122650146, 1.9361720085144043, 11.413193702697754, 8.899088859558105, 4.343033790588379, 
234, 2508755603, 0.679414, 0.41279855, -0.44376323, 0.41360387, 10.346170425415039, 2.39701247215271, 1.9295039176940918, 13.098722457885742, 10.320907592773438, 2.0646860599517822, 
235, 2508772270, 0.67951643, 0.41345462, -0.4418166, 0.4148627, 10.241750717163086, 2.4661083221435547, 1.9045056104660034, 11.570452690124512, 11.591275215148926, -0.5092193484306335, 
236, 2508788937, 0.67989457, 0.41399726, -0.4398353, 0.4158061, 10.133736610412598, 2.4141833782196045, 1.8217744827270508, 9.337444305419922, 12.0515718460083, -2.5304982662200928, 
237, 2508805604, 0.6804835, 0.41448134, -0.4378613, 0.41644338, 10.068912506103516, 2.429957389831543, 1.8330615758895874, 7.753129482269287, 12.050867080688477, -4.292871475219727, 
238, 2508822271, 0.6811814, 0.4149465, -0.43592548, 0.41686988, 9.99350643157959, 2.3188364505767822, 1.8028219938278198, 6.643452167510986, 11.70975112915039, -5.407914161682129, 
239, 2508838938, 0.68175787, 0.41562194, -0.4339422, 0.41732356, 9.829422950744629, 2.1926684379577637, 1.7445589303970337, 8.05543041229248, 11.062031745910645, -5.737524509429932, 
240, 2508855605, 0.68210626, 0.4165828, -0.4320031, 0.4178077, 9.525734901428223, 2.241334915161133, 1.7498492002487183, 10.098647117614746, 9.5137939453125, -5.64243745803833, 
241, 2508872272, 0.68220586, 0.41767126, -0.43034807, 0.41826612, 9.288500785827637, 2.3484864234924316, 1.7675446271896362, 10.339103698730469, 7.008426189422607, -4.669427871704102, 
242, 2508888939, 0.6820653, 0.41867462, -0.42919692, 0.41867483, 9.083145141601562, 2.400855541229248, 1.823682188987732, 8.854562759399414, 4.037952423095703, -2.561706066131592, 
243, 2508905606, 0.68171924, 0.41945237, -0.42870465, 0.41896442, 8.981438636779785, 2.4353177547454834, 1.8179423809051514, 6.327138423919678, 0.7272279858589172, 0.09650226682424545, 
244, 2508922273, 0.681081, 0.42001852, -0.4288956, 0.41923955, 8.983756065368652, 2.4269979000091553, 1.8368650674819946, 4.310899257659912, -2.6983108520507812, 3.5184295177459717, 
245, 2508938940, 0.6800766, 0.4204557, -0.42973402, 0.41957313, 8.931448936462402, 2.4251251220703125, 1.8819202184677124, 2.8757565021514893, -6.285684585571289, 7.044775009155273, 
246, 2508955607, 0.6787413, 0.42070863, -0.43120843, 0.41996902, 8.933930397033691, 2.494933605194092, 1.9865069389343262, 0.9212575554847717, -9.58993911743164, 10.56322956085205, 
247, 2508972274, 0.67721325, 0.42069742, -0.4332488, 0.420347, 8.99046802520752, 2.4401443004608154, 1.9821580648422241, -1.2750848531723022, -12.033646583557129, 13.518037796020508, 
248, 2508988941, 0.67539096, 0.42063707, -0.4357084, 0.42079663, 9.029220581054688, 2.407977819442749, 1.9672173261642456, -1.4311633110046387, -14.443408012390137, 16.134822845458984, 
249, 2509005608, 0.6733549, 0.42052388, -0.43847153, 0.4213022, 9.201754570007324, 2.4641571044921875, 2.0233969688415527, -2.052516460418701, -16.222822189331055, 17.97858428955078, 
250, 2509022275, 0.67126364, 0.42032135, -0.44138733, 0.42179668, 9.35717487335205, 2.3778886795043945, 2.0569214820861816, -2.593400716781616, -16.81405258178711, 18.86310577392578, 
251, 2509038942, 0.6690924, 0.4202009, -0.44421893, 0.4223937, 9.475790023803711, 2.3339462280273438, 2.0990872383117676, -1.7712630033493042, -16.66670799255371, 18.993505477905273, 
252, 2509055609, 0.6669614, 0.42017448, -0.44685867, 0.423005, 9.480350494384766, 2.334221124649048, 2.13952898979187, -1.0514097213745117, -15.920367240905762, 18.05860137939453, 
253, 2509072276, 0.6649904, 0.42020032, -0.44929302, 0.4235034, 9.417844772338867, 2.3547677993774414, 2.133728504180908, -0.708723783493042, -14.894445419311523, 16.414260864257812, 
254, 2509088943, 0.66323185, 0.42027768, -0.45150128, 0.42383593, 9.38370132446289, 2.3775174617767334, 2.1691410541534424, -0.8455597162246704, -13.810894966125488, 14.263862609863281, 
255, 2509105610, 0.6617238, 0.42035657, -0.45345983, 0.42402402, 9.354440689086914, 2.3620669841766357, 2.179568290710449, -1.2311207056045532, -12.307549476623535, 12.175957679748535, 
256, 2509122277, 0.6603937, 0.42046684, -0.45518863, 0.4241358, 9.374908447265625, 2.3983957767486572, 2.1750094890594482, -1.132728934288025, -11.014244079589844, 10.575708389282227, 
257, 2509138944, 0.65925235, 0.42054564, -0.45676732, 0.42413637, 9.504112243652344, 2.4364521503448486, 2.1983017921447754, -1.3733025789260864, -9.911698341369629, 9.285947799682617, 
258, 2509155611, 0.6582232, 0.4205905, -0.4581806, 0.42416584, 9.497276306152344, 2.4457716941833496, 2.269535541534424, -2.0582504272460938, -8.767167091369629, 8.55859661102295, 
259, 2509172278, 0.6573626, 0.42050922, -0.45952526, 0.4241262, 9.465892791748047, 2.487093687057495, 2.3046414852142334, -2.8980014324188232, -7.725100517272949, 8.031460762023926, 
260, 2509188945, 0.6566428, 0.4202731, -0.46084833, 0.42403978, 9.465926170349121, 2.466078996658325, 2.2796754837036133, -3.661241054534912, -6.805764675140381, 7.954782485961914, 
261, 2509205612, 0.6559796, 0.42001748, -0.46204382, 0.42401862, 9.38003921508789, 2.4384138584136963, 2.2592124938964844, -3.3318612575531006, -5.817561626434326, 7.799978733062744, 
262, 2509222279, 0.6553044, 0.4198224, -0.46306545, 0.42414144, 9.289246559143066, 2.422670602798462, 2.250455141067505, -2.05159068107605, -4.841672897338867, 7.814751625061035, 
263, 2509238946, 0.6546185, 0.4197144, -0.46385595, 0.42444345, 9.199713706970215, 2.4222307205200195, 2.2345104217529297, -1.0366805791854858, -3.687556743621826, 7.59415340423584, 
264, 2509255613, 0.65401274, 0.4196277, -0.46448004, 0.42478052, 9.168773651123047, 2.419698715209961, 2.2284388542175293, -0.31617602705955505, -2.6166703701019287, 7.047072887420654, 
265, 2509272280, 0.65353477, 0.4195571, -0.46493566, 0.42508745, 9.19452953338623, 2.4103760719299316, 2.2141129970550537, 0.24418510496616364, -1.525326132774353, 6.123427391052246, 
266, 2509288947, 0.65311927, 0.41962022, -0.4651566, 0.4254218, 9.189299583435059, 2.4522738456726074, 2.193389654159546, 0.8789510726928711, -0.6816564202308655, 4.865772724151611, 
267, 2509305614, 0.6527815, 0.41971084, -0.4653832, 0.4256027, 9.407383918762207, 2.589109182357788, 2.196958303451538, 0.41803136467933655, -0.9695689678192139, 3.9347965717315674, 
268, 2509322281, 0.6526602, 0.41961667, -0.46571603, 0.42551756, 9.670221328735352, 2.6612937450408936, 2.279937744140625, -1.834279179573059, -0.9357472658157349, 3.1066606044769287, 
269, 2509338948, 0.65268296, 0.41941005, -0.46609464, 0.42527154, 9.747252464294434, 2.5932297706604004, 2.2749829292297363, -3.829777717590332, -0.8883382081985474, 2.4038736820220947, 
270, 2509355615, 0.652785, 0.41925088, -0.4664696, 0.42486072, 9.719114303588867, 2.533578872680664, 2.262446165084839, -4.24412727355957, -1.2255423069000244, 1.3197649717330933, 
271, 2509372282, 0.65296376, 0.4191874, -0.46678942, 0.42429692, 9.658926010131836, 2.51511812210083, 2.28761887550354, -4.375194072723389, -1.4618000984191895, -0.02894875966012478, 
272, 2509388949, 0.65331775, 0.41917065, -0.46703228, 0.42350063, 9.619145393371582, 2.5132219791412354, 2.2723066806793213, -4.859133243560791, -1.322300672531128, -1.8615505695343018, 
273, 2509405616, 0.65386677, 0.41922086, -0.46712172, 0.42250377, 9.553038597106934, 2.477776288986206, 2.296875476837158, -5.67824125289917, -0.84913170337677, -4.041896343231201, 
274, 2509422283, 0.6547088, 0.41920826, -0.46716157, 0.4211663, 9.548493385314941, 2.4917633533477783, 2.3149354457855225, -7.175994873046875, -0.40906691551208496, -6.222830772399902, 
275, 2509438950, 0.65585047, 0.41913456, -0.4670584, 0.4195748, 9.520706176757812, 2.4448161125183105, 2.3375282287597656, -9.246310234069824, 0.5446926951408386, -8.534097671508789, 
276, 2509455617, 0.65728104, 0.41894272, -0.46689063, 0.41771042, 9.47473430633545, 2.403101682662964, 2.320087194442749, -11.112268447875977, 1.3304269313812256, -10.349651336669922, 
277, 2509472284, 0.65889525, 0.4186962, -0.46662694, 0.4157041, 9.425264358520508, 2.3237974643707275, 2.2986130714416504, -12.30597972869873, 2.0484225749969482, -11.647618293762207, 
278, 2509488951, 0.66055626, 0.41852108, -0.46617234, 0.41375026, 9.436097145080566, 2.194115161895752, 2.3112709522247314, -11.597825050354004, 2.9599666595458984, -12.353145599365234, 
279, 2509505618, 0.6621457, 0.41828734, -0.4656773, 0.41199946, 9.409152030944824, 1.9283323287963867, 2.4070863723754883, -10.343133926391602, 3.740053176879883, -11.03992748260498, 
280, 2509522285, 0.6636171, 0.41798317, -0.46512753, 0.41055927, 9.420130729675293, 1.6659455299377441, 2.5083212852478027, -9.199113845825195, 4.685276508331299, -9.229811668395996, 
281, 2509538952, 0.665009, 0.41743615, -0.4646816, 0.40936676, 9.497077941894531, 1.5618027448654175, 2.594740390777588, -9.386072158813477, 5.363500595092773, -6.784179210662842, 
282, 2509555619, 0.6664382, 0.4164809, -0.46439016, 0.408345, 9.492384910583496, 1.4818639755249023, 2.6323530673980713, -11.65185260772705, 6.327730655670166, -4.4543585777282715, 
283, 2509572286, 0.66768265, 0.4155777, -0.46390206, 0.40778676, 9.502049446105957, 1.2550420761108398, 2.518059730529785, -11.395456314086914, 7.336602687835693, -3.116119861602783, 
284, 2509588953, 0.6688705, 0.4148374, -0.46325114, 0.40733376, 9.666203498840332, 1.2353237867355347, 2.418822765350342, -6.6495466232299805, 8.27939224243164, -2.838144540786743, 
285, 2509605620, 0.6697884, 0.41474327, -0.46204382, 0.40729257, 9.741585731506348, 1.343282699584961, 2.3099915981292725, -0.352763831615448, 9.275175094604492, -3.939375638961792, 
286, 2509622287, 0.67063993, 0.415068, -0.46042913, 0.40738878, 9.715140342712402, 1.6818029880523682, 2.268388271331787, 3.799856662750244, 10.242785453796387, -5.5403876304626465, 
287, 2509638954, 0.6716517, 0.41542274, -0.4586877, 0.40732503, 9.769952774047852, 2.034508228302002, 2.225820779800415, 3.690338134765625, 10.869353294372559, -7.1120123863220215, 
288, 2509655621, 0.67292726, 0.41565996, -0.45690575, 0.40698025, 9.750482559204102, 2.1552464962005615, 2.070449113845825, 1.1220611333847046, 11.323336601257324, -9.017980575561523, 
289, 2509672288, 0.67448336, 0.41564676, -0.45522344, 0.40630257, 9.679788589477539, 2.245394468307495, 2.0171926021575928, -2.3834941387176514, 11.463248252868652, -10.320236206054688, 
290, 2509688955, 0.67634445, 0.41524893, -0.45373306, 0.40528145, 9.562137603759766, 2.2094461917877197, 2.0055739879608154, -6.725940704345703, 11.618696212768555, -11.030633926391602, 
291, 2509705622, 0.67834234, 0.41466966, -0.45239875, 0.40402493, 9.444726943969727, 2.0803067684173584, 1.9831548929214478, -8.783731460571289, 11.235644340515137, -11.413209915161133, 
292, 2509722289, 0.6802332, 0.41418135, -0.45111555, 0.4027797, 9.283437728881836, 1.9984853267669678, 1.9853150844573975, -8.166181564331055, 10.45682430267334, -11.201457023620605, 
293, 2509738956, 0.6819095, 0.41387504, -0.44992012, 0.40159553, 9.206329345703125, 2.0065572261810303, 2.006317138671875, -6.467058181762695, 9.127662658691406, -10.568639755249023, 
294, 2509755623, 0.6833293, 0.4137251, -0.44885185, 0.40053073, 9.139004707336426, 2.020636796951294, 2.014705181121826, -5.1218390464782715, 7.628894329071045, -9.464512825012207, 
295, 2509772290, 0.6844552, 0.4137397, -0.44789952, 0.39965823, 9.14192008972168, 2.014420509338379, 2.009835720062256, -3.5870540142059326, 6.20679235458374, -8.028450965881348, 
296, 2509788957, 0.6853169, 0.41382065, -0.44713295, 0.39895576, 9.116476058959961, 2.0519933700561523, 2.02018404006958, -3.0208325386047363, 4.718179702758789, -6.3231425285339355, 
297, 2509805624, 0.6860881, 0.41370353, -0.44670844, 0.39822647, 9.085881233215332, 2.023651361465454, 2.072593927383423, -4.026803970336914, 3.4657766819000244, -4.448760509490967, 
298, 2509822291, 0.6867208, 0.4134468, -0.44654626, 0.39758387, 9.104315757751465, 1.9507538080215454, 2.1348190307617188, -4.8043928146362305, 2.4261698722839355, -2.510096311569214, 
299, 2509838958, 0.6872293, 0.41313648, -0.44649616, 0.39708403, 9.226263046264648, 1.8218797445297241, 2.190248966217041, -4.4816460609436035, 2.0962910652160645, -1.0024042129516602, 
300, 2509855625, 0.68752503, 0.41294307, -0.446431, 0.39684623, 9.205204010009766, 1.6856402158737183, 2.2007243633270264, -2.958913564682007, 1.8355979919433594, 0.2651810944080353, 
301, 2509872292, 0.6876124, 0.41285264, -0.4463837, 0.39684215, 9.236486434936523, 1.6806777715682983, 2.2945396900177, -1.1180710792541504, 1.5215927362442017, 1.6745262145996094, 
302, 2509888959, 0.6876389, 0.41265237, -0.44642055, 0.39696297, 9.321893692016602, 1.6695966720581055, 2.418699264526367, -1.0379034280776978, 1.6592482328414917, 3.0558316707611084, 
303, 2509905626, 0.68766403, 0.41230682, -0.4465127, 0.39717498, 9.482693672180176, 1.6334439516067505, 2.4879801273345947, -1.3548541069030762, 2.1029820442199707, 4.133941173553467, 
304, 2509922293, 0.6875156, 0.41208103, -0.44650385, 0.39767566, 9.58301830291748, 1.4796183109283447, 2.4229984283447266, 0.8025420904159546, 2.5244455337524414, 5.273892402648926, 
305, 2509938960, 0.6870492, 0.41235766, -0.44622222, 0.39851034, 9.612398147583008, 1.670335292816162, 2.468614339828491, 5.782227993011475, 2.396933078765869, 5.355212688446045, 
306, 2509955627, 0.68654543, 0.41275832, -0.44589034, 0.39933446, 9.609436988830566, 1.9442306756973267, 2.4492149353027344, 6.852442741394043, 2.215812921524048, 4.935203552246094, 
307, 2509972294, 0.68599874, 0.41327134, -0.4454751, 0.40020576, 9.557435035705566, 2.039015293121338, 2.3999948501586914, 6.90991735458374, 2.0791687965393066, 4.410014629364014, 
308, 2509988961, 0.68551666, 0.41372517, -0.4451894, 0.4008805, 9.48391342163086, 2.1871321201324463, 2.3616943359375, 5.98541259765625, 1.3942465782165527, 3.97796630859375, 
309, 2510005628, 0.68516386, 0.41394913, -0.4450983, 0.40135312, 9.426004409790039, 2.2814574241638184, 2.4070959091186523, 3.1111936569213867, 0.8713505268096924, 3.8464064598083496, 
310, 2510022295, 0.6849354, 0.41397047, -0.44519556, 0.40161294, 9.324198722839355, 2.2608518600463867, 2.394094705581665, 1.1379789113998413, 0.44322144985198975, 3.7934012413024902, 
311, 2510038962, 0.6846675, 0.4139155, -0.44548813, 0.40180188, 9.337645530700684, 2.236347198486328, 2.3725993633270264, 0.01475931890308857, -0.6175222396850586, 4.322124004364014, 
312, 2510055629, 0.684402, 0.41372362, -0.44595397, 0.40193516, 9.30693531036377, 2.2341244220733643, 2.4534223079681396, -1.2381051778793335, -1.1936928033828735, 4.97544002532959, 
313, 2510072296, 0.68405944, 0.4135158, -0.4465373, 0.40208456, 9.227816581726074, 2.092424154281616, 2.420461654663086, -1.5389516353607178, -1.9326444864273071, 5.597879409790039, 
314, 2510088963, 0.68353105, 0.41350532, -0.447086, 0.40238422, 9.205790519714355, 2.0711843967437744, 2.3723888397216797, 0.4217579960823059, -2.472547769546509, 6.093011856079102, 
315, 2510105630, 0.68284327, 0.41361293, -0.44772565, 0.40272963, 9.161380767822266, 2.155730962753296, 2.3666090965270996, 1.6504441499710083, -3.5127055644989014, 6.727099895477295, 
316, 2510122297, 0.6821323, 0.41363135, -0.4484833, 0.40307254, 9.156153678894043, 2.2154412269592285, 2.375370979309082, 0.7030240297317505, -3.9556519985198975, 7.316365718841553, 
317, 2510138964, 0.6813961, 0.41354743, -0.44940767, 0.4033744, 9.151753425598145, 2.204257011413574, 2.4144294261932373, -0.05150715261697769, -4.594112396240234, 8.04806900024414, 
318, 2510155631, 0.68059176, 0.4133572, -0.45052215, 0.4036838, 9.251412391662598, 2.2114131450653076, 2.47953200340271, -0.9684037566184998, -5.408226490020752, 9.10925579071045, 
319, 2510172298, 0.67969525, 0.41316512, -0.45169118, 0.4040845, 9.313726425170898, 2.1648330688476562, 2.501404047012329, -0.7039909958839417, -5.715464115142822, 9.920636177062988, 
320, 2510188965, 0.6786478, 0.41304675, -0.4528814, 0.40463334, 9.338364601135254, 2.2018284797668457, 2.4869766235351562, 0.034436289221048355, -6.171824932098389, 10.745889663696289, 
321, 2510205632, 0.677525, 0.4128925, -0.4541887, 0.40520653, 9.417303085327148, 2.1909990310668945, 2.493957757949829, 0.3889034688472748, -6.666356086730957, 11.659753799438477, 
322, 2510222299, 0.6762963, 0.41278163, -0.45548496, 0.40591645, 9.487861633300781, 2.210660696029663, 2.517899990081787, 0.7235913276672363, -6.813879013061523, 12.263030052185059, 
323, 2510238966, 0.67510915, 0.4125748, -0.45685405, 0.4065639, 9.524906158447266, 2.213383197784424, 2.5603349208831787, 0.23729538917541504, -6.839261054992676, 12.486525535583496, 
324, 2510255633, 0.6739117, 0.41239178, -0.45823398, 0.40718275, 9.485947608947754, 2.250575542449951, 2.6017098426818848, -0.3352576494216919, -7.20109224319458, 12.19071102142334, 
325, 2510272300, 0.6729671, 0.4118799, -0.45978278, 0.40751714, 9.480737686157227, 2.29551362991333, 2.6528189182281494, -3.5364818572998047, -6.998705863952637, 11.786547660827637, 
326, 2510288967, 0.6721121, 0.41130456, -0.46134898, 0.40773883, 9.408516883850098, 2.12589693069458, 2.583488941192627, -4.618780136108398, -6.974996566772461, 11.238893508911133, 
327, 2510305634, 0.67127365, 0.4107759, -0.46278548, 0.40802523, 9.336379051208496, 2.0746943950653076, 2.6611485481262207, -3.4498660564422607, -6.19791841506958, 11.084498405456543, 
328, 2510322301, 0.67039645, 0.4104359, -0.46393603, 0.40850264, 9.281136512756348, 2.0574188232421875, 2.6341633796691895, -1.5160164833068848, -5.091973304748535, 10.558706283569336, 
329, 2510338968, 0.6695504, 0.4101054, -0.4649654, 0.40905154, 9.088322639465332, 2.1529762744903564, 2.6187286376953125, -0.7369546294212341, -4.225470066070557, 10.49394416809082, 
330, 2510355635, 0.6687767, 0.4096166, -0.46605676, 0.40956444, 8.992154121398926, 2.1546809673309326, 2.5500972270965576, -2.4238970279693604, -4.036857604980469, 10.702174186706543, 
331, 2510372302, 0.66800267, 0.4091562, -0.4671347, 0.41005957, 8.998719215393066, 2.060490608215332, 2.5316202640533447, -1.9221315383911133, -4.048511505126953, 10.593513488769531, 
332, 2510388969, 0.6672187, 0.4087644, -0.4681611, 0.41055593, 9.257482528686523, 2.1012980937957764, 2.512701988220215, -0.5840594172477722, -3.8969099521636963, 10.46448802947998, 
333, 2510405636, 0.6662467, 0.40869847, -0.46891952, 0.41133368, 9.523622512817383, 2.0497124195098877, 2.540755271911621, 1.4024558067321777, -3.709385633468628, 10.098161697387695, 
334, 2510422303, 0.6651668, 0.4089746, -0.46936306, 0.4123, 9.736499786376953, 2.006218671798706, 2.5932695865631104, 5.961211204528809, -2.8579301834106445, 9.558554649353027, 
335, 2510438970, 0.6639185, 0.40971893, -0.46936265, 0.41357145, 9.833381652832031, 1.931174635887146, 2.6255528926849365, 10.752839088439941, -1.860264539718628, 8.660408020019531, 
336, 2510455637, 0.66258156, 0.4108117, -0.46896413, 0.4150812, 9.844186782836914, 1.9979102611541748, 2.659428596496582, 14.510974884033203, -0.6558969616889954, 7.756875991821289, 
337, 2510472304, 0.66137844, 0.4119705, -0.4683718, 0.41651776, 9.632752418518066, 2.0047264099121094, 2.640101909637451, 15.243196487426758, 0.3360517621040344, 6.395612716674805, 
338, 2510488971, 0.66029066, 0.4132977, -0.46746805, 0.4179416, 9.408565521240234, 1.9170950651168823, 2.628344774246216, 15.621539115905762, 1.4449224472045898, 4.381664276123047, 
339, 2510505638, 0.6595089, 0.41462, -0.4663473, 0.41911662, 9.184555053710938, 1.8145893812179565, 2.6630685329437256, 15.75007152557373, 2.906019449234009, 2.0418334007263184, 
340, 2510522305, 0.6588893, 0.41606045, -0.46488076, 0.4202914, 9.004364013671875, 1.7020914554595947, 2.70054292678833, 16.13221549987793, 4.5276641845703125, 0.056745000183582306, 
341, 2510538972, 0.6583558, 0.41761988, -0.46308485, 0.4215613, 9.07645320892334, 1.6726994514465332, 2.708163261413574, 18.192134857177734, 6.293752193450928, -0.9713308215141296, 
342, 2510555639, 0.6577708, 0.41920513, -0.46108842, 0.42308643, 9.326190948486328, 1.8496850728988647, 2.753810167312622, 19.156457901000977, 7.566168785095215, -0.4829985797405243, 
343, 2510572306, 0.6572578, 0.420458, -0.45917305, 0.42472053, 9.543885231018066, 1.977051019668579, 2.7583107948303223, 17.684228897094727, 8.719017028808594, 1.1175923347473145, 
344, 2510588973, 0.65677613, 0.42124993, -0.4575624, 0.42641565, 9.69986343383789, 2.0541605949401855, 2.7300901412963867, 15.153348922729492, 9.008405685424805, 3.7186734676361084, 
345, 2510605640, 0.65616715, 0.4218261, -0.45619166, 0.42824852, 9.711152076721191, 1.8075875043869019, 2.6488449573516846, 14.337183952331543, 8.557608604431152, 6.104984760284424, 
346, 2510622307, 0.6552327, 0.42264345, -0.4548289, 0.43031773, 9.563817024230957, 1.5858631134033203, 2.532780170440674, 17.248838424682617, 7.495853424072266, 7.4307475090026855, 
347, 2510638974, 0.6539148, 0.42390847, -0.45335236, 0.43263018, 9.384763717651367, 1.6434584856033325, 2.470468521118164, 21.365449905395508, 6.168241500854492, 7.896141052246094, 
348, 2510655641, 0.6523967, 0.4253799, -0.45201004, 0.43487644, 9.247617721557617, 1.7386102676391602, 2.391998052597046, 22.6879940032959, 4.200094223022461, 8.030686378479004, 
349, 2510672308, 0.65077454, 0.42693886, -0.45078546, 0.43704504, 9.131080627441406, 1.730452060699463, 2.3728630542755127, 22.126354217529297, 2.747953414916992, 7.9118547439575195, 
350, 2510688975, 0.6490762, 0.4284965, -0.44962862, 0.4392323, 9.039475440979004, 1.6468908786773682, 2.4300920963287354, 21.816953659057617, 2.201748847961426, 8.336374282836914, 
351, 2510705642, 0.647265, 0.43008643, -0.44841272, 0.4415879, 8.934966087341309, 1.6193711757659912, 2.3774516582489014, 23.18672752380371, 2.543462038040161, 9.194428443908691, 
352, 2510722309, 0.64531946, 0.4317576, -0.4471768, 0.44405073, 8.82106876373291, 1.6099716424942017, 2.3313770294189453, 25.769161224365234, 2.5232162475585938, 10.094619750976562, 
353, 2510738976, 0.64301777, 0.43367898, -0.44589016, 0.44680274, 8.797321319580078, 1.752666711807251, 2.3437225818634033, 27.613815307617188, 1.519849419593811, 11.22884750366211, 
354, 2510755643, 0.64058703, 0.43554044, -0.4448163, 0.44954574, 8.88227367401123, 1.8730255365371704, 2.441664934158325, 26.980499267578125, 0.3232845067977905, 12.3822021484375, 
355, 2510772310, 0.6380787, 0.4372913, -0.44396117, 0.45225045, 8.988676071166992, 1.8550896644592285, 2.476813793182373, 26.322492599487305, -0.5931598544120789, 13.538363456726074, 
356, 2510788977, 0.6353651, 0.43912876, -0.4431148, 0.45511156, 9.057655334472656, 1.7681821584701538, 2.5387380123138428, 27.194656372070312, -1.152825117111206, 14.501524925231934, 
357, 2510805644, 0.6323942, 0.4411558, -0.4421725, 0.45819497, 9.20474624633789, 1.6533534526824951, 2.5515027046203613, 30.708967208862305, -1.2990237474441528, 15.61825180053711, 
358, 2510822311, 0.628995, 0.44359472, -0.44078627, 0.46184033, 9.28471565246582, 1.6227836608886719, 2.6161305904388428, 35.794837951660156, -0.44769319891929626, 16.560468673706055, 
359, 2510838978, 0.6253334, 0.44625553, -0.43913397, 0.46580637, 9.319988250732422, 1.6556577682495117, 2.6126275062561035, 40.678733825683594, 0.37602266669273376, 17.578195571899414, 
360, 2510855645, 0.62138397, 0.44910803, -0.43722275, 0.47012803, 9.3342924118042, 1.7574821710586548, 2.6276583671569824, 43.52442932128906, 0.9705497026443481, 18.485153198242188, 
361, 2510872312, 0.6173174, 0.4519316, -0.4352416, 0.47459674, 9.344160079956055, 1.758885383605957, 2.66499924659729, 45.032928466796875, 1.5527832508087158, 19.49866485595703, 
362, 2510888979, 0.61294323, 0.4549503, -0.43302917, 0.4793814, 9.364646911621094, 1.7441800832748413, 2.7118403911590576, 48.17053985595703, 1.8924894332885742, 20.46078872680664, 
363, 2510905646, 0.6081988, 0.45822868, -0.43062496, 0.4844409, 9.39566421508789, 1.770172119140625, 2.7399322986602783, 52.19149398803711, 1.6330969333648682, 21.530406951904297, 
364, 2510922313, 0.603083, 0.46171054, -0.42808148, 0.4897558, 9.343962669372559, 1.9247492551803589, 2.707365036010742, 55.027748107910156, 1.1796458959579468, 22.715301513671875, 
365, 2510938980, 0.5977256, 0.46521804, -0.42578554, 0.4949779, 9.368128776550293, 2.2043352127075195, 2.7426183223724365, 55.21339416503906, -0.8913139700889587, 23.94908905029297, 
366, 2510955647, 0.5925438, 0.46803194, -0.42443913, 0.49968952, 9.40204906463623, 2.769718885421753, 2.9075043201446533, 46.70132827758789, -3.6099095344543457, 26.261133193969727, 
367, 2510972314, 0.58822286, 0.46941894, -0.42463115, 0.5033172, 9.227315902709961, 2.4721860885620117, 2.880697011947632, 30.183401107788086, -5.905587196350098, 28.13129997253418, 
368, 2510988981, 0.5839226, 0.47060505, -0.4253019, 0.5066397, 8.97401237487793, 2.017453193664551, 2.6699397563934326, 26.197494506835938, -8.16617488861084, 28.86728858947754, 
369, 2511005648, 0.57943577, 0.47209442, -0.4261204, 0.50970846, 8.800188064575195, 1.908758521080017, 2.5443925857543945, 27.378421783447266, -11.130467414855957, 28.220224380493164, 
370, 2511022315, 0.5749715, 0.47370246, -0.42715728, 0.512397, 8.512873649597168, 2.243816614151001, 2.6347036361694336, 25.974456787109375, -13.59777545928955, 27.009201049804688, 
371, 2511038982, 0.57094514, 0.47490427, -0.42897186, 0.51426727, 8.265804290771484, 2.2531237602233887, 2.6580700874328613, 17.477724075317383, -16.676162719726562, 25.91806411743164, 
372, 2511055649, 0.56688344, 0.47607347, -0.43154797, 0.5155226, 8.624680519104004, 2.5571746826171875, 2.7451741695404053, 12.475212097167969, -21.743370056152344, 26.141904830932617, 
373, 2511072316, 0.5625836, 0.476816, -0.4357249, 0.516033, 10.528468132019043, 2.8318352699279785, 3.228689670562744, 4.203853130340576, -29.601322174072266, 30.700119018554688, 
374, 2511088983, 0.55839443, 0.47680378, -0.44109273, 0.5160342, 12.73552131652832, 3.021383047103882, 3.804414749145508, -5.751089572906494, -32.9918098449707, 34.375938415527344, 
375, 2511105650, 0.5557657, 0.47451463, -0.44773114, 0.51526433, 12.611189842224121, 3.1378276348114014, 3.6587023735046387, -27.01681137084961, -27.655996322631836, 36.90873336791992, 
376, 2511122317, 0.55421704, 0.47105277, -0.45495197, 0.51378196, 11.342992782592773, 1.8135040998458862, 2.875717878341675, -38.414146423339844, -24.72041130065918, 36.034515380859375, 
377, 2511138984, 0.55310595, 0.46831834, -0.46127912, 0.51183355, 10.089896202087402, 1.6938072443008423, 2.3922553062438965, -35.03721618652344, -24.04831886291504, 27.59918785095215, 
378, 2511155651, 0.55387574, 0.46515357, -0.4672384, 0.5084705, 8.804996490478516, 2.0457963943481445, 2.576894521713257, -46.22100830078125, -19.770898818969727, 15.750300407409668, 
379, 2511172318, 0.55670816, 0.46128297, -0.47322333, 0.50334275, 8.080461502075195, 1.6118240356445312, 2.167261838912964, -61.20883560180664, -16.462520599365234, 4.19690465927124, 
380, 2511188985, 0.560687, 0.45742118, -0.47884268, 0.49709746, 8.333986282348633, 1.7992900609970093, 1.934511423110962, -66.89798736572266, -14.937196731567383, -5.191287994384766, 
381, 2511205652, 0.56572276, 0.45326078, -0.48422828, 0.48993412, 9.354889869689941, 2.2322402000427246, 2.1842215061187744, -72.9698715209961, -12.427483558654785, -12.002584457397461, 
382, 2511222319, 0.5719227, 0.4480776, -0.48946795, 0.48223662, 10.158134460449219, 2.276165723800659, 2.195573091506958, -82.4686508178711, -6.265310764312744, -15.104217529296875, 
383, 2511238986, 0.57897407, 0.4420511, -0.49399263, 0.47471157, 10.528922080993652, 1.8161277770996094, 1.833168625831604, -85.48760986328125, 2.7019426822662354, -16.59602928161621, 
384, 2511255653, 0.585945, 0.43648067, -0.49676156, 0.46838126, 10.353265762329102, 1.1976394653320312, 1.4209880828857422, -73.5931167602539, 11.535982131958008, -18.446643829345703, 
385, 2511272320, 0.59232926, 0.43229258, -0.49737296, 0.46356156, 9.775041580200195, 0.9576653838157654, 1.1048030853271484, -54.128665924072266, 18.295379638671875, -21.66349983215332, 
386, 2511288987, 0.5981561, 0.42962915, -0.49597722, 0.46003777, 9.226663589477539, 0.9199913144111633, 0.9133697748184204, -35.35872268676758, 23.562875747680664, -25.779630661010742, 
387, 2511305654, 0.6034797, 0.42849457, -0.49280524, 0.45754543, 8.792378425598145, 1.0657813549041748, 0.885532021522522, -18.396202087402344, 27.380409240722656, -30.396472930908203, 
388, 2511322321, 0.6084549, 0.42853022, -0.4883973, 0.45564526, 8.682008743286133, 1.4039318561553955, 0.9439865350723267, -6.625254154205322, 29.4113826751709, -34.442054748535156, 
389, 2511338988, 0.613406, 0.42912564, -0.48326117, 0.45391953, 8.68553638458252, 1.703086256980896, 1.0211714506149292, -1.2224469184875488, 31.172571182250977, -37.62650680541992, 
390, 2511355655, 0.6185433, 0.4297845, -0.47774354, 0.45216224, 8.764065742492676, 1.8324567079544067, 0.9344689846038818, -0.37531283497810364, 33.14138412475586, -39.64690399169922, 
391, 2511372322, 0.62393296, 0.4303646, -0.47190672, 0.45033112, 8.799046516418457, 1.8314836025238037, 0.732571542263031, -0.8072758913040161, 35.37499237060547, -41.423667907714844, 
392, 2511388989, 0.62965435, 0.4308055, -0.4658229, 0.44827592, 8.747223854064941, 1.8779828548431396, 0.5483192801475525, -2.3598086833953857, 37.3148307800293, -43.67365646362305, 
393, 2511405656, 0.6358279, 0.4309691, -0.4595937, 0.44582775, 8.859237670898438, 1.7996853590011597, 0.37282317876815796, -5.638293266296387, 39.1373176574707, -46.27516555786133, 
394, 2511422323, 0.6422747, 0.43120322, -0.4529097, 0.4431928, 8.8339204788208, 1.4949215650558472, 0.24560143053531647, -5.314976692199707, 41.273441314697266, -49.478057861328125, 
395, 2511438990, 0.6484971, 0.43197787, -0.4455302, 0.44085103, 9.00210189819336, 1.0989035367965698, 0.1690463423728943, 0.7632575631141663, 42.92538833618164, -51.23707962036133, 
396, 2511455657, 0.6539085, 0.4337563, -0.4371522, 0.43949655, 9.271063804626465, 0.9172830581665039, 0.180757075548172, 13.589620590209961, 44.82712173461914, -50.44477844238281, 
397, 2511472324, 0.65806603, 0.4366952, -0.427869, 0.43951657, 9.504842758178711, 0.9226230382919312, 0.2215307354927063, 29.399377822875977, 45.789634704589844, -46.676998138427734, 
398, 2511488991, 0.6608169, 0.44049308, -0.4178968, 0.44119072, 9.43492317199707, 0.8576788306236267, 0.30973339080810547, 44.45855712890625, 47.21639633178711, -39.55075454711914, 
399, 2511505658, 0.66209257, 0.4449301, -0.40735725, 0.44466937, 8.932774543762207, 0.7919203042984009, 0.41275739669799805, 58.65052795410156, 49.139610290527344, -30.473764419555664, 
400, 2511522325, 0.661612, 0.45010287, -0.39645797, 0.44999787, 8.482734680175781, 0.841737687587738, 0.392070472240448, 73.62406158447266, 49.33591079711914, -19.875680923461914, 
401, 2511538992, 0.6593404, 0.45578367, -0.3855775, 0.45701382, 8.307194709777832, 1.0673028230667114, 0.5155842304229736, 85.93155670166016, 48.070518493652344, -8.033641815185547, 
402, 2511555659, 0.6555466, 0.4616306, -0.3750961, 0.4652515, 7.796388149261475, 1.1778838634490967, 0.5654230713844299, 93.43551635742188, 45.6010856628418, 3.0749728679656982, 
403, 2511572326, 0.6508343, 0.4671147, -0.36543813, 0.47399765, 6.872196674346924, 1.1714770793914795, 0.8048421144485474, 93.40062713623047, 42.3630485534668, 11.836111068725586, 
404, 2511588993, 0.6459784, 0.47167102, -0.3566721, 0.4827251, 5.450145721435547, 0.6787549257278442, 1.122721552848816, 86.76545715332031, 41.028011322021484, 17.399044036865234, 
405, 2511605660, 0.64117515, 0.47534633, -0.3482046, 0.49162376, 3.893730878829956, 0.08083018660545349, 1.2753193378448486, 82.08955383300781, 43.334041595458984, 21.081695556640625, 
406, 2511622327, 0.63603216, 0.47888327, -0.33949435, 0.5008769, 2.8421897888183594, -0.3588787913322449, 0.8722896575927734, 84.27238464355469, 45.237361907958984, 23.30823516845703, 
407, 2511638994, 0.6300883, 0.4830758, -0.33033335, 0.5103984, 2.6545894145965576, -0.35900187492370605, 0.5507044792175293, 91.9817886352539, 43.988590240478516, 24.202001571655273, 
408, 2511655661, 0.62327963, 0.48790243, -0.3214943, 0.5197262, 3.499600648880005, 0.4422636330127716, 0.6274941563606262, 96.12632751464844, 37.8123664855957, 26.028932571411133, 
409, 2511672328, 0.6160769, 0.49229524, -0.31480366, 0.5281984, 5.03647518157959, 1.58843994140625, 1.471418023109436, 86.09417724609375, 26.461071014404297, 31.938432693481445, 
410, 2511688995, 0.6092308, 0.49495867, -0.31181848, 0.5353719, 7.007313251495361, 2.7703840732574463, 2.5994713306427, 61.29915237426758, 13.434743881225586, 41.419559478759766, 
411, 2511705662, 0.6032782, 0.49490517, -0.31290495, 0.54149336, 8.752982139587402, 3.185347080230713, 3.3168997764587402, 29.753076553344727, 4.7433295249938965, 53.44630432128906, 
412, 2511722329, 0.5956607, 0.4945674, -0.31689453, 0.5478772, 10.71435546875, 3.026911973953247, 3.4719605445861816, 23.888626098632812, -8.982522964477539, 71.18441772460938, 
413, 2511738996, 0.58344305, 0.49672788, -0.3234814, 0.55517167, 14.31533432006836, 3.688971519470215, 3.8434102535247803, 41.983829498291016, -35.969276428222656, 95.62098693847656, 
414, 2511755663, 0.5684014, 0.5000205, -0.33237904, 0.5625154, 17.17743492126465, 4.138543605804443, 4.196828365325928, 47.431419372558594, -55.68964385986328, 111.9360122680664, 
415, 2511772330, 0.5526507, 0.50345826, -0.3421769, 0.5692293, 15.1218900680542, 4.043837547302246, 5.118373394012451, 45.46025848388672, -63.57192611694336, 114.9392318725586, 
416, 2511788997, 0.53647935, 0.5073104, -0.35166457, 0.57546335, 12.141850471496582, 3.786824941635132, 5.96502685546875, 47.62652587890625, -66.86626434326172, 112.45427703857422, 
417, 2511805664, 0.5219467, 0.510431, -0.36055952, 0.58054173, 11.24087142944336, 3.8634119033813477, 6.319764614105225, 38.779937744140625, -61.90082931518555, 101.43711853027344, 
418, 2511822331, 0.5107733, 0.5108154, -0.36982098, 0.5843037, 10.486886978149414, 4.395065784454346, 6.004865646362305, 12.457892417907715, -48.65129852294922, 91.41114044189453, 
419, 2511838998, 0.5029254, 0.5082922, -0.38059738, 0.586388, 8.448200225830078, 5.054378986358643, 5.295770168304443, -19.779428482055664, -39.799808502197266, 84.93064880371094, 
420, 2511855665, 0.49772364, 0.5039357, -0.39262933, 0.58665353, 6.529996871948242, 5.2618279457092285, 4.788699626922607, -45.189937591552734, -36.25688552856445, 77.23572540283203, 
421, 2511872332, 0.49435776, 0.49834016, -0.40559486, 0.5854578, 5.0902099609375, 5.0045342445373535, 4.687132358551025, -63.508514404296875, -34.641788482666016, 71.4949722290039, 
422, 2511888999, 0.4926733, 0.49164212, -0.41902152, 0.58308, 3.493218421936035, 4.461251735687256, 4.851499080657959, -78.17711639404297, -31.220897674560547, 65.44354248046875, 
423, 2511905666, 0.49272686, 0.48416787, -0.43218833, 0.57966816, 2.2196404933929443, 3.705524206161499, 5.164384365081787, -88.62684631347656, -25.81972312927246, 56.398868560791016, 
424, 2511922333, 0.49398386, 0.47646987, -0.4439678, 0.57606333, 1.5314726829528809, 2.942106008529663, 5.046404838562012, -88.44393920898438, -17.407926559448242, 47.044403076171875, 
425, 2511939000, 0.4960316, 0.46885327, -0.45389616, 0.5728069, 2.8876264095306396, 2.680849075317383, 4.477924823760986, -82.37419891357422, -8.000983238220215, 38.815399169921875, 
426, 2511955667, 0.4993208, 0.46083087, -0.46187648, 0.5700735, 7.143886089324951, 2.503016710281372, 3.3884787559509277, -78.46827697753906, 5.706230163574219, 30.722938537597656, 
427, 2511972334, 0.50386256, 0.45289233, -0.46736905, 0.5679589, 11.894407272338867, 1.7453347444534302, 1.6608589887619019, -70.44966125488281, 19.795379638671875, 19.815906524658203, 
428, 2511989001, 0.508527, 0.44720107, -0.46931127, 0.5667087, 17.49980354309082, 0.9760404825210571, -0.7495763301849365, -46.417015075683594, 26.39334487915039, 4.080272674560547, 
429, 2512005668, 0.51359177, 0.444255, -0.4671407, 0.5662516, 23.840797424316406, -0.03409849479794502, -2.2424943447113037, -19.47356605529785, 33.865989685058594, -16.185209274291992, 
430, 2512022335, 0.5208222, 0.44390777, -0.45877394, 0.5667598, 24.005163192749023, -2.058698892593384, -3.265502452850342, 10.306865692138672, 55.64845275878906, -48.46010971069336, 
431, 2512039002, 0.5274705, 0.44735807, -0.44567102, 0.56835127, 19.083784103393555, -3.119300127029419, -3.4230504035949707, 47.55624771118164, 59.428279876708984, -68.76541900634766, 
432, 2512055669, 0.5322667, 0.45356008, -0.43132976, 0.57002646, 17.57358169555664, -2.2768914699554443, -1.9372020959854126, 68.33224487304688, 47.896141052246094, -73.51383209228516, 
433, 2512072336, 0.5366141, 0.45991322, -0.41717958, 0.57139, 16.742727279663086, -1.3224207162857056, -0.4937175512313843, 68.60902404785156, 44.4202995300293, -72.79132080078125, 
434, 2512089003, 0.54063183, 0.4659918, -0.4036782, 0.57237494, 14.229308128356934, -0.3357418477535248, 0.1608552485704422, 64.99883270263672, 41.05354690551758, -70.0889892578125, 
435, 2512105670, 0.54378545, 0.4714712, -0.39208913, 0.5729561, 10.726694107055664, -0.6564139127731323, 0.1518031656742096, 56.884498596191406, 32.67858123779297, -60.42451858520508, 
436, 2512122337, 0.54564196, 0.4767076, -0.3822822, 0.5734852, 7.2026214599609375, -1.5605648756027222, -0.3584183156490326, 53.01560974121094, 23.361343383789062, -49.111270904541016, 
437, 2512139004, 0.54639685, 0.48195046, -0.37319204, 0.57437104, 3.687420606613159, -2.397272825241089, -1.0996984243392944, 54.76279067993164, 18.966846466064453, -41.14530944824219, 
438, 2512155671, 0.54571605, 0.48802826, -0.36410496, 0.575717, 0.9289475679397583, -2.5006251335144043, -1.4501614570617676, 63.828521728515625, 13.543352127075195, -35.94060134887695, 
439, 2512172338, 0.54413414, 0.49411842, -0.35595867, 0.5771122, -0.10073666274547577, -1.4846497774124146, -1.1177688837051392, 63.305015563964844, 7.911952018737793, -29.120437622070312, 
440, 2512189005, 0.5427814, 0.49859098, -0.34986627, 0.5782639, 0.40261155366897583, -0.2747143805027008, -0.47024932503700256, 47.73091125488281, 6.4051055908203125, -20.039892196655273, 
441, 2512205672, 0.54148805, 0.5013336, -0.34588033, 0.5795018, 2.261590003967285, 0.43392214179039, 0.02613931894302368, 32.903621673583984, 5.872824668884277, -8.587878227233887, 
442, 2512222339, 0.5393184, 0.5031631, -0.34359476, 0.58129627, 4.39712381362915, 1.1155427694320679, 0.47517743706703186, 27.072980880737305, 3.0242278575897217, 5.000188827514648, 
443, 2512239006, 0.5356996, 0.50454724, -0.34367245, 0.58339304, 6.4346537590026855, 1.7820626497268677, 0.8889809250831604, 21.70442771911621, -6.324251651763916, 21.140613555908203, 
444, 2512255673, 0.530935, 0.50542885, -0.3468081, 0.58512735, 8.198328018188477, 2.2291581630706787, 1.4610788822174072, 10.707879066467285, -19.523025512695312, 36.204776763916016, 
445, 2512272340, 0.5252951, 0.50589436, -0.3528388, 0.586209, 10.090086936950684, 2.6845524311065674, 2.515598773956299, -0.9670893549919128, -32.76263427734375, 48.40948486328125, 
446, 2512289007, 0.51886725, 0.50620764, -0.36169088, 0.58626825, 12.455961227416992, 3.0467846393585205, 3.46985125541687, -12.6185941696167, -47.80938720703125, 58.09738540649414, 
447, 2512305674, 0.512456, 0.5061607, -0.37291583, 0.58491373, 15.126762390136719, 3.021790027618408, 4.251256942749023, -27.027610778808594, -59.719234466552734, 62.167076110839844, 
448, 2512322341, 0.5068121, 0.50556177, -0.3860037, 0.58185047, 16.218122482299805, 2.6660327911376953, 4.856750965118408, -43.50054931640625, -68.067138671875, 60.98542022705078, 
449, 2512339008, 0.5026415, 0.5041281, -0.4002852, 0.5770429, 15.277846336364746, 2.912087917327881, 5.79478120803833, -60.91530227661133, -71.08126831054688, 55.40312957763672, 
450, 2512355675, 0.50112146, 0.5003483, -0.41640577, 0.5702062, 14.478531837463379, 3.3437392711639404, 6.5003461837768555, -91.07644653320312, -67.93759155273438, 50.739864349365234, 
451, 2512372342, 0.5036116, 0.49289376, -0.4332729, 0.56187695, 12.717571258544922, 2.6803829669952393, 6.081530570983887, -124.72315979003906, -49.85530090332031, 43.00861740112305, 
452, 2512389009, 0.508805, 0.4838218, -0.448353, 0.5531851, 9.64002513885498, 1.3246630430221558, 4.804832935333252, -133.65286254882812, -30.700956344604492, 30.103670120239258, 
453, 2512405676, 0.51446176, 0.4761761, -0.45917192, 0.5456618, 6.90753698348999, -0.47207140922546387, 3.6374664306640625, -110.3886947631836, -15.990765571594238, 13.86660385131836, 
454, 2512422343, 0.51880914, 0.4717846, -0.4643345, 0.54097134, 4.2095489501953125, -1.8883256912231445, 3.1056385040283203, -64.418701171875, -3.118269681930542, -0.015041275881230831, 
455, 2512439010, 0.5214669, 0.4703894, -0.4646012, 0.53939956, 2.0829784870147705, -2.0574426651000977, 2.675572156906128, -20.078542709350586, 7.872846603393555, -8.095913887023926, 
456, 2512455677, 0.5227314, 0.4708865, -0.46201137, 0.53996605, 1.4038200378417969, -1.415181279182434, 2.349691867828369, 8.639315605163574, 13.522919654846191, -10.58925724029541, 
457, 2512472344, 0.52326125, 0.4718899, -0.4584702, 0.54159284, 3.066970109939575, -0.4298078715801239, 2.297285318374634, 19.739774703979492, 16.130754470825195, -8.771790504455566, 
458, 2512489011, 0.52392715, 0.4721895, -0.45500073, 0.5436099, 6.540032863616943, 0.8504966497421265, 2.572279691696167, 17.728708267211914, 20.163843154907227, -5.43695592880249, 
459, 2512505678, 0.5254068, 0.47066927, -0.45259118, 0.54550856, 10.972405433654785, 1.9420554637908936, 2.5395309925079346, 4.195703029632568, 25.28435516357422, 0.23458728194236755, 
460, 2512522345, 0.5277784, 0.4673002, -0.4513926, 0.5471064, 15.922998428344727, 2.114942789077759, 1.5691055059432983, -10.856924057006836, 29.63123893737793, 5.497337818145752, 
461, 2512539012, 0.5304776, 0.4635417, -0.45028368, 0.548605, 21.022661209106445, 1.488343596458435, -0.06254544109106064, -13.978196144104004, 31.480831146240234, 5.42768669128418, 
462, 2512555679, 0.5341719, 0.4607893, -0.4464505, 0.5504688, 22.75831413269043, 0.1896558254957199, -1.4693901538848877, -2.0863022804260254, 41.92185974121094, -8.773423194885254, 
463, 2512572346, 0.53847796, 0.4607414, -0.43813235, 0.55299103, 18.678424835205078, -0.8762525320053101, -1.955174207687378, 24.89438819885254, 52.212703704833984, -31.182405471801758, 
464, 2512589013, 0.54250395, 0.4635812, -0.4281323, 0.55451334, 15.363985061645508, -1.1270570755004883, -1.158034324645996, 39.848445892333984, 43.542938232421875, -47.86703109741211, 
465, 2512605680, 0.5468278, 0.46705207, -0.41832596, 0.55483806, 15.096220016479492, -0.9996292591094971, 0.29377731680870056, 36.98450469970703, 37.54718017578125, -54.738624572753906, 
466, 2512622347, 0.55153584, 0.46969843, -0.40830293, 0.5554102, 14.372232437133789, -1.2079174518585205, 1.0747112035751343, 34.1831169128418, 43.45915603637695, -53.62977981567383, 
467, 2512639014, 0.5547948, 0.47282335, -0.3970308, 0.55768055, 11.580850601196289, -1.2420430183410645, 0.7578235864639282, 50.212554931640625, 47.823341369628906, -47.073646545410156, 
468, 2512655681, 0.5555064, 0.47727036, -0.3850075, 0.5616003, 8.334309577941895, -0.14014402031898499, 0.24974316358566284, 70.91683959960938, 44.06702423095703, -37.1080207824707, 
469, 2512672348, 0.5549542, 0.48191008, -0.373936, 0.56565064, 5.632063865661621, 1.2061820030212402, -0.09246176481246948, 72.46336364746094, 36.80738830566406, -29.139442443847656, 
470, 2512689015, 0.55483353, 0.48523918, -0.3651452, 0.5686578, 3.411092758178711, 1.3951919078826904, -0.07358966767787933, 54.470184326171875, 30.884984970092773, -23.871753692626953, 
471, 2512705682, 0.5551807, 0.487329, -0.35822496, 0.5709288, 2.172208070755005, 0.7832829356193542, 0.09523050487041473, 39.00893020629883, 27.330690383911133, -19.150527954101562, 
472, 2512722349, 0.55521953, 0.48889872, -0.35226214, 0.5732546, 2.249192237854004, 0.3598082363605499, 0.3180604875087738, 34.427040100097656, 25.150962829589844, -13.243837356567383, 
473, 2512739016, 0.55444205, 0.49037868, -0.34696907, 0.57596487, 3.127422571182251, 0.12166868150234222, 0.15115562081336975, 35.11643600463867, 22.269550323486328, -6.097724437713623, 
474, 2512755683, 0.5523292, 0.49208978, -0.34276256, 0.57904583, 4.702259063720703, 0.987648069858551, 0.6856514811515808, 37.08012390136719, 15.290894508361816, 3.701619863510132, 
475, 2512772350, 0.5499055, 0.49310577, -0.34118843, 0.5814131, 7.366754531860352, 2.388730049133301, 1.6025887727737427, 23.328475952148438, 4.925769805908203, 12.770625114440918, 
476, 2512789017, 0.5481334, 0.49260414, -0.34268397, 0.582631, 9.696346282958984, 2.8513340950012207, 2.2233543395996094, 0.41105878353118896, -2.974989652633667, 19.80083656311035, 
477, 2512805684, 0.5465586, 0.491438, -0.34659702, 0.58278036, 11.337732315063477, 2.4390931129455566, 2.5144102573394775, -14.965226173400879, -12.572787284851074, 24.75326156616211, 
478, 2512822351, 0.54437447, 0.49079585, -0.351597, 0.58237064, 12.094793319702148, 1.9995174407958984, 2.984868288040161, -16.62204360961914, -22.092214584350586, 27.528520584106445, 
479, 2512839018, 0.5417425, 0.49131227, -0.3568739, 0.5811784, 12.08734130859375, 1.5704994201660156, 3.4862427711486816, -13.769620895385742, -31.48818588256836, 24.530166625976562, 
480, 2512855685, 0.5387829, 0.49277958, -0.36182666, 0.57962304, 11.887126922607422, 1.3130011558532715, 3.9534554481506348, -8.707649230957031, -36.116920471191406, 21.05652618408203, 
481, 2512872352, 0.5353349, 0.49509168, -0.36687464, 0.5776711, 11.79284954071045, 1.8878288269042969, 4.408612251281738, -5.277250289916992, -42.40966796875, 19.750171661376953, 
482, 2512889019, 0.5327739, 0.4967148, -0.3734589, 0.57441705, 12.124212265014648, 3.1167078018188477, 4.9125847816467285, -20.208383560180664, -47.54722213745117, 18.406646728515625, 
483, 2512905686, 0.5328534, 0.49538386, -0.3828533, 0.5692853, 11.944046020507812, 3.6591951847076416, 5.1495819091796875, -55.958404541015625, -45.84678649902344, 18.307653427124023, 
484, 2512922353, 0.53541815, 0.49104592, -0.3942998, 0.56278706, 10.97359561920166, 2.9408037662506104, 4.644988536834717, -87.06305694580078, -39.76035690307617, 18.512582778930664, 
485, 2512939020, 0.5391159, 0.48571417, -0.4055043, 0.5558797, 9.173176765441895, 1.460785150527954, 3.7612218856811523, -94.71492004394531, -33.38523483276367, 14.524733543395996, 
486, 2512955687, 0.54282624, 0.48126605, -0.41437945, 0.5495569, 6.572859764099121, 0.20045256614685059, 3.293130874633789, -80.9397201538086, -26.18686866760254, 6.4067583084106445, 
487, 2512972354, 0.54577357, 0.47870868, -0.4202272, 0.54440653, 3.9127752780914307, -0.46552467346191406, 2.9501450061798096, -56.56930160522461, -20.366252899169922, -1.749708890914917, 
488, 2512989021, 0.5479703, 0.4777984, -0.4240586, 0.5400109, 2.6406142711639404, -0.00430483091622591, 2.838174819946289, -38.180416107177734, -18.6907901763916, -7.5212883949279785, 
489, 2513005688, 0.5506596, 0.47667122, -0.42792222, 0.53520197, 3.266801118850708, 1.1045210361480713, 2.9351978302001953, -41.93364334106445, -17.96845245361328, -10.179146766662598, 
490, 2513022355, 0.5547634, 0.4733355, -0.43354762, 0.52936536, 5.855612277984619, 1.7161520719528198, 3.102064371109009, -64.43218994140625, -15.761539459228516, -6.9989013671875, 
491, 2513039022, 0.5599916, 0.46712345, -0.44080886, 0.5233477, 10.093977928161621, 1.9760246276855469, 3.3845152854919434, -85.55451202392578, -8.812464714050293, 2.124692916870117, 
492, 2513055689, 0.5661532, 0.45859763, -0.4480688, 0.51806664, 14.424267768859863, 1.270851969718933, 2.2991762161254883, -95.2239990234375, 4.674698829650879, 8.616698265075684, 
493, 2513072356, 0.5717115, 0.4512232, -0.4522833, 0.5147655, 16.60614776611328, -0.84214848279953, -0.0912831723690033, -71.89395904541016, 16.802228927612305, 5.319399356842041, 
494, 2513089023, 0.5753746, 0.4486802, -0.45086387, 0.514152, 15.85106086730957, -1.7723833322525024, -1.2255825996398926, -18.72698974609375, 24.33354949951172, -9.941855430603027, 
495, 2513105690, 0.578129, 0.45022932, -0.4447116, 0.51506513, 15.504291534423828, -1.1572552919387817, -1.229292631149292, 21.72813606262207, 30.546283721923828, -28.01358413696289, 
496, 2513122357, 0.5807141, 0.4534336, -0.43648615, 0.5163807, 15.819039344787598, -0.9523921608924866, -0.8703309893608093, 37.40131759643555, 33.72023391723633, -37.32478332519531, 
497, 2513139024, 0.5832159, 0.457181, -0.4271025, 0.5181008, 16.16371726989746, -0.8639540076255798, -0.13908915221691132, 45.15061950683594, 37.4911994934082, -40.68578338623047, 
498, 2513155691, 0.585113, 0.46127522, -0.41621095, 0.5211876, 14.810492515563965, -0.5721280574798584, 0.309013307094574, 57.82421112060547, 44.88053512573242, -38.845176696777344, 
499, 2513172358, 0.58565634, 0.46649867, -0.4037642, 0.52569973, 11.483352661132812, -0.497309148311615, 0.030061930418014526, 76.3083724975586, 47.78720474243164, -36.45856857299805, 
500, 2513189025, 0.5849986, 0.4729483, -0.39023352, 0.530862, 7.5590410232543945, -0.0857149288058281, -0.3569571375846863, 90.81560516357422, 46.515377044677734, -36.41237258911133, 
501, 2513205692, 0.58460957, 0.478688, -0.37748915, 0.5353423, 3.897674083709717, 0.186056450009346, -0.3461505174636841, 82.379638671875, 44.48483657836914, -35.698055267333984, 
502, 2513222359, 0.58472687, 0.48287418, -0.36659417, 0.5390139, 1.413056492805481, -0.42549875378608704, -0.25353071093559265, 65.55516815185547, 41.443016052246094, -30.707233428955078, 
503, 2513239026, 0.5846666, 0.48626328, -0.35684824, 0.542561, 0.3487589657306671, -1.0703213214874268, -0.14990869164466858, 58.36395263671875, 38.92723083496094, -24.743072509765625, 
504, 2513255693, 0.5833601, 0.48970124, -0.34771094, 0.5467915, 0.8221452236175537, -0.7642331123352051, 0.32321134209632874, 62.13300323486328, 35.53120040893555, -15.454822540283203, 
505, 2513272360, 0.58083576, 0.49271038, -0.33999506, 0.55160666, 3.269524097442627, 0.7754022479057312, 0.9004696011543274, 60.56885528564453, 30.500728607177734, -2.74086594581604, 
506, 2513289027, 0.57764983, 0.49424094, -0.3352448, 0.55646896, 6.4959001541137695, 2.2809953689575195, 1.428695797920227, 45.768009185791016, 22.880718231201172, 13.452858924865723, 
507, 2513305694, 0.57432604, 0.49357405, -0.33445168, 0.5609605, 10.343585968017578, 2.9153125286102295, 1.6136685609817505, 21.51020622253418, 14.000429153442383, 31.026517868041992, 
508, 2513322361, 0.5706733, 0.4917511, -0.33629543, 0.56517106, 13.07949447631836, 2.043254852294922, 1.102742314338684, 7.242705345153809, 6.35653829574585, 42.80051803588867, 
509, 2513339028, 0.56448, 0.4925277, -0.33812517, 0.5696053, 14.279563903808594, 1.2037482261657715, 1.1455832719802856, 26.60266876220703, -8.77029800415039, 47.4835205078125, 
510, 2513355695, 0.5556605, 0.4972064, -0.33895373, 0.5737053, 15.164051055908203, 1.6617149114608765, 1.9344325065612793, 53.78932571411133, -27.35993766784668, 43.98772048950195, 
511, 2513372362, 0.5467744, 0.5032939, -0.33991784, 0.5763585, 15.936455726623535, 2.4041621685028076, 2.9646544456481934, 55.49810028076172, -38.5012321472168, 35.88630676269531, 
512, 2513389029, 0.5397781, 0.5081422, -0.34285152, 0.57696104, 14.66910457611084, 2.4036314487457275, 4.28615140914917, 31.70773696899414, -43.654090881347656, 30.392406463623047, 
513, 2513405696, 0.5354896, 0.51045734, -0.34837767, 0.5756016, 13.12906551361084, 2.429818630218506, 5.276630878448486, -2.0562005043029785, -43.705238342285156, 27.395063400268555, 
514, 2513422363, 0.53412217, 0.50983524, -0.35631707, 0.57255554, 12.236946105957031, 2.734966278076172, 5.2021260261535645, -36.70164489746094, -39.91814422607422, 25.136489868164062, 
515, 2513439030, 0.53532785, 0.5068164, -0.36571553, 0.5681667, 11.498101234436035, 2.9530680179595947, 4.409797668457031, -63.55019760131836, -34.280250549316406, 21.077594757080078, 
516, 2513455697, 0.5384724, 0.50268626, -0.37554106, 0.56242603, 10.41138744354248, 2.545764207839966, 3.3692967891693115, -79.45986938476562, -31.37903594970703, 12.833209037780762, 
517, 2513472364, 0.5424525, 0.4987776, -0.3845731, 0.5559403, 9.3671236038208, 1.529787302017212, 3.0384521484375, -80.38067626953125, -29.739015579223633, 3.548628807067871, 
518, 2513489031, 0.5456632, 0.4963301, -0.39160803, 0.5500468, 8.340005874633789, 0.48742419481277466, 3.3512990474700928, -63.08819580078125, -27.900232315063477, -2.0051300525665283, 
519, 2513505698, 0.5471669, 0.4958357, -0.3964455, 0.5455148, 7.631285190582275, 0.5446385145187378, 4.051390171051025, -37.952362060546875, -27.01812744140625, -3.2029247283935547, 
520, 2513522365, 0.5478951, 0.4958049, -0.40021393, 0.5420494, 7.1823506355285645, 1.1185065507888794, 4.798630714416504, -26.6400089263916, -23.250303268432617, -1.1969188451766968, 
521, 2513539032, 0.5488706, 0.49511313, -0.40350032, 0.5392509, 6.27719259262085, 1.1134066581726074, 4.872352123260498, -26.33434295654297, -16.06391143798828, 0.5695130825042725, 
522, 2513555699, 0.5498819, 0.4943957, -0.40614086, 0.5368915, 5.033642292022705, 1.0660649538040161, 4.362612247467041, -22.93541145324707, -11.98782730102539, -0.03176622465252876, 
523, 2513572366, 0.55100256, 0.49364075, -0.40901718, 0.5342471, 5.016537666320801, 1.9918303489685059, 4.085402488708496, -25.110244750976562, -13.450233459472656, -0.6059790253639221, 
524, 2513589033, 0.553507, 0.49085546, -0.4139314, 0.5304262, 6.893006324768066, 3.207714080810547, 4.0888800621032715, -48.285945892333984, -13.85958480834961, 2.494673728942871, 
525, 2513605700, 0.55814856, 0.4845212, -0.42141643, 0.52546924, 9.97221565246582, 3.6639201641082764, 3.9522225856781006, -81.616455078125, -8.496341705322266, 9.180159568786621, 
526, 2513622367, 0.5642354, 0.47516403, -0.43015543, 0.52040756, 13.505276679992676, 3.150815963745117, 3.172693967819214, -102.86862182617188, 1.4137340784072876, 16.519668579101562, 
527, 2513639034, 0.5701888, 0.46532977, -0.43743056, 0.51672757, 16.781322479248047, 1.7157129049301147, 2.004742383956909, -94.961181640625, 12.89969253540039, 19.003353118896484, 
528, 2513655701, 0.5745932, 0.4586842, -0.43960077, 0.5159485, 17.922698974609375, 0.585243284702301, 0.722177267074585, -50.64644241333008, 26.213624954223633, 9.955849647521973, 
529, 2513672368, 0.57739013, 0.4567791, -0.4360696, 0.5175103, 17.365522384643555, 1.2611035108566284, 0.3208763599395752, 0.44693073630332947, 34.47703170776367, -7.414018630981445, 
530, 2513689035, 0.5803178, 0.45741653, -0.42981482, 0.51890314, 17.970853805541992, 2.3021039962768555, 0.5407373309135437, 19.30922508239746, 36.14472579956055, -24.72830581665039, 
531, 2513705702, 0.58478844, 0.45811373, -0.42296213, 0.5189002, 18.452293395996094, 2.3671984672546387, 0.9495450854301453, 12.691794395446777, 38.5277099609375, -37.849971771240234, 
532, 2513722369, 0.5908771, 0.45806536, -0.4157944, 0.5178376, 17.681398391723633, 1.948198676109314, 1.3441812992095947, 2.6280417442321777, 43.85783386230469, -46.70205307006836, 
533, 2513739036, 0.59763074, 0.4579589, -0.40769634, 0.5166188, 16.4736385345459, 1.712157130241394, 1.5558494329452515, 3.1519689559936523, 49.28675079345703, -52.46873474121094, 
534, 2513755703, 0.604508, 0.45869985, -0.3982396, 0.5153348, 14.749876976013184, 1.7933701276779175, 1.3833125829696655, 10.880085945129395, 52.02946853637695, -59.83627700805664, 
535, 2513772370, 0.611591, 0.46022895, -0.38809657, 0.5133487, 12.514293670654297, 1.9653836488723755, 1.1111536026000977, 14.01260757446289, 50.468284606933594, -67.81012725830078, 
536, 2513789037, 0.61916083, 0.46168453, -0.37845203, 0.5101581, 10.5081787109375, 1.881744384765625, 0.9781748652458191, 7.178211212158203, 46.145076751708984, -72.82352447509766, 
537, 2513805704, 0.62731814, 0.46254185, -0.3697527, 0.5057767, 8.816131591796875, 1.4374464750289917, 1.0146372318267822, -3.599043607711792, 42.00305938720703, -75.37976837158203, 
538, 2513822371, 0.6358355, 0.4626689, -0.3615732, 0.500915, 7.800027370452881, 0.8123706579208374, 1.1842795610427856, -11.036492347717285, 41.67809295654297, -75.23609924316406, 
539, 2513839038, 0.64401424, 0.46234414, -0.35311192, 0.4967855, 7.264939308166504, 0.398057222366333, 1.0792466402053833, -9.184901237487793, 45.95268630981445, -70.668212890625, 
540, 2513855705, 0.6514323, 0.46207234, -0.34423408, 0.49358705, 6.993892192840576, 0.6135782599449158, 0.7277072072029114, -2.3263213634490967, 48.90143585205078, -65.22142791748047, 
541, 2513872372, 0.6580297, 0.46203417, -0.3351331, 0.49112868, 6.946061611175537, 1.0327597856521606, 0.4251358211040497, 3.5174806118011475, 49.43988800048828, -60.515899658203125, 
542, 2513889039, 0.6639547, 0.46217114, -0.32612994, 0.48908252, 6.947736740112305, 1.2409298419952393, 0.2718714475631714, 6.984631061553955, 48.16476821899414, -56.51510238647461, 
543, 2513905706, 0.6693352, 0.4623786, -0.31743214, 0.4872714, 7.0507493019104, 1.167236566543579, 0.3813777565956116, 8.49367904663086, 46.0699462890625, -52.82560348510742, 
544, 2513922373, 0.67443603, 0.46223697, -0.30924857, 0.485632, 7.033243179321289, 1.0527371168136597, 0.8119199872016907, 6.145581245422363, 44.727745056152344, -48.8393669128418, 
545, 2513939040, 0.67958, 0.46129918, -0.301801, 0.48403546, 7.056553840637207, 1.0195854902267456, 1.3852328062057495, 0.714386522769928, 44.532073974609375, -44.41529846191406, 
546, 2513955707, 0.6844259, 0.45986834, -0.29503107, 0.48274124, 7.375563621520996, 1.205272912979126, 1.8004729747772217, -2.497325897216797, 43.274253845214844, -38.95749282836914, 
547, 2513972374, 0.6886794, 0.45841092, -0.28902438, 0.48171076, 7.956098556518555, 1.4808241128921509, 2.0131795406341553, -3.1560840606689453, 39.238433837890625, -33.500755310058594, 
548, 2513989041, 0.6920576, 0.4574013, -0.28394046, 0.48085177, 8.648481369018555, 1.7746223211288452, 2.2288620471954346, -0.9665972590446472, 32.21670150756836, -27.77659034729004, 
549, 2514005708, 0.6942255, 0.45720732, -0.27992022, 0.48026782, 9.30813217163086, 1.8981314897537231, 2.479862689971924, 3.8380887508392334, 23.022319793701172, -20.683420181274414, 
550, 2514022375, 0.6949837, 0.45803842, -0.27704692, 0.48004535, 9.663853645324707, 2.015462636947632, 2.774017095565796, 9.924833297729492, 12.538125038146973, -12.768851280212402, 
551, 2514039042, 0.69461906, 0.45953614, -0.27540636, 0.4800858, 9.531645774841309, 2.0809781551361084, 3.289490222930908, 13.485851287841797, 3.3521411418914795, -5.000658988952637, 
552, 2514055709, 0.69314134, 0.46167463, -0.27479467, 0.48052028, 9.180957794189453, 2.0308351516723633, 3.5978078842163086, 17.08306121826172, -4.7002105712890625, 2.381164073944092, 
553, 2514072376, 0.69066423, 0.46452102, -0.27508333, 0.48117813, 8.91048812866211, 2.161522626876831, 3.6705329418182373, 20.958433151245117, -12.549386978149414, 8.190062522888184, 
554, 2514089043, 0.6877876, 0.46763867, -0.2763853, 0.48153248, 8.623882293701172, 2.375898599624634, 3.7480621337890625, 20.620161056518555, -19.498504638671875, 11.286324501037598, 
555, 2514105710, 0.68483037, 0.4704308, -0.27879795, 0.48163697, 8.479358673095703, 2.7403807640075684, 3.788395881652832, 14.015473365783691, -25.188344955444336, 13.951136589050293, 
556, 2514122377, 0.6823034, 0.47207066, -0.28292215, 0.48121378, 8.725481033325195, 3.090985059738159, 3.7985565662384033, 0.4274265766143799, -30.36226463317871, 17.7280216217041, 
557, 2514139044, 0.6805466, 0.47206667, -0.28898025, 0.48010412, 9.682287216186523, 3.0928549766540527, 3.79080867767334, -15.835124015808105, -33.951656341552734, 22.22652816772461, 
558, 2514155711, 0.6791105, 0.47100195, -0.29594833, 0.47893727, 10.48009967803955, 2.6771798133850098, 3.6828784942626953, -26.487995147705078, -34.95109558105469, 25.23515510559082, 
559, 2514172378, 0.67770153, 0.46979153, -0.30285075, 0.47780553, 10.345999717712402, 2.139221429824829, 3.51180100440979, -26.594703674316406, -33.83876037597656, 25.54063606262207, 
560, 2514189045, 0.6758724, 0.46930608, -0.30878416, 0.47707516, 9.738395690917969, 1.9201914072036743, 3.4137580394744873, -18.781618118286133, -31.665239334106445, 23.72504997253418, 
561, 2514205712, 0.6738452, 0.46962738, -0.3137486, 0.47638726, 9.064971923828125, 2.00256085395813, 3.325312376022339, -10.382268905639648, -29.778799057006836, 20.039873123168945, 
562, 2514222379, 0.67197806, 0.47032818, -0.3180593, 0.4754738, 8.571004867553711, 2.1778666973114014, 3.3360366821289062, -7.992620944976807, -28.559749603271484, 15.3283109664917, 
563, 2514239046, 0.6707841, 0.47051376, -0.32241872, 0.47403792, 8.283663749694824, 2.278592109680176, 3.3232290744781494, -13.13621997833252, -27.039472579956055, 12.284586906433105, 
564, 2514255713, 0.67013794, 0.4699924, -0.32718223, 0.47220135, 8.174674034118652, 2.31868577003479, 3.176802635192871, -20.827016830444336, -26.869949340820312, 11.331364631652832, 
565, 2514272380, 0.66973513, 0.46906438, -0.33257967, 0.46991947, 8.264432907104492, 2.448037624359131, 3.115271806716919, -26.173072814941406, -29.207080841064453, 11.609010696411133, 
566, 2514289047, 0.6695235, 0.46764195, -0.33868194, 0.46727303, 8.467175483703613, 2.5996036529541016, 3.2397520542144775, -31.89692497253418, -31.509828567504883, 12.81270980834961, 
567, 2514305714, 0.66918886, 0.46586072, -0.34540403, 0.4646033, 8.606201171875, 2.7614707946777344, 3.4514095783233643, -35.49113464355469, -33.67689514160156, 15.821431159973145, 
568, 2514322381, 0.6688068, 0.46329433, -0.3532257, 0.46183074, 8.962653160095215, 2.92506742477417, 3.514683246612549, -42.6303825378418, -36.65081024169922, 20.917835235595703, 
569, 2514339048, 0.6681873, 0.459928, -0.36216477, 0.4591609, 9.39045524597168, 2.8594844341278076, 3.5780651569366455, -48.95630645751953, -39.54071807861328, 27.61431884765625, 
570, 2514355715, 0.66737926, 0.45585942, -0.37197283, 0.4565452, 9.643391609191895, 2.8764100074768066, 3.6750543117523193, -54.3551025390625, -41.660945892333984, 32.91209030151367, 
571, 2514372382, 0.666685, 0.45100406, -0.38257283, 0.45361283, 9.402666091918945, 2.860004186630249, 3.687406063079834, -61.35709762573242, -43.457786560058594, 35.68760681152344, 
572, 2514389049, 0.6662548, 0.44550303, -0.39369306, 0.45015275, 9.179387092590332, 2.6727137565612793, 3.569413423538208, -68.2687759399414, -44.814544677734375, 35.72573471069336, 
573, 2514405716, 0.6661134, 0.43955737, -0.40509015, 0.44607693, 9.27106761932373, 2.6423938274383545, 3.546516180038452, -73.32582092285156, -45.711753845214844, 34.201141357421875, 
574, 2514422383, 0.6665164, 0.4330023, -0.4165664, 0.44129062, 9.394987106323242, 2.5376248359680176, 3.557915687561035, -80.14200592041016, -44.878517150878906, 31.183523178100586, 
575, 2514439050, 0.66762805, 0.4258112, -0.42791802, 0.43571067, 9.476597785949707, 2.3284730911254883, 3.472421407699585, -87.07698059082031, -42.736263275146484, 26.846323013305664, 
576, 2514455717, 0.66938186, 0.41839662, -0.43862337, 0.4295135, 9.477128982543945, 2.183076858520508, 3.3883841037750244, -89.89088439941406, -39.03654861450195, 20.857669830322266, 
577, 2514472384, 0.6717545, 0.4109809, -0.4484279, 0.42279196, 9.309868812561035, 2.2002220153808594, 3.246687412261963, -90.93829345703125, -34.617313385009766, 13.936548233032227, 
578, 2514489051, 0.6747913, 0.40348527, -0.45750806, 0.4153827, 9.14160442352295, 2.2484357357025146, 3.0690102577209473, -92.91622924804688, -30.874719619750977, 7.135824680328369, 
579, 2514505718, 0.6784007, 0.39576706, -0.4661903, 0.40719476, 9.242518424987793, 2.360588788986206, 2.9203872680664062, -97.23126220703125, -28.834505081176758, 1.3928626775741577, 
580, 2514522385, 0.6825378, 0.38770515, -0.47476017, 0.39803213, 9.47950553894043, 2.434223175048828, 2.861773729324341, -102.9106674194336, -28.296781539916992, -3.7825331687927246, 
581, 2514539052, 0.6871912, 0.37924856, -0.4833135, 0.3877458, 9.689475059509277, 2.5026700496673584, 2.972473621368408, -109.4337387084961, -28.391305923461914, -9.104722023010254, 
582, 2514555719, 0.6923946, 0.37030068, -0.49175447, 0.3763573, 9.928322792053223, 2.510263681411743, 3.1742331981658936, -116.52478790283203, -27.60177230834961, -14.408273696899414, 
583, 2514572386, 0.698104, 0.3608655, -0.49979818, 0.3641821, 10.12978458404541, 2.3591463565826416, 3.152459144592285, -122.78013610839844, -24.922086715698242, -19.076248168945312, 
584, 2514589053, 0.7042353, 0.35117644, -0.50718594, 0.3514119, 10.165919303894043, 2.230380058288574, 2.967153310775757, -125.41088104248047, -21.167112350463867, -23.711244583129883, 
585, 2514605720, 0.7107272, 0.3413493, -0.5138438, 0.3381011, 10.013254165649414, 2.125471353530884, 2.724308967590332, -125.70501708984375, -17.141996383666992, -28.10248565673828, 
586, 2514622387, 0.71743345, 0.33169308, -0.5195448, 0.32456487, 9.715649604797363, 2.022402763366699, 2.4564590454101562, -124.04790496826172, -12.660969734191895, -32.561309814453125, 
587, 2514639054, 0.7243268, 0.3223788, -0.52417934, 0.31089994, 9.30251407623291, 1.9012387990951538, 2.2141363620758057, -120.75489044189453, -7.780810832977295, -37.22101974487305, 
588, 2514655721, 0.73125917, 0.31363136, -0.5276515, 0.29745504, 8.937132835388184, 1.8490275144577026, 2.04219651222229, -115.84521484375, -2.7518601417541504, -41.09840393066406, 
589, 2514672388, 0.7382035, 0.30530262, -0.5302748, 0.28399774, 8.900457382202148, 1.8584299087524414, 1.9679622650146484, -111.27283477783203, 0.7988300919532776, -44.30603790283203, 
590, 2514689055, 0.7450654, 0.2974292, -0.53202343, 0.2708588, 9.013951301574707, 1.8090420961380005, 1.9098347425460815, -106.57048034667969, 4.604133129119873, -46.18421173095703, 
591, 2514705722, 0.75176096, 0.28999507, -0.5330915, 0.25801533, 9.207448959350586, 1.7015814781188965, 1.8646156787872314, -99.71300506591797, 7.593562602996826, -46.82093811035156, 
592, 2514722389, 0.7580555, 0.2833856, -0.5334472, 0.24592426, 9.441035270690918, 1.72141695022583, 1.8879743814468384, -90.42662048339844, 9.88807487487793, -46.57958221435547, 
593, 2514739056, 0.7638167, 0.27767184, -0.5332395, 0.23481528, 9.838569641113281, 1.7569835186004639, 1.9332170486450195, -80.7688217163086, 11.167243003845215, -45.096343994140625, 
594, 2514755723, 0.76912266, 0.27282116, -0.5324506, 0.22475643, 10.266704559326172, 1.6700252294540405, 1.8822749853134155, -70.34282684326172, 13.2168550491333, -43.03505325317383, 
595, 2514772390, 0.77391213, 0.26917836, -0.53098667, 0.21600106, 10.210162162780762, 1.6257365942001343, 1.8751022815704346, -57.31622314453125, 15.458154678344727, -41.07374954223633, 
596, 2514789057, 0.7780392, 0.2670027, -0.5290563, 0.20848027, 9.742469787597656, 1.6027463674545288, 1.7206072807312012, -43.191036224365234, 15.62200927734375, -39.76444625854492, 
597, 2514805724, 0.7814296, 0.26625827, -0.5268803, 0.2021671, 9.084025382995605, 1.909687876701355, 1.715235948562622, -30.999500274658203, 14.09445858001709, -38.4164924621582, 
598, 2514822391, 0.78424394, 0.2657576, -0.52524424, 0.19609429, 8.678279876708984, 2.3775134086608887, 1.6742503643035889, -27.788299560546875, 9.3786039352417, -35.97587203979492, 
599, 2514839058, 0.7864807, 0.2646799, -0.52468914, 0.1899849, 8.542607307434082, 2.743192195892334, 1.6207979917526245, -32.35300064086914, 1.9653724431991577, -31.64900779724121, 
600, 2514855725, 0.78835076, 0.26208356, -0.525569, 0.1832825, 8.494991302490234, 3.056018829345703, 1.6252379417419434, -42.86746597290039, -5.955083847045898, -25.920108795166016, 
601, 2514872392, 0.78990144, 0.25765097, -0.5279186, 0.175994, 8.432291030883789, 3.258099317550659, 1.665737509727478, -56.34220886230469, -13.841822624206543, -19.44753074645996, 
602, 2514889059, 0.7912414, 0.25107858, -0.5316651, 0.16801436, 8.37858772277832, 3.3290939331054688, 1.7340632677078247, -70.58621215820312, -20.53155517578125, -12.27005386352539, 
603, 2514905726, 0.7922508, 0.24284601, -0.53648704, 0.15983163, 8.339552879333496, 3.345305919647217, 1.7346363067626953, -82.8034439086914, -26.45194435119629, -5.662492275238037, 
604, 2514922393, 0.7929519, 0.23307283, -0.5422436, 0.15124917, 8.375533103942871, 3.2461659908294678, 1.6423262357711792, -92.75142669677734, -31.553462982177734, -0.09487263858318329, 
605, 2514939060, 0.79318166, 0.22236069, -0.54871345, 0.1425914, 8.487555503845215, 3.051461696624756, 1.561984896659851, -98.23158264160156, -36.36653518676758, 4.615939140319824, 
606, 2514955727, 0.7928252, 0.21123445, -0.55571353, 0.13412988, 8.674211502075195, 3.0082390308380127, 1.5045890808105469, -99.5447998046875, -40.7989387512207, 8.594188690185547, 
607, 2514972394, 0.7919634, 0.19971679, -0.563076, 0.12590739, 8.946029663085938, 3.117861747741699, 1.4962785243988037, -100.28099822998047, -43.98021697998047, 12.431379318237305, 
608, 2514989061, 0.79069966, 0.18793325, -0.5705768, 0.11797199, 9.183246612548828, 3.2042043209075928, 1.5161837339401245, -100.63259887695312, -45.7464714050293, 15.441813468933105, 
609, 2515005728, 0.789179, 0.1760985, -0.57794935, 0.11027478, 9.339969635009766, 3.1687862873077393, 1.5110117197036743, -99.47222900390625, -45.691009521484375, 17.02579689025879, 
610, 2515022395, 0.7875538, 0.1644917, -0.58492243, 0.102798715, 9.388389587402344, 3.1516664028167725, 1.4326990842819214, -96.57319641113281, -43.786224365234375, 17.04155731201172, 
611, 2515039062, 0.7858721, 0.1533981, -0.59141576, 0.0954024, 9.389425277709961, 3.247739553451538, 1.3651740550994873, -92.90425109863281, -41.66556167602539, 14.975167274475098, 
612, 2515055729, 0.7841871, 0.14265934, -0.5975042, 0.08767997, 9.440750122070312, 3.365638017654419, 1.3112515211105347, -92.32811737060547, -40.10975646972656, 11.289340019226074, 
613, 2515072396, 0.78256476, 0.13195816, -0.6032408, 0.079247884, 9.500679016113281, 3.400482177734375, 1.2942423820495605, -94.75516510009766, -38.65694046020508, 6.983183860778809, 
614, 2515089063, 0.781106, 0.12110866, -0.6085318, 0.06996771, 9.669779777526855, 3.4109604358673096, 1.356689453125, -99.22746276855469, -36.30401611328125, 2.503643751144409, 
615, 2515105730, 0.77988493, 0.11015921, -0.6132532, 0.05970929, 9.809591293334961, 3.338268518447876, 1.3213328123092651, -102.70672607421875, -32.90675354003906, -2.6334519386291504, 
616, 2515122397, 0.77878314, 0.099766605, -0.6173668, 0.049009, 9.910257339477539, 3.244659185409546, 1.2821118831634521, -102.40585327148438, -29.82001495361328, -8.07267951965332, 
617, 2515139064, 0.77776843, 0.09006676, -0.62091285, 0.037836116, 10.010612487792969, 3.231840133666992, 1.2845091819763184, -100.25212097167969, -26.94400978088379, -13.866111755371094, 
618, 2515155731, 0.77680945, 0.08098583, -0.6239619, 0.026078288, 10.065152168273926, 3.2909555435180664, 1.388843059539795, -99.05435943603516, -24.552446365356445, -19.871204376220703, 
619, 2515172398, 0.7759482, 0.072322085, -0.62648934, 0.013604097, 10.030747413635254, 3.2427096366882324, 1.448768138885498, -100.3218002319336, -21.877105712890625, -25.876405715942383, 
620, 2515189065, 0.7751976, 0.06400307, -0.6284681, 4.100238E-4, 9.882104873657227, 3.1540980339050293, 1.4295274019241333, -101.375732421875, -18.85577964782715, -31.417001724243164, 
621, 2515205732, 0.7745182, 0.05592253, -0.62993044, -0.013489344, 9.7633056640625, 3.1412718296051025, 1.414910078048706, -102.99967956542969, -16.09971809387207, -36.37882995605469, 
622, 2515222399, 0.7738899, 0.048199408, -0.6308706, -0.027816322, 9.73115348815918, 3.078669309616089, 1.34233558177948, -103.37622833251953, -13.282676696777344, -40.45779037475586, 
623, 2515239066, 0.7732211, 0.04080889, -0.63139457, -0.042485394, 9.681055068969727, 3.1148080825805664, 1.266483187675476, -103.01155090332031, -11.291184425354004, -43.8185920715332, 
624, 2515255733, 0.772481, 0.033398442, -0.63154775, -0.05749209, 9.938511848449707, 3.1937475204467773, 1.2357617616653442, -104.76278686523438, -9.754742622375488, -45.65638732910156, 
625, 2515272400, 0.77175826, 0.025896493, -0.6311982, -0.072853535, 10.13701057434082, 3.0323848724365234, 1.1561484336853027, -107.10397338867188, -7.1568684577941895, -47.260616302490234, 
626, 2515289067, 0.77094513, 0.018638488, -0.6304609, -0.088405184, 9.94666576385498, 2.9361400604248047, 1.0550106763839722, -106.73512268066406, -5.406618118286133, -49.41488265991211, 
627, 2515305734, 0.7698879, 0.011324123, -0.6294842, -0.10437555, 9.70534896850586, 3.081035852432251, 1.0669249296188354, -108.89488220214844, -5.285323619842529, -51.54478073120117, 
628, 2515322401, 0.7685339, 0.0032610695, -0.62825114, -0.121019945, 9.725349426269531, 3.206279993057251, 1.2109529972076416, -116.07894134521484, -5.839991092681885, -52.12808609008789, 
629, 2515339068, 0.76697713, -0.0057296613, -0.62658376, -0.13822505, 10.028152465820312, 3.18416690826416, 1.2662055492401123, -123.80552673339844, -5.230611324310303, -51.26363754272461, 
630, 2515355735, 0.7652661, -0.015445471, -0.62440574, -0.15571426, 10.270126342773438, 3.109067678451538, 1.2409347295761108, -129.2130889892578, -3.8761422634124756, -49.72726821899414, 
631, 2515372402, 0.76344985, -0.025613153, -0.62171686, -0.17307954, 10.488134384155273, 3.010924816131592, 1.1344043016433716, -131.62222290039062, -2.156519889831543, -47.1909294128418, 
632, 2515389069, 0.76157737, -0.035816196, -0.618562, -0.18999572, 10.401330947875977, 2.8996996879577637, 0.9842233657836914, -130.4937286376953, -0.09578511118888855, -44.675052642822266, 
633, 2515405736, 0.7595395, -0.045941953, -0.6152368, -0.20608987, 10.360106468200684, 2.8825974464416504, 0.8368892669677734, -126.73680877685547, 3.0096800765022635E-4, -40.84409713745117, 
634, 2515422403, 0.75722426, -0.056151874, -0.6119687, -0.22125298, 10.785918235778809, 2.876217842102051, 0.7827889323234558, -123.34300231933594, -1.913175106048584, -36.06238555908203, 
635, 2515439070, 0.7546639, -0.06631719, -0.60877943, -0.23552528, 11.469404220581055, 2.825244188308716, 0.9655175805091858, -119.37590026855469, -3.646138906478882, -32.029930114746094, 
636, 2515455737, 0.75193757, -0.075978234, -0.60573596, -0.24879989, 12.016716003417969, 2.667457103729248, 1.0911673307418823, -112.4911880493164, -4.755634307861328, -29.32248306274414, 
637, 2515472404, 0.7491832, -0.08478285, -0.6027363, -0.26123816, 12.01108455657959, 2.6033716201782227, 1.3394814729690552, -104.44550323486328, -4.059742450714111, -28.624588012695312, 
638, 2515489071, 0.7463864, -0.09295379, -0.59962887, -0.27333546, 11.265947341918945, 2.6529645919799805, 1.604727864265442, -99.99777221679688, -2.746286153793335, -29.519590377807617, 
639, 2515505738, 0.7435671, -0.101058364, -0.59612846, -0.28552783, 10.60450553894043, 2.684662103652954, 1.7544605731964111, -100.81726837158203, -0.646835446357727, -30.083507537841797, 
640, 2515522405, 0.74081683, -0.10911197, -0.59201735, -0.2979944, 10.181018829345703, 2.4659223556518555, 1.6588003635406494, -102.803955078125, 3.0465049743652344, -31.133262634277344, 
641, 2515539072, 0.7381602, -0.11657533, -0.5874999, -0.3104412, 9.491067886352539, 2.274447202682495, 1.3460725545883179, -100.47461700439453, 6.684033393859863, -32.94498825073242, 
642, 2515555739, 0.7353814, -0.12346823, -0.5828509, -0.32288536, 8.889469146728516, 2.2914228439331055, 1.1102174520492554, -98.00733947753906, 8.057046890258789, -35.418487548828125, 
643, 2515572406, 0.73231095, -0.1300553, -0.5780906, -0.33558527, 8.68912410736084, 2.3047845363616943, 1.086592435836792, -97.92762756347656, 8.353493690490723, -38.48107147216797, 
644, 2515589073, 0.7288504, -0.13654338, -0.5732675, -0.3485647, 8.842544555664062, 2.263143301010132, 1.1241425275802612, -99.04933166503906, 7.589730262756348, -41.13922882080078, 
645, 2515605740, 0.7249678, -0.14317314, -0.56837565, -0.36176318, 9.300248146057129, 2.197718620300293, 1.3264317512512207, -101.1951904296875, 6.131333827972412, -42.638187408447266, 
646, 2515622407, 0.72070855, -0.14992382, -0.5635009, -0.3749251, 9.750446319580078, 2.1047022342681885, 1.5188367366790771, -101.97857666015625, 4.234570503234863, -42.94551467895508, 
647, 2515639074, 0.7161274, -0.15661009, -0.5589483, -0.38757148, 10.182145118713379, 1.989722728729248, 1.7158664464950562, -99.17201232910156, 1.0198689699172974, -41.8192253112793, 
648, 2515655741, 0.71129817, -0.16315684, -0.5548665, -0.39944717, 10.373335838317871, 1.9836363792419434, 1.9885988235473633, -94.52837371826172, -2.7095015048980713, -39.74113082885742, 
649, 2515672408, 0.7063305, -0.16972132, -0.55101156, -0.41070467, 10.149046897888184, 2.0927419662475586, 2.2342283725738525, -91.7806396484375, -5.090942859649658, -37.29755401611328, 
650, 2515689075, 0.7011497, -0.17655538, -0.54719305, -0.42166018, 9.62102222442627, 2.1911702156066895, 2.3677375316619873, -92.08907318115234, -7.192461013793945, -35.46793746948242, 
651, 2515705742, 0.69565105, -0.18394527, -0.54321146, -0.4326145, 9.11025619506836, 2.1582164764404297, 2.378497838973999, -95.6138916015625, -9.218655586242676, -34.10431671142578, 
652, 2515722409, 0.68971175, -0.19212238, -0.5389303, -0.44378027, 8.738186836242676, 2.0416319370269775, 2.3969523906707764, -101.6207046508789, -11.515310287475586, -33.120941162109375, 
