sep=,
DeviceTag:,L Lower Leg - 4,,,,,,,,,,,,,,,,,
FirmwareVersion:,3.0.0,,,,,,,,,,,,,,,,,
AppVersion:,2023.6.1,,,,,,,,,,,,,,,,,
StartTime:,2024-05-23 11:49:42.000 +0200,,,,,,,,,,,,,,,,,
 2024,,,,,,,,,,,,,,,,,,,

PacketCounter,SampleTimeFine,Quat_W,Quat_X,Quat_Y,Quat_Z,Acc_X,Acc_Y,Acc_Z,Gyr_X,Gyr_Y,Gyr_Z,
0, 2494694896, 0.66771716, 0.02630054, -0.7426505, -0.04395934, 0.0, 0.0, 0.0, 0.0, 0.0, 0.0, 
1, 2494711563, 0.6679871, 0.026978776, -0.7424463, -0.042882577, 9.857216835021973, 0.9894909858703613, -1.0421690940856934, 3.3471126556396484, 0.5330451726913452, 1.3930299282073975, 
2, 2494728230, 0.6680635, 0.027816629, -0.7424139, -0.041704755, 9.889748573303223, 0.97835773229599, -1.05006742477417, 4.572501182556152, 0.47532689571380615, 1.0869967937469482, 
3, 2494744897, 0.668093, 0.028567685, -0.7424244, -0.04051827, 9.832663536071777, 1.0296827554702759, -1.041803002357483, 5.517737865447998, 0.7524051070213318, 1.0876880884170532, 
4, 2494761564, 0.6680906, 0.029585324, -0.7424387, -0.039558884, 9.80034065246582, 1.0753461122512817, -1.0777111053466797, 4.435550212860107, 0.38610509037971497, 1.0250011682510376, 
5, 2494778231, 0.6679948, 0.030539222, -0.74251604, -0.038991358, 9.817215919494629, 1.0352412462234497, -1.0985175371170044, 3.9463722705841064, 0.5120554566383362, 1.026755452156067, 
6, 2494794898, 0.66783935, 0.031289253, -0.7426498, -0.038513318, 9.885207176208496, 0.9605300426483154, -1.0793664455413818, 5.0915045738220215, 0.5364132523536682, 0.914315938949585, 
7, 2494811565, 0.667746, 0.032156598, -0.74274164, -0.037634477, 9.881364822387695, 1.10722815990448, -0.9919490218162537, 6.045743465423584, 0.649621307849884, 0.8727079629898071, 
8, 2494828232, 0.6677555, 0.033067144, -0.7427312, -0.03687415, 9.881943702697754, 1.1704407930374146, -0.9426057934761047, 4.752788543701172, 0.4012933671474457, 0.9623523354530334, 
9, 2494844899, 0.66784185, 0.03366703, -0.7426419, -0.036567174, 9.921277046203613, 1.0270613431930542, -0.9603894948959351, 4.364295482635498, 0.3628871440887451, 0.8761656880378723, 
10, 2494861566, 0.66794443, 0.034420397, -0.74254286, -0.03599628, 9.879493713378906, 1.0110810995101929, -0.9885185956954956, 4.111216068267822, 0.0037586635444313288, 0.9078869223594666, 
11, 2494878233, 0.6680247, 0.03496986, -0.7424692, -0.035492662, 9.87802791595459, 1.0318950414657593, -0.9957525730133057, 3.4451069831848145, -0.21080532670021057, 1.089186429977417, 
12, 2494894900, 0.6680786, 0.03523686, -0.7424207, -0.03522859, 9.856646537780762, 1.1094136238098145, -0.9906999468803406, 1.9300129413604736, -0.41012337803840637, 1.0877264738082886, 
13, 2494911567, 0.66812485, 0.03544783, -0.7423785, -0.03502403, 9.835845947265625, 1.0952304601669312, -1.0433850288391113, 1.196183443069458, -0.4621683359146118, 1.2367284297943115, 
14, 2494928234, 0.66812056, 0.035461143, -0.74238366, -0.034985766, 9.851670265197754, 1.0831995010375977, -1.079949140548706, 0.9473176598548889, -0.6476554870605469, 1.3315337896347046, 
15, 2494944901, 0.6680904, 0.035542138, -0.74241227, -0.034872737, 9.84495735168457, 1.1650928258895874, -1.020559549331665, 0.5848595499992371, -0.7060652375221252, 1.3858582973480225, 
16, 2494961568, 0.66805875, 0.035535403, -0.74244255, -0.034842372, 9.834147453308105, 1.137607216835022, -1.0569552183151245, -0.227556049823761, -0.7208951115608215, 1.5879554748535156, 
17, 2494978235, 0.6680122, 0.0355166, -0.74248576, -0.034834243, 9.869436264038086, 1.0245163440704346, -1.0223426818847656, -0.1333012878894806, -0.7339190244674683, 1.5389453172683716, 
18, 2494994902, 0.66795814, 0.035549004, -0.7425372, -0.03473908, 9.837891578674316, 1.0617234706878662, -1.0179252624511719, 0.47885507345199585, -0.7741374969482422, 1.4772382974624634, 
19, 2495011569, 0.6678927, 0.03524542, -0.7426038, -0.034884267, 9.887280464172363, 1.1306532621383667, -1.1105754375457764, -0.03443627431988716, -0.8101296424865723, 1.7519917488098145, 
20, 2495028236, 0.6678424, 0.035089236, -0.7426561, -0.03489245, 9.872709274291992, 1.0938729047775269, -1.0606375932693481, -1.1422752141952515, -0.7202675342559814, 1.9026840925216675, 
21, 2495044903, 0.6677824, 0.034843814, -0.74271685, -0.034990788, 9.830635070800781, 1.0520187616348267, -0.9994012117385864, -1.7786227464675903, -0.7966575622558594, 1.874651312828064, 
22, 2495061570, 0.66771495, 0.034473225, -0.74278593, -0.035178304, 9.843206405639648, 0.9783539772033691, -0.9864804744720459, -1.880561113357544, -0.873674750328064, 1.9228284358978271, 
23, 2495078237, 0.6676453, 0.03444737, -0.7428563, -0.035039846, 9.849770545959473, 0.8672704696655273, -1.0293575525283813, -0.13172611594200134, -0.92545086145401, 1.6736810207366943, 
24, 2495094904, 0.66752225, 0.03438129, -0.7429784, -0.034860354, 9.863570213317871, 0.9527605772018433, -1.0109037160873413, 2.261927843093872, -1.197393774986267, 1.5913875102996826, 
25, 2495111571, 0.6674221, 0.034523707, -0.7430805, -0.03445917, 9.877761840820312, 1.166638970375061, -1.0854908227920532, 2.489586114883423, -1.0833786725997925, 1.6411656141281128, 
26, 2495128238, 0.6673488, 0.03461595, -0.7431595, -0.03407925, 9.82911205291748, 1.1189788579940796, -1.0606378316879272, 1.7705609798431396, -0.8500726819038391, 1.929795265197754, 
27, 2495144905, 0.6672586, 0.034781452, -0.7432527, -0.033642583, 9.848600387573242, 1.0216667652130127, -1.0579612255096436, 1.153807282447815, -1.0731593370437622, 1.9904717206954956, 
28, 2495161572, 0.6671491, 0.034777466, -0.7433666, -0.033299122, 9.860722541809082, 1.0859661102294922, -1.0526784658432007, 1.3838094472885132, -1.1722933053970337, 2.2354319095611572, 
29, 2495178239, 0.66705126, 0.034802485, -0.74346983, -0.0329272, 9.892877578735352, 1.1212379932403564, -0.9948157072067261, 0.7964844703674316, -1.1301604509353638, 2.323411464691162, 
30, 2495194906, 0.6669353, 0.034852836, -0.74358755, -0.032559216, 9.847085952758789, 1.0044604539871216, -0.9405355453491211, 0.8204772472381592, -1.3255724906921387, 2.2145636081695557, 
31, 2495211573, 0.66680324, 0.03480829, -0.7437217, -0.03224826, 9.876737594604492, 1.0139657258987427, -0.9900367856025696, 1.3336211442947388, -1.4556465148925781, 2.2658464908599854, 
32, 2495228240, 0.6666585, 0.034842916, -0.74386615, -0.031869788, 9.88825798034668, 0.9737482666969299, -1.0312150716781616, 1.2421263456344604, -1.6356397867202759, 2.2333381175994873, 
33, 2495244907, 0.6664904, 0.03492873, -0.74403024, -0.031461127, 9.883955001831055, 1.0229862928390503, -0.9713585376739502, 0.9834892749786377, -1.8920040130615234, 2.1412861347198486, 
34, 2495261574, 0.6663021, 0.034865767, -0.7442142, -0.031166323, 9.914888381958008, 1.0559381246566772, -0.9802960753440857, 0.2861899435520172, -2.1217689514160156, 2.3090813159942627, 
35, 2495278241, 0.66610336, 0.034686312, -0.7444088, -0.03096434, 9.922012329101562, 1.0236841440200806, -0.9642567038536072, -0.21863000094890594, -2.250101327896118, 2.428884267807007, 
36, 2495294908, 0.6658794, 0.034674525, -0.74462306, -0.030640095, 9.912071228027344, 0.9541841745376587, -0.9229153394699097, -0.11920148879289627, -2.555007219314575, 2.2677419185638428, 
37, 2495311575, 0.6656256, 0.034684855, -0.7448626, -0.030321378, 9.899357795715332, 0.9564695954322815, -0.9190506339073181, -0.0035473585594445467, -2.8585946559906006, 2.095823049545288, 
38, 2495328242, 0.6653267, 0.0344667, -0.7451405, -0.030301116, 9.914396286010742, 1.009023666381836, -0.858497142791748, -1.2343401908874512, -3.300312042236328, 1.7244393825531006, 
39, 2495344909, 0.664997, 0.034079447, -0.7454457, -0.030466782, 9.885740280151367, 1.009720802307129, -0.8668952584266663, -2.716822624206543, -3.699761152267456, 1.7099552154541016, 
40, 2495361576, 0.6646418, 0.0337399, -0.7457707, -0.030643834, 9.866706848144531, 0.7538030743598938, -0.9592404365539551, -2.7904398441314697, -3.9827754497528076, 1.4384158849716187, 
41, 2495378243, 0.6642026, 0.033475067, -0.74616677, -0.03081422, 9.883444786071777, 0.7651501893997192, -1.1346465349197388, -1.3431940078735352, -4.641303062438965, 0.8834652900695801, 
42, 2495394910, 0.663758, 0.03323461, -0.7465676, -0.030946776, 9.884066581726074, 0.9349088668823242, -1.267838954925537, -1.3835210800170898, -4.671910285949707, 0.9020344018936157, 
43, 2495411577, 0.6633406, 0.032869875, -0.74694645, -0.031142209, 9.812222480773926, 1.059680461883545, -1.262461543083191, -2.614711284637451, -4.436671257019043, 1.2795274257659912, 
44, 2495428244, 0.6629537, 0.032358438, -0.74729884, -0.031461433, 9.840147972106934, 1.0946890115737915, -1.2794010639190674, -3.5915026664733887, -4.132660865783691, 1.4522337913513184, 
45, 2495444911, 0.662616, 0.03197562, -0.74760616, -0.031669732, 9.834973335266113, 1.096757173538208, -1.215171456336975, -3.9079222679138184, -3.7035839557647705, 1.5030878782272339, 
46, 2495461578, 0.6622796, 0.031434253, -0.74791163, -0.032026157, 9.768959999084473, 1.0518802404403687, -1.181497573852539, -3.2879791259765625, -3.535435914993286, 1.4147366285324097, 
47, 2495478245, 0.6619752, 0.031117788, -0.74818945, -0.032144453, 9.772997856140137, 1.0730561017990112, -1.2098850011825562, -2.5822083950042725, -3.266784429550171, 1.5467959642410278, 
48, 2495494912, 0.6616981, 0.030811789, -0.74844366, -0.032224838, 9.831741333007812, 1.0297070741653442, -1.2764359712600708, -1.9721012115478516, -2.9540793895721436, 1.6390783786773682, 
49, 2495511579, 0.6614449, 0.030559972, -0.7486776, -0.032229863, 9.828784942626953, 0.979107141494751, -1.2597053050994873, -1.0019559860229492, -2.6509015560150146, 1.667021632194519, 
50, 2495528246, 0.66121435, 0.030406846, -0.74889094, -0.03214664, 9.795050621032715, 0.9794520735740662, -1.2422267198562622, -0.20638711750507355, -2.386847496032715, 1.571236491203308, 
51, 2495544913, 0.6609952, 0.030155266, -0.749095, -0.03213673, 9.812017440795898, 1.0282732248306274, -1.2681533098220825, -0.37763363122940063, -2.248270034790039, 1.6583006381988525, 
52, 2495561580, 0.66079456, 0.029901808, -0.7492821, -0.032138683, 9.809746742248535, 1.0003823041915894, -1.2544008493423462, -0.4716450572013855, -2.0620779991149902, 1.6263102293014526, 
53, 2495578247, 0.6606137, 0.029838514, -0.7494525, -0.0319413, 9.841410636901855, 0.9602649807929993, -1.3090615272521973, -0.01618722453713417, -1.9162012338638306, 1.7334738969802856, 
54, 2495594914, 0.660442, 0.029835021, -0.74961466, -0.031688523, 9.822953224182129, 1.0488836765289307, -1.2935796976089478, 0.27253830432891846, -1.8109458684921265, 1.7057864665985107, 
55, 2495611581, 0.66029984, 0.029668845, -0.7497519, -0.03155796, 9.817286491394043, 1.06172513961792, -1.244602084159851, -0.05848660320043564, -1.4992265701293945, 1.8685553073883057, 
56, 2495628248, 0.6601843, 0.029517878, -0.7498646, -0.031439614, 9.806300163269043, 0.9792607426643372, -1.1657209396362305, -0.11060843616724014, -1.246698260307312, 1.7595093250274658, 
57, 2495644915, 0.66006774, 0.029403105, -0.7499777, -0.031295005, 9.850995063781738, 0.9688574075698853, -1.211624264717102, 0.24584990739822388, -1.2469542026519775, 1.6813905239105225, 
58, 2495661582, 0.6599731, 0.029418914, -0.7500704, -0.031056669, 9.851593971252441, 0.9436297416687012, -1.2819997072219849, 0.34983745217323303, -1.0785763263702393, 1.5553631782531738, 
59, 2495678249, 0.65987635, 0.029310048, -0.7501647, -0.030938368, 9.862637519836426, 0.955358624458313, -1.2640167474746704, 0.2578622102737427, -1.0464578866958618, 1.507146954536438, 
60, 2495694916, 0.65979385, 0.029266788, -0.75024635, -0.030760156, 9.837349891662598, 1.022651195526123, -1.2259210348129272, -0.13130348920822144, -0.9685696363449097, 1.5682076215744019, 
61, 2495711583, 0.65970343, 0.02908051, -0.7503346, -0.030722275, 9.848776817321777, 0.9857093691825867, -1.1814827919006348, -0.41673141717910767, -1.0073474645614624, 1.5352059602737427, 
62, 2495728250, 0.65963465, 0.029023256, -0.7504033, -0.030576287, 9.864786148071289, 0.9596852660179138, -1.181075930595398, -0.3501512408256531, -0.8551952838897705, 1.5056042671203613, 
63, 2495744917, 0.6595581, 0.028831283, -0.7504782, -0.030571263, 9.847143173217773, 0.944325864315033, -1.2197747230529785, 0.0019273556536063552, -0.8465381860733032, 1.339435338973999, 
64, 2495761584, 0.6595033, 0.028987408, -0.7505345, -0.030222157, 9.840423583984375, 0.9595224261283875, -1.2586029767990112, 0.30119895935058594, -0.7672155499458313, 1.5022680759429932, 
65, 2495778251, 0.6594413, 0.028725713, -0.75059754, -0.03025593, 9.850593566894531, 0.9732123613357544, -1.2493895292282104, -0.1491299420595169, -0.7081654667854309, 1.4759637117385864, 
66, 2495794918, 0.6594004, 0.028626911, -0.7506414, -0.030156475, 9.832893371582031, 0.9839739203453064, -1.1840736865997314, -0.22309944033622742, -0.576926052570343, 1.4360334873199463, 
67, 2495811585, 0.65936756, 0.02862557, -0.75067705, -0.029983317, 9.813348770141602, 0.9623693227767944, -1.1808538436889648, 0.2929708659648895, -0.4954136312007904, 1.3138163089752197, 
68, 2495828252, 0.6593432, 0.028706726, -0.7507063, -0.029706342, 9.847908020019531, 0.9537978768348694, -1.232136845588684, 1.2699159383773804, -0.38664931058883667, 1.351543664932251, 
69, 2495844919, 0.6593292, 0.02872953, -0.75072765, -0.02945512, 9.852049827575684, 1.0423822402954102, -1.2675285339355469, 1.2938895225524902, -0.279690682888031, 1.4817585945129395, 
70, 2495861586, 0.6593524, 0.028875338, -0.7507153, -0.029106982, 9.846141815185547, 1.0123487710952759, -1.1999660730361938, 0.6696888208389282, -0.025164475664496422, 1.5190699100494385, 
71, 2495878253, 0.6593522, 0.028765637, -0.750724, -0.028999917, 9.860634803771973, 0.9210668206214905, -1.1182875633239746, 0.3494020402431488, -0.17679166793823242, 1.4793318510055542, 
72, 2495894920, 0.6593265, 0.02874409, -0.7507529, -0.028853243, 9.852818489074707, 0.9311449527740479, -1.0973867177963257, 0.6522082090377808, -0.4120059311389923, 1.2438359260559082, 
73, 2495911587, 0.65928227, 0.028631125, -0.7507975, -0.028815553, 9.828121185302734, 0.9091388583183289, -1.1772704124450684, 0.5920503735542297, -0.5610974431037903, 1.1029726266860962, 
74, 2495928254, 0.6592206, 0.028599812, -0.75085634, -0.028726688, 9.889168739318848, 0.9531898498535156, -1.1861414909362793, 0.4751476049423218, -0.756496787071228, 1.0107604265213013, 
75, 2495944921, 0.6591633, 0.02854421, -0.75091153, -0.028653195, 9.844846725463867, 0.956376314163208, -1.1762099266052246, 0.5712977051734924, -0.7104706764221191, 1.0288045406341553, 
76, 2495961588, 0.6591047, 0.02872056, -0.7509665, -0.028383987, 9.806058883666992, 0.9442847967147827, -1.1476162672042847, 0.9298114776611328, -0.7745024561882019, 0.9504041075706482, 
77, 2495978255, 0.6590486, 0.028724808, -0.7510192, -0.028286297, 9.845891952514648, 0.9956340789794922, -1.200911521911621, 0.4928971827030182, -0.7288092970848083, 0.898102879524231, 
78, 2495994922, 0.65899795, 0.02860688, -0.75106794, -0.028294351, 9.807840347290039, 1.0437415838241577, -1.2512484788894653, 0.047146573662757874, -0.6803885102272034, 0.9713679552078247, 
79, 2496011589, 0.65895253, 0.02853997, -0.75111145, -0.028260339, 9.780702590942383, 1.0340607166290283, -1.2338465452194214, -0.2758423686027527, -0.6703291535377502, 1.0169522762298584, 
80, 2496028256, 0.6589123, 0.02835601, -0.7511512, -0.028329642, 9.821279525756836, 1.0942569971084595, -1.2760154008865356, -1.610731601715088, -0.6930541396141052, 1.2004544734954834, 
81, 2496044923, 0.6589049, 0.028090833, -0.75116265, -0.028458957, 9.803177833557129, 1.0669848918914795, -1.2148492336273193, -1.873274564743042, -0.38184693455696106, 1.3129132986068726, 
82, 2496061590, 0.65889335, 0.027826963, -0.7511791, -0.028550148, 9.847021102905273, 1.050155758857727, -1.2138112783432007, -2.0573017597198486, -0.4541643559932709, 1.5423774719238281, 
83, 2496078257, 0.65890443, 0.027596109, -0.7511766, -0.028585643, 9.893014907836914, 1.0395358800888062, -1.1514456272125244, -1.0381338596343994, -0.19228732585906982, 1.558577537536621, 
84, 2496094924, 0.6588877, 0.027436126, -0.75120014, -0.028507521, 9.853923797607422, 1.0089672803878784, -1.0562653541564941, -0.08581535518169403, -0.42458173632621765, 1.7147639989852905, 
85, 2496111591, 0.658875, 0.027411224, -0.75122285, -0.028222853, 9.89511489868164, 0.9968915581703186, -1.0962861776351929, 1.4540778398513794, -0.3616641163825989, 1.9809565544128418, 
86, 2496128258, 0.6588668, 0.027532047, -0.7512405, -0.027822167, 9.943595886230469, 0.9256308674812317, -1.0939514636993408, 2.6109840869903564, -0.28648442029953003, 1.7788273096084595, 
87, 2496144925, 0.6588226, 0.027737617, -0.7512891, -0.02735211, 9.898163795471191, 0.9060673117637634, -1.0139061212539673, 4.101598739624023, -0.5379948019981384, 1.5598070621490479, 
88, 2496161592, 0.6587397, 0.028189663, -0.7513689, -0.026687441, 9.852007865905762, 0.9317922592163086, -1.0134302377700806, 4.627939701080322, -0.9439688920974731, 1.3752931356430054, 
89, 2496178259, 0.6586197, 0.02849456, -0.75148046, -0.02618179, 9.847838401794434, 0.9731090068817139, -1.0971953868865967, 3.6298828125, -1.3196622133255005, 1.3572553396224976, 
90, 2496194926, 0.6584986, 0.028709007, -0.75159246, -0.025773246, 9.862070083618164, 1.0306670665740967, -1.167423129081726, 2.123497724533081, -1.420749306678772, 1.472192406654358, 
91, 2496211593, 0.658349, 0.02848141, -0.75173366, -0.025727693, 9.864898681640625, 1.0073328018188477, -1.2932995557785034, 0.531373918056488, -1.6834012269973755, 1.8197184801101685, 
92, 2496228260, 0.65821654, 0.02842995, -0.7518579, -0.025540622, 9.834044456481934, 1.0072016716003418, -1.2338860034942627, -0.4922824800014496, -1.6478632688522339, 1.9044320583343506, 
93, 2496244927, 0.65806794, 0.02834524, -0.75199646, -0.025391096, 9.835354804992676, 1.0297706127166748, -1.1172045469284058, -1.4321917295455933, -1.8555824756622314, 2.000800132751465, 
94, 2496261594, 0.6579068, 0.028166188, -0.75214595, -0.025341196, 9.856624603271484, 0.9750776886940002, -1.0789626836776733, -1.8638553619384766, -1.978715419769287, 1.9834473133087158, 
95, 2496278261, 0.65771896, 0.027864464, -0.75231797, -0.02543368, 9.839117050170898, 0.8951795697212219, -1.0689401626586914, -1.4836413860321045, -2.159189224243164, 1.7547966241836548, 
96, 2496294928, 0.6575231, 0.027797945, -0.75249535, -0.025327537, 9.828065872192383, 0.943589448928833, -1.1644877195358276, -1.0933932065963745, -2.2879698276519775, 1.6713502407073975, 
97, 2496311595, 0.65730417, 0.02753852, -0.7526936, -0.025400385, 9.831330299377441, 0.9846031665802002, -1.256710171699524, -1.8449082374572754, -2.500849485397339, 1.7236897945404053, 
98, 2496328262, 0.65711796, 0.027168373, -0.7528646, -0.025547948, 9.828333854675293, 0.9839004874229431, -1.2646695375442505, -2.309983968734741, -2.211310863494873, 1.910982608795166, 
99, 2496344929, 0.65694183, 0.027097514, -0.75302523, -0.025417922, 9.81178092956543, 0.9473037719726562, -1.2499498128890991, -1.797806739807129, -2.175786018371582, 1.940936803817749, 
100, 2496361596, 0.65676093, 0.026938481, -0.7531927, -0.025307294, 9.871105194091797, 1.062568187713623, -1.2824724912643433, -1.333512544631958, -2.1821508407592773, 2.1842703819274902, 
101, 2496378263, 0.65662193, 0.026526257, -0.75332445, -0.025426533, 9.846818923950195, 1.040831446647644, -1.2537168264389038, -1.317779779434204, -1.7153912782669067, 2.1481244564056396, 
102, 2496394930, 0.65650475, 0.026296053, -0.75343657, -0.025363445, 9.825221061706543, 0.9510147571563721, -1.2415326833724976, -0.8797194361686707, -1.5561507940292358, 2.2225167751312256, 
103, 2496411597, 0.65639365, 0.02619373, -0.7535434, -0.025169909, 9.83405590057373, 0.9384559392929077, -1.2239075899124146, -0.05723157525062561, -1.4844480752944946, 2.221985101699829, 
104, 2496428264, 0.6562757, 0.026128527, -0.753655, -0.024970036, 9.811065673828125, 0.9292511343955994, -1.1798251867294312, 0.19774283468723297, -1.5308902263641357, 2.0640504360198975, 
105, 2496444931, 0.6561651, 0.026137173, -0.7537604, -0.024686096, 9.861189842224121, 0.9301252961158752, -1.178836703300476, 0.5067600607872009, -1.4846338033676147, 2.1258156299591064, 
106, 2496461598, 0.6560312, 0.02613161, -0.7538848, -0.024454772, 9.842148780822754, 0.8755316138267517, -1.18678879737854, 0.790228545665741, -1.6694293022155762, 1.8836092948913574, 
107, 2496478265, 0.65587646, 0.026058892, -0.7540277, -0.024271693, 9.861175537109375, 0.922049880027771, -1.237639307975769, 0.6968702673912048, -1.8561201095581055, 1.9555935859680176, 
108, 2496494932, 0.65573794, 0.025887141, -0.75415605, -0.024214506, 9.855596542358398, 0.9739723205566406, -1.222144365310669, -0.26842108368873596, -1.741458773612976, 1.8899418115615845, 
109, 2496511599, 0.65558773, 0.025757086, -0.754295, -0.024090983, 9.852005004882812, 0.9322748780250549, -1.2678807973861694, -0.4419471025466919, -1.886721134185791, 2.084726333618164, 
110, 2496528266, 0.6554072, 0.025580645, -0.7544594, -0.0240477, 9.873862266540527, 0.9523437023162842, -1.2601670026779175, -0.8719780445098877, -2.1727190017700195, 1.946309208869934, 
111, 2496544933, 0.6552598, 0.02545034, -0.7545945, -0.02396332, 9.831453323364258, 0.945777952671051, -1.1986199617385864, -1.029668927192688, -1.8969663381576538, 1.9864506721496582, 
112, 2496561600, 0.6550827, 0.02504133, -0.7547568, -0.024126196, 9.8396577835083, 0.9437377452850342, -1.1845552921295166, -0.9812865853309631, -2.09525990486145, 1.9588016271591187, 
113, 2496578267, 0.6549068, 0.024971396, -0.7549145, -0.024034414, 9.868998527526855, 0.9322795271873474, -1.2199534177780151, -1.5560740232467651, -2.216151714324951, 1.8457472324371338, 
114, 2496594934, 0.6547256, 0.02469265, -0.7550769, -0.024158128, 9.862860679626465, 0.8879525661468506, -1.2258604764938354, -1.6015875339508057, -2.212693691253662, 1.6737384796142578, 
115, 2496611601, 0.6545304, 0.02449428, -0.75525075, -0.024211956, 9.823843002319336, 0.8659799098968506, -1.2741235494613647, -1.3645421266555786, -2.348773717880249, 1.6544842720031738, 
116, 2496628268, 0.65432715, 0.024375958, -0.75543046, -0.024216378, 9.890962600708008, 0.9048043489456177, -1.2987570762634277, -1.3701001405715942, -2.442683219909668, 1.5575658082962036, 
117, 2496644935, 0.65413654, 0.024048004, -0.7556014, -0.024362333, 9.83458423614502, 0.973459005355835, -1.2913146018981934, -1.759041666984558, -2.3158748149871826, 1.8250775337219238, 
118, 2496661602, 0.65394974, 0.023838202, -0.75576955, -0.024377469, 9.84019660949707, 0.9377754926681519, -1.3295302391052246, -1.2460706233978271, -2.291862726211548, 1.9179813861846924, 
119, 2496678269, 0.65378445, 0.023762582, -0.75591767, -0.024289276, 9.848021507263184, 0.9549740552902222, -1.3446600437164307, -0.7324079275131226, -2.0886387825012207, 1.793298602104187, 
120, 2496694936, 0.65364426, 0.023792617, -0.75604427, -0.02408532, 9.817482948303223, 0.9696669578552246, -1.2965952157974243, -0.11059562861919403, -1.861518144607544, 1.8396130800247192, 
121, 2496711603, 0.65352184, 0.023691947, -0.75615674, -0.023976106, 9.810834884643555, 0.9149549603462219, -1.3019963502883911, 0.1459987759590149, -1.6610089540481567, 1.9038238525390625, 
122, 2496728270, 0.6533623, 0.023568008, -0.75630116, -0.023893235, 9.835602760314941, 0.9284927248954773, -1.325631022453308, 0.1645936220884323, -1.993039608001709, 1.878723382949829, 
123, 2496744937, 0.65324795, 0.023401348, -0.7564069, -0.023834843, 9.8312349319458, 0.9351766109466553, -1.3006471395492554, -0.3659670054912567, -1.6111668348312378, 2.0336546897888184, 
124, 2496761604, 0.65313816, 0.023360183, -0.7565077, -0.023682918, 9.810415267944336, 0.9085756540298462, -1.2724874019622803, -0.088133305311203, -1.5853493213653564, 1.9281562566757202, 
125, 2496778271, 0.65302354, 0.023245648, -0.7566124, -0.023612207, 9.796760559082031, 0.9661461114883423, -1.25702702999115, -0.501944899559021, -1.6364338397979736, 1.9069103002548218, 
126, 2496794938, 0.6529017, 0.0230461, -0.7567237, -0.023612086, 9.866774559020996, 0.9358330368995667, -1.262079119682312, -0.6906079649925232, -1.7060747146606445, 1.9555742740631104, 
127, 2496811605, 0.6527974, 0.022885622, -0.7568193, -0.02358891, 9.88345718383789, 0.8472814559936523, -1.2529658079147339, -0.46713724732398987, -1.546648383140564, 1.8793895244598389, 
128, 2496828272, 0.6526789, 0.022907596, -0.7569268, -0.023398895, 9.830665588378906, 0.8367935419082642, -1.274886131286621, 0.35484474897384644, -1.6817809343338013, 1.8184183835983276, 
129, 2496844939, 0.6525325, 0.022933062, -0.7570568, -0.023246031, 9.842466354370117, 0.9073995351791382, -1.2974261045455933, 0.26417577266693115, -1.9341813325881958, 1.6275397539138794, 
130, 2496861606, 0.6523955, 0.023126172, -0.7571786, -0.022929747, 9.837738037109375, 0.8932953476905823, -1.2720322608947754, -0.398200660943985, -1.9464370012283325, 1.8429425954818726, 
131, 2496878273, 0.6522413, 0.023026912, -0.75731575, -0.022886174, 9.846771240234375, 0.8544546961784363, -1.2872642278671265, -0.01997150108218193, -2.0090408325195312, 1.673123836517334, 
132, 2496894940, 0.6520882, 0.02297526, -0.75745136, -0.022817636, 9.83954906463623, 0.9127234816551208, -1.273060917854309, 0.03815652057528496, -2.014554023742676, 1.5846513509750366, 
133, 2496911607, 0.65193385, 0.023061693, -0.7575866, -0.02264858, 9.839746475219727, 0.9139503240585327, -1.2588393688201904, 0.05279418081045151, -2.054779052734375, 1.5065196752548218, 
134, 2496928274, 0.6517846, 0.023007747, -0.7577178, -0.022614108, 9.814068794250488, 0.9041396379470825, -1.2837456464767456, -0.16962012648582458, -1.999493956565857, 1.4689972400665283, 
135, 2496944941, 0.65164006, 0.022988008, -0.75784427, -0.022566076, 9.825753211975098, 0.8762096166610718, -1.2928630113601685, 0.038988932967185974, -1.9541593790054321, 1.3669946193695068, 
136, 2496961608, 0.65146005, 0.023030207, -0.758, -0.022481916, 9.803425788879395, 0.9076396226882935, -1.303587555885315, 0.47530123591423035, -2.2625741958618164, 1.2206820249557495, 
137, 2496978275, 0.6512983, 0.022917658, -0.75814164, -0.022513416, 9.864432334899902, 0.9566546678543091, -1.38737154006958, -0.08295953273773193, -2.108335018157959, 1.4041906595230103, 
138, 2496994942, 0.6511461, 0.022860527, -0.7582741, -0.022515612, 9.843766212463379, 0.9232602119445801, -1.359772801399231, -0.4944019019603729, -2.056469202041626, 1.3880161046981812, 
139, 2497011609, 0.6509824, 0.022736015, -0.75841695, -0.022555415, 9.83363151550293, 0.9382503032684326, -1.316970944404602, -0.7662550806999207, -2.164990186691284, 1.5548251867294312, 
140, 2497028276, 0.6508239, 0.022607733, -0.75855553, -0.022600843, 9.96129322052002, 0.8944294452667236, -1.2268940210342407, -0.5675005912780762, -2.1200783252716064, 1.5118790864944458, 
141, 2497044943, 0.6506212, 0.022598887, -0.7587299, -0.022593213, 9.905634880065918, 0.860552191734314, -1.1389695405960083, 0.24462690949440002, -2.500657558441162, 1.135654330253601, 
142, 2497061610, 0.65039223, 0.022992603, -0.7589258, -0.022205694, 9.883809089660645, 0.8239256739616394, -1.1723524332046509, 1.1871613264083862, -2.8051095008850098, 1.1946531534194946, 
143, 2497078277, 0.65015745, 0.023169374, -0.7591267, -0.022029169, 9.816826820373535, 0.7450799942016602, -1.2637735605239868, 2.182093381881714, -2.760319232940674, 0.8956825137138367, 
144, 2497094944, 0.6498548, 0.023563113, -0.759384, -0.021668566, 9.881221771240234, 0.7321577668190002, -1.320401906967163, 3.733691453933716, -3.3356575965881348, 0.6501912474632263, 
145, 2497111611, 0.64957577, 0.024003003, -0.75961953, -0.02129379, 9.776360511779785, 0.9475849270820618, -1.3599079847335815, 3.8845949172973633, -3.1202030181884766, 0.49421626329421997, 
146, 2497128278, 0.64930725, 0.024348188, -0.7598464, -0.020998621, 9.747980117797852, 0.9623268246650696, -1.4130067825317383, 3.1404051780700684, -3.0532643795013428, 0.6284908652305603, 
147, 2497144945, 0.64902925, 0.024476962, -0.76008207, -0.020914644, 9.732349395751953, 0.98533034324646, -1.4757286310195923, 1.596542239189148, -3.1797847747802734, 0.7466999292373657, 
148, 2497161612, 0.6487687, 0.024590125, -0.76030296, -0.020832146, 9.753582954406738, 0.9859185814857483, -1.5123322010040283, 1.0974977016448975, -3.048525810241699, 0.9050438404083252, 
149, 2497178279, 0.6485562, 0.024538679, -0.7604843, -0.020891378, 9.816974639892578, 0.9951605796813965, -1.5059454441070557, 0.02979397587478161, -2.6424241065979004, 1.0740622282028198, 
150, 2497194946, 0.6483643, 0.024554616, -0.76064765, -0.020880984, 9.812112808227539, 0.9182661771774292, -1.4429326057434082, -0.05443338677287102, -2.473104476928711, 1.1775439977645874, 
151, 2497211613, 0.64817053, 0.02461646, -0.7608121, -0.020833582, 9.761610984802246, 0.8970415592193604, -1.406018614768982, 0.24648381769657135, -2.4814157485961914, 1.1304421424865723, 
152, 2497228280, 0.6479827, 0.02472668, -0.7609708, -0.020749781, 9.835332870483398, 0.8678737282752991, -1.3877848386764526, 0.38751375675201416, -2.4398787021636963, 1.0851397514343262, 
153, 2497244947, 0.6477943, 0.024719467, -0.76113045, -0.02078627, 9.907731056213379, 0.8346087336540222, -1.4107567071914673, 0.6421295404434204, -2.40386700630188, 0.936560332775116, 
154, 2497261614, 0.64760965, 0.024725217, -0.7612861, -0.020831928, 9.794572830200195, 0.8351179957389832, -1.4100003242492676, 0.6866700053215027, -2.374284267425537, 0.8207653164863586, 
155, 2497278281, 0.6474107, 0.024817424, -0.7614538, -0.02077741, 9.801432609558105, 0.9284792542457581, -1.4447451829910278, 0.604427695274353, -2.5326731204986572, 0.9955593347549438, 
156, 2497294948, 0.6472143, 0.024757229, -0.7616197, -0.020885162, 9.784174919128418, 1.0017884969711304, -1.4237114191055298, -0.21900136768817902, -2.5260908603668213, 0.9569160342216492, 
157, 2497311615, 0.6470268, 0.024726706, -0.7617781, -0.020952798, 9.769279479980469, 0.9600264430046082, -1.4604861736297607, -0.2852230370044708, -2.4655680656433105, 1.0631256103515625, 
158, 2497328282, 0.64686716, 0.024731547, -0.76191306, -0.020975158, 9.752801895141602, 0.9795807600021362, -1.5037482976913452, 0.18001887202262878, -2.2030508518218994, 1.0746320486068726, 
159, 2497344949, 0.6467246, 0.024796052, -0.7620346, -0.020882342, 9.837971687316895, 1.0118932723999023, -1.55576491355896, 0.16867882013320923, -2.0760374069213867, 1.4451133012771606, 
160, 2497361616, 0.64664584, 0.02471951, -0.76210344, -0.020894319, 9.924996376037598, 0.9811870455741882, -1.5848844051361084, -0.2723654508590698, -1.4968575239181519, 1.6050392389297485, 
161, 2497378283, 0.64659077, 0.024771333, -0.7621512, -0.020794185, 9.876092910766602, 0.8410463333129883, -1.492060661315918, -0.02291055954992771, -1.2917124032974243, 1.6024649143218994, 
162, 2497394950, 0.64652634, 0.024602734, -0.76220953, -0.02086336, 9.782492637634277, 0.8465743660926819, -1.4134671688079834, 0.6602250337600708, -1.3046214580535889, 1.557194709777832, 
163, 2497411617, 0.6464425, 0.024508975, -0.762283, -0.020884879, 9.79372787475586, 0.898421049118042, -1.3709462881088257, 0.7902606725692749, -1.4882259368896484, 1.4617359638214111, 
164, 2497428284, 0.6463575, 0.024462922, -0.76235664, -0.020882905, 9.841484069824219, 0.903533935546875, -1.4196703433990479, 0.9109733700752258, -1.5107394456863403, 1.3555713891983032, 
165, 2497444951, 0.64627385, 0.024575504, -0.7624275, -0.020749848, 9.854471206665039, 0.8888828754425049, -1.4451904296875, 1.1011220216751099, -1.5187691450119019, 1.3344407081604004, 
166, 2497461618, 0.646189, 0.024636012, -0.7624997, -0.020673105, 9.833230972290039, 0.9194515943527222, -1.4565465450286865, 0.5885991454124451, -1.5536919832229614, 1.3593493700027466, 
167, 2497478285, 0.646107, 0.024658492, -0.7625705, -0.02059479, 9.807387351989746, 0.948625922203064, -1.4681119918823242, -0.14869451522827148, -1.5778319835662842, 1.6745390892028809, 
168, 2497494952, 0.64603883, 0.024472125, -0.7626306, -0.020725522, 9.824729919433594, 0.8754051923751831, -1.4398295879364014, -0.7016727328300476, -1.441085696220398, 1.5907471179962158, 
169, 2497511619, 0.64594924, 0.024341695, -0.76270807, -0.020823633, 9.770360946655273, 0.8550626039505005, -1.4488097429275513, -0.4785540699958801, -1.6359535455703735, 1.4817585945129395, 
170, 2497528286, 0.64585704, 0.024287095, -0.7627863, -0.020883357, 9.776274681091309, 0.8963716626167297, -1.4411170482635498, -0.36575576663017273, -1.6668682098388672, 1.3323087692260742, 
171, 2497544953, 0.64575416, 0.024243893, -0.7628734, -0.020931503, 9.782532691955566, 0.9035599827766418, -1.466095209121704, -0.644614040851593, -1.7836748361587524, 1.4099278450012207, 
172, 2497561620, 0.6456501, 0.024099827, -0.7629623, -0.021066684, 9.820610046386719, 0.9135121703147888, -1.5218790769577026, -1.3163902759552002, -1.825250506401062, 1.504361867904663, 
173, 2497578287, 0.64555734, 0.023907924, -0.76304287, -0.021213802, 9.821698188781738, 0.9759446382522583, -1.5505539178848267, -1.535212516784668, -1.731585144996643, 1.7095005512237549, 
174, 2497594954, 0.64549166, 0.023636872, -0.76310104, -0.021417458, 9.836481094360352, 1.0171631574630737, -1.5158718824386597, -2.086589813232422, -1.5054759979248047, 1.8640344142913818, 
175, 2497611621, 0.64545405, 0.023345375, -0.763136, -0.021624148, 9.837470054626465, 0.9461545348167419, -1.4755250215530396, -1.7906607389450073, -1.2377848625183105, 1.8978559970855713, 
176, 2497628288, 0.6454167, 0.023105204, -0.76317054, -0.021784784, 9.848697662353516, 0.8844929337501526, -1.488134503364563, -1.4776607751846313, -1.2373111248016357, 1.8621394634246826, 
177, 2497644955, 0.645402, 0.02295209, -0.76318496, -0.02186876, 9.841754913330078, 0.8416907787322998, -1.4368258714675903, -1.1654099225997925, -1.0306358337402344, 1.848904013633728, 
178, 2497661622, 0.6453533, 0.022887582, -0.7632278, -0.021878485, 9.805211067199707, 0.8490826487541199, -1.4143553972244263, -0.5550720691680908, -1.3341336250305176, 1.7337110042572021, 
179, 2497678289, 0.64528674, 0.022750711, -0.76328623, -0.021948904, 9.857035636901855, 0.8683836460113525, -1.4592288732528687, -0.7309096455574036, -1.4967806339263916, 1.7690949440002441, 
180, 2497694956, 0.64522034, 0.022594325, -0.76334304, -0.02208907, 9.809972763061523, 0.8405866622924805, -1.371999979019165, -1.0065535306930542, -1.496063470840454, 1.5367556810379028, 
181, 2497711623, 0.6451165, 0.022507222, -0.76343066, -0.022180397, 9.820961952209473, 0.8395405411720276, -1.3764480352401733, -0.7079734802246094, -1.8355342149734497, 1.4482637643814087, 
182, 2497728290, 0.64501244, 0.022416888, -0.76351744, -0.022311209, 9.802952766418457, 0.8870272636413574, -1.4221750497817993, -1.0764250755310059, -1.857369065284729, 1.3178181648254395, 
183, 2497744957, 0.64487725, 0.022312315, -0.76363146, -0.022420982, 9.79896068572998, 0.8743935227394104, -1.4491429328918457, -0.5745825171470642, -2.1246886253356934, 1.4072705507278442, 
184, 2497761624, 0.64473855, 0.022128124, -0.76374763, -0.022632204, 9.838494300842285, 0.9227535724639893, -1.5113434791564941, -1.2060378789901733, -2.170471429824829, 1.3343255519866943, 
185, 2497778291, 0.6446272, 0.022038532, -0.76384085, -0.022747515, 9.780670166015625, 0.8858000636100769, -1.5068120956420898, -1.2221484184265137, -1.9549918174743652, 1.439030408859253, 
186, 2497794958, 0.6444967, 0.02174713, -0.76395065, -0.02303652, 9.743340492248535, 0.8957440257072449, -1.492545247077942, -1.1098366975784302, -2.0774333477020264, 1.382285237312317, 
187, 2497811625, 0.6443724, 0.021498172, -0.76405376, -0.023328334, 9.73049545288086, 0.9554463028907776, -1.4780082702636719, -1.387196660041809, -2.037849187850952, 1.2349356412887573, 
188, 2497828292, 0.6442665, 0.02136095, -0.76414114, -0.023513623, 9.762954711914062, 0.9568361043930054, -1.4800697565078735, -1.5608633756637573, -1.9150612354278564, 1.3512299060821533, 
189, 2497844959, 0.64414173, 0.021216394, -0.7642446, -0.023699762, 9.818636894226074, 0.9359366297721863, -1.490267038345337, -1.6751986742019653, -2.097257375717163, 1.4088969230651855, 
190, 2497861626, 0.644041, 0.021073477, -0.76432705, -0.023907179, 9.84169864654541, 0.8953984379768372, -1.4642764329910278, -1.677042841911316, -1.880125880241394, 1.289862036705017, 
191, 2497878293, 0.6439199, 0.020845119, -0.7644257, -0.024209395, 9.832209587097168, 0.845392644405365, -1.4213017225265503, -1.43948495388031, -2.0248632431030273, 1.1213558912277222, 
192, 2497894960, 0.64377344, 0.020704053, -0.7645449, -0.024461133, 9.80916690826416, 0.8506383895874023, -1.3967422246932983, -1.481361746788025, -2.278903007507324, 1.015870213508606, 
193, 2497911627, 0.6435936, 0.020648133, -0.76468945, -0.024721626, 9.849488258361816, 0.8130261301994324, -1.3334813117980957, -2.4660675525665283, -2.640810489654541, 0.7778769135475159, 
194, 2497928294, 0.6433613, 0.020412218, -0.76487416, -0.025247062, 9.930970191955566, 0.708558976650238, -1.2095941305160522, -3.486990451812744, -3.1117897033691406, 0.32130494713783264, 
195, 2497944961, 0.64301133, 0.020009056, -0.7651505, -0.026092099, 9.935588836669922, 0.624021053314209, -0.9281584620475769, -5.075950622558594, -4.1788787841796875, -0.3689253330230713, 
196, 2497961628, 0.64247775, 0.019523568, -0.76556826, -0.027325325, 9.984789848327637, 0.45649075508117676, -0.4756435751914978, -8.843619346618652, -5.9612812995910645, -1.4081226587295532, 
197, 2497978295, 0.64157206, 0.018562084, -0.7662757, -0.029368524, 9.875836372375488, 0.1572372317314148, 0.22002622485160828, -13.97407054901123, -9.391403198242188, -2.7556214332580566, 
198, 2497994962, 0.6400661, 0.01744599, -0.7674558, -0.031978764, 9.899391174316406, -0.33630844950675964, 0.9539430141448975, -17.872589111328125, -14.869058609008789, -4.472139358520508, 
199, 2498011629, 0.63763535, 0.016536487, -0.76934826, -0.035372518, 9.858420372009277, -0.942134439945221, 1.6347935199737549, -20.658061981201172, -23.05622673034668, -9.226189613342285, 
200, 2498028296, 0.6339312, 0.016272042, -0.77222174, -0.0392436, 9.919090270996094, -1.2721240520477295, 1.8991317749023438, -20.045011520385742, -34.16877746582031, -15.023955345153809, 
201, 2498044963, 0.6289816, 0.016994158, -0.7760181, -0.043468878, 10.164804458618164, -1.1309700012207031, 1.3237550258636475, -17.54184913635254, -44.78942108154297, -22.10067367553711, 
202, 2498061630, 0.6230364, 0.01913246, -0.78050727, -0.047622524, 10.39788818359375, -0.9225530028343201, -0.05402977764606476, -10.258944511413574, -52.787654876708984, -29.79738998413086, 
203, 2498078297, 0.6165753, 0.02277761, -0.78528154, -0.051469587, 10.469345092773438, 0.0898771658539772, -1.6360087394714355, -1.9670737981796265, -56.329952239990234, -36.8275146484375, 
204, 2498094964, 0.61044383, 0.027186994, -0.78970003, -0.054708526, 10.368388175964355, 1.9897964000701904, -3.1735219955444336, 4.936749458312988, -52.62663269042969, -38.53190612792969, 
205, 2498111631, 0.605296, 0.030741079, -0.79328394, -0.058074698, 9.223360061645508, 3.446558952331543, -3.6604204177856445, 1.9360276460647583, -43.834529876708984, -34.661556243896484, 
206, 2498128298, 0.60151416, 0.03336631, -0.79581827, -0.061160967, 9.086703300476074, 3.194150447845459, -3.6278865337371826, -1.0798639059066772, -32.21592330932617, -28.03512191772461, 
207, 2498144965, 0.5995126, 0.036253463, -0.79709566, -0.06252114, 9.250585556030273, 1.9642096757888794, -3.2023208141326904, 7.9937920570373535, -16.759963989257812, -21.597665786743164, 
208, 2498161632, 0.59926194, 0.040234964, -0.7972084, -0.06103419, 9.020782470703125, 1.839247703552246, -3.149007558822632, 26.237010955810547, -1.2728784084320068, -15.08847713470459, 
209, 2498178299, 0.6006984, 0.04443082, -0.79618657, -0.05722298, 8.75440502166748, 2.386014461517334, -3.471220016479492, 38.69351577758789, 13.395222663879395, -6.194149017333984, 
210, 2498194966, 0.6038277, 0.047656637, -0.79389983, -0.05332858, 8.89400863647461, 3.0549638271331787, -3.5230915546417236, 34.2940559387207, 27.61939239501953, -0.24199043214321136, 
211, 2498211633, 0.60816884, 0.049135406, -0.790693, -0.05021018, 8.985153198242188, 3.089665174484253, -3.2883853912353516, 22.05007553100586, 37.22029495239258, 6.323311805725098, 
212, 2498228300, 0.61327773, 0.048977535, -0.786874, -0.04817845, 9.253913879394531, 2.849766969680786, -2.797853946685791, 8.734421730041504, 43.058162689208984, 10.862354278564453, 
213, 2498244967, 0.6185042, 0.047913138, -0.78287464, -0.047583684, 8.929003715515137, 2.412722587585449, -2.369575023651123, -2.969557285308838, 43.697845458984375, 9.77354907989502, 
214, 2498261634, 0.62302357, 0.046071053, -0.779338, -0.048491623, 8.939144134521484, 1.850545048713684, -2.3861024379730225, -13.862607955932617, 37.20558547973633, 7.52523946762085, 
215, 2498278301, 0.6269285, 0.04420509, -0.7762175, -0.04992982, 9.033474922180176, 1.437554121017456, -2.1333611011505127, -16.562171936035156, 31.965831756591797, 5.359347820281982, 
216, 2498294968, 0.62960684, 0.042503506, -0.77400774, -0.051971085, 8.828834533691406, 1.904308795928955, -2.3355014324188232, -18.417762756347656, 21.376672744750977, 1.750063180923462, 
217, 2498311635, 0.6315402, 0.040980257, -0.7723604, -0.054197825, 8.913797378540039, 0.8633133769035339, -2.797478437423706, -18.212072372436523, 15.018783569335938, -0.0758521556854248, 
218, 2498328302, 0.63270575, 0.04118961, -0.7712783, -0.055827063, 8.739829063415527, -0.250150591135025, -2.9390578269958496, -7.115532398223877, 9.356038093566895, -6.833280563354492, 
219, 2498344969, 0.63237506, 0.044526625, -0.7713532, -0.055978157, 8.735617637634277, -0.5596455931663513, -3.2604267597198486, 15.289932250976562, -1.901784896850586, -17.336244583129883, 
220, 2498361636, 0.6303399, 0.048913386, -0.77274656, -0.056055836, 9.562211990356445, 0.72599858045578, -3.41947865486145, 21.13641357421875, -16.17177391052246, -22.911823272705078, 
221, 2498378303, 0.62857056, 0.0510819, -0.7739836, -0.0569147, 10.741040229797363, 3.7474372386932373, -3.1554532051086426, 7.152044296264648, -15.12126350402832, -14.49548053741455, 
222, 2498394970, 0.6280074, 0.050398197, -0.774258, -0.059927754, 10.46074390411377, 4.294962406158447, -2.522326707839966, -17.41690444946289, -6.361563205718994, -8.406842231750488, 
223, 2498411637, 0.62741876, 0.048231296, -0.7744893, -0.06469894, 10.502872467041016, 2.1203453540802, -2.4333107471466064, -33.04829788208008, -7.489211082458496, -8.040769577026367, 
224, 2498428304, 0.626865, 0.047119893, -0.77469844, -0.06828283, 10.608859062194824, 0.4190397560596466, -2.362741708755493, -22.18750762939453, -6.328488349914551, -8.527278900146484, 
225, 2498444971, 0.62653035, 0.047661476, -0.77474844, -0.070377566, 9.429283142089844, 1.0277975797653198, -1.8443893194198608, -7.426061630249023, -3.2284445762634277, -10.910210609436035, 
226, 2498461638, 0.625816, 0.048391044, -0.775111, -0.07222042, 8.748709678649902, 2.336346387863159, -2.2659261226654053, -4.897202014923096, -6.402576923370361, -10.967877388000488, 
227, 2498478305, 0.6253885, 0.04837711, -0.7752144, -0.074777, 8.809840202331543, 2.569204330444336, -2.643758773803711, -12.308103561401367, -4.372501373291016, -9.954269409179688, 
228, 2498494972, 0.62531185, 0.047543306, -0.77500236, -0.07807825, 8.628442764282227, 2.609793186187744, -2.587980270385742, -19.915313720703125, -1.7437152862548828, -8.710149765014648, 
229, 2498511639, 0.6253984, 0.046304584, -0.77465475, -0.08150464, 9.001803398132324, 2.9036848545074463, -2.643956184387207, -22.53807830810547, -0.5274433493614197, -6.9912428855896, 
230, 2498528306, 0.6259278, 0.044527803, -0.77389336, -0.08556271, 9.727641105651855, 2.7948668003082275, -2.1490023136138916, -28.45167350769043, 3.1701643466949463, -6.708397388458252, 
231, 2498544973, 0.62675804, 0.04279363, -0.77283615, -0.08981923, 10.047247886657715, 1.7956147193908691, -1.4047768115997314, -29.699920654296875, 5.992053985595703, -7.644814968109131, 
232, 2498561640, 0.62715733, 0.041908454, -0.7721591, -0.09320815, 10.07343578338623, 1.3201851844787598, -1.0431771278381348, -21.098651885986328, 2.809532642364502, -8.583189964294434, 
233, 2498578307, 0.6271465, 0.04178095, -0.7718533, -0.09583387, 10.067305564880371, 1.7345895767211914, -1.4767630100250244, -13.46860408782959, -0.3136918246746063, -9.503241539001465, 
234, 2498594974, 0.62707543, 0.041925773, -0.77157474, -0.0984439, 9.82272720336914, 1.8797680139541626, -1.4346065521240234, -12.018795013427734, -0.5518260598182678, -10.968596458435059, 
235, 2498611641, 0.62676936, 0.04234601, -0.771527, -0.10056561, 9.757193565368652, 2.2532150745391846, -1.3728728294372559, -8.10901165008545, -2.5032331943511963, -10.415436744689941, 
236, 2498628308, 0.6263088, 0.0430172, -0.7716525, -0.10217302, 9.706189155578613, 2.6867237091064453, -1.7751092910766602, -4.1245808601379395, -3.763518810272217, -9.588783264160156, 
237, 2498644975, 0.62588286, 0.044036306, -0.7717994, -0.10323479, 9.675736427307129, 2.7651290893554688, -2.1474103927612305, 0.3357889950275421, -3.2530312538146973, -9.050928115844727, 
238, 2498661642, 0.62557524, 0.04558465, -0.77193207, -0.10343425, 9.465947151184082, 3.0582797527313232, -2.569700002670288, 7.160346984863281, -1.905854344367981, -8.054043769836426, 
239, 2498678309, 0.6255002, 0.047092862, -0.771929, -0.103234984, 9.395050048828125, 3.308271884918213, -2.9218084812164307, 8.852950096130371, 0.02610575221478939, -5.953264236450195, 
240, 2498694976, 0.6257388, 0.047880415, -0.77167183, -0.10334935, 9.397048950195312, 3.5884180068969727, -2.682114601135254, 3.8582777976989746, 2.235905408859253, -3.3054213523864746, 
241, 2498711643, 0.62624115, 0.04790999, -0.7712002, -0.10381238, 9.377352714538574, 3.5415139198303223, -2.4121482372283936, -1.4848064184188843, 3.9429402351379395, -0.6133217215538025, 
242, 2498728310, 0.62697595, 0.047299385, -0.7705329, -0.104609504, 9.394882202148438, 3.302765369415283, -2.0835537910461426, -6.231647491455078, 5.475502967834473, 1.4964029788970947, 
243, 2498744977, 0.6278124, 0.046477865, -0.76980317, -0.1053318, 9.429303169250488, 2.990936040878296, -1.9429113864898682, -6.804899215698242, 6.168609619140625, 3.0268137454986572, 
244, 2498761644, 0.62871933, 0.04553889, -0.7690214, -0.106039904, 9.328672409057617, 2.816915512084961, -1.9045900106430054, -7.227484226226807, 6.706221103668213, 3.7568533420562744, 
245, 2498778311, 0.6296934, 0.04436435, -0.76817447, -0.10689267, 9.344826698303223, 2.5913174152374268, -1.7642157077789307, -9.0054292678833, 7.146721363067627, 4.412551403045654, 
246, 2498794978, 0.63066316, 0.043051705, -0.76731926, -0.107851006, 9.481151580810547, 2.270988941192627, -1.2052733898162842, -10.204490661621094, 7.013267993927002, 4.696572303771973, 
247, 2498811645, 0.63143486, 0.04171915, -0.7666343, -0.10872812, 9.593111038208008, 2.454077959060669, -0.8870271444320679, -9.793815612792969, 5.187939167022705, 5.075268745422363, 
248, 2498828312, 0.63201797, 0.040218577, -0.7660721, -0.10986047, 9.619165420532227, 2.470815896987915, -0.8841595649719238, -11.515117645263672, 3.470555067062378, 4.711977481842041, 
249, 2498844979, 0.63250256, 0.03885948, -0.7655782, -0.11099741, 9.5852689743042, 2.026721954345703, -0.9780707955360413, -10.865488052368164, 2.7167465686798096, 3.8981711864471436, 
250, 2498861646, 0.632774, 0.038075782, -0.7653224, -0.111485116, 9.672203063964844, 1.5317268371582031, -1.2908406257629395, -4.723098278045654, 1.1377995014190674, 3.580214262008667, 
251, 2498878313, 0.6328547, 0.037936803, -0.7652665, -0.11145871, 9.656678199768066, 1.6736724376678467, -1.4531577825546265, 0.9998878240585327, -0.11930395662784576, 2.290422201156616, 
252, 2498894980, 0.63279366, 0.038106896, -0.76536584, -0.111065075, 9.532524108886719, 2.288949728012085, -1.4618561267852783, 4.4319000244140625, -1.2168465852737427, 2.161513566970825, 
253, 2498911647, 0.63274807, 0.03814876, -0.7654286, -0.11087706, 9.55910587310791, 2.5777506828308105, -1.4248206615447998, 2.7436001300811768, -1.136384129524231, 1.9427679777145386, 
254, 2498928314, 0.632661, 0.038106106, -0.76551765, -0.110773936, 9.614407539367676, 2.451279640197754, -1.4961549043655396, 1.8946930170059204, -1.579458236694336, 2.013420581817627, 
255, 2498944981, 0.6325524, 0.0379855, -0.7656134, -0.11077348, 9.446172714233398, 2.400617837905884, -1.4442840814590454, 1.1931612491607666, -1.7756774425506592, 1.9330610036849976, 
256, 2498961648, 0.63241446, 0.03772018, -0.765728, -0.11085917, 9.437588691711426, 2.526338577270508, -1.5701184272766113, 0.16187870502471924, -2.1440906524658203, 2.2987594604492188, 
257, 2498978315, 0.63231903, 0.037265986, -0.7657824, -0.111180566, 9.388498306274414, 2.420612096786499, -1.4862390756607056, -2.0695316791534424, -1.8926249742507935, 2.311795949935913, 
258, 2498994982, 0.6321326, 0.036862753, -0.76593256, -0.1113426, 9.622151374816895, 2.27371883392334, -1.4911681413650513, -0.7680224180221558, -2.678922176361084, 2.666083574295044, 
259, 2499011649, 0.63189274, 0.0366743, -0.76615787, -0.11121516, 9.589223861694336, 2.5710501670837402, -1.5117961168289185, 1.639270544052124, -3.0847809314727783, 2.7875776290893555, 
260, 2499028316, 0.6316778, 0.036539283, -0.76638234, -0.11093466, 9.565603256225586, 2.801274061203003, -1.5763170719146729, 2.78584885597229, -2.849067449569702, 3.1756486892700195, 
261, 2499044983, 0.6315383, 0.036474477, -0.76656216, -0.110505626, 9.597404479980469, 2.606393337249756, -1.4335976839065552, 3.7864725589752197, -2.1779117584228516, 3.51985764503479, 
262, 2499061650, 0.63132966, 0.036358222, -0.7667987, -0.11009426, 9.526688575744629, 2.4100396633148193, -1.2904624938964844, 3.6267523765563965, -2.819753885269165, 3.6666312217712402, 
263, 2499078317, 0.6309985, 0.036330856, -0.7671623, -0.10946802, 9.500913619995117, 2.3896846771240234, -1.2873809337615967, 5.301669120788574, -3.9037985801696777, 4.064448356628418, 
264, 2499094984, 0.6305556, 0.036334533, -0.76761276, -0.10885804, 9.547173500061035, 2.2390849590301514, -1.2363930940628052, 5.32443904876709, -4.892000675201416, 3.7910709381103516, 
265, 2499111651, 0.62990296, 0.036532383, -0.7682362, -0.10817034, 9.558112144470215, 2.195805072784424, -1.0439229011535645, 6.718744277954102, -6.611356735229492, 2.991250514984131, 
266, 2499128318, 0.6290223, 0.03715118, -0.76907665, -0.10710765, 9.570798873901367, 2.3047122955322266, -0.8646549582481384, 10.953694343566895, -8.324273109436035, 2.2297213077545166, 
267, 2499144985, 0.6278557, 0.038112182, -0.7701415, -0.10595775, 9.691837310791016, 1.983925700187683, -0.49258536100387573, 13.104527473449707, -10.569437026977539, 0.6454983353614807, 
268, 2499161652, 0.6263203, 0.039300468, -0.77147526, -0.104902424, 9.797067642211914, 1.1955339908599854, -0.6073502898216248, 13.835274696350098, -13.59964370727539, -1.1718722581863403, 
269, 2499178319, 0.62441254, 0.04023548, -0.7730906, -0.10402514, 9.274505615234375, 2.1479456424713135, -1.3757232427597046, 12.216708183288574, -17.036212921142578, -0.8598197102546692, 
270, 2499194986, 0.62245697, 0.040295098, -0.7746796, -0.10390079, 9.405813217163086, 2.5576250553131104, -2.4501216411590576, 4.426308631896973, -18.028160095214844, 0.5138746500015259, 
271, 2499211653, 0.6208295, 0.039862636, -0.77593786, -0.10441465, 9.444981575012207, 2.4367687702178955, -2.920079231262207, -1.4891108274459839, -15.386445999145508, 0.5658811330795288, 
272, 2499228320, 0.6194374, 0.04023688, -0.77711374, -0.10379131, 9.348430633544922, 2.5308783054351807, -2.9435555934906006, 7.831287384033203, -12.861618995666504, 1.274380087852478, 
273, 2499244987, 0.61831445, 0.040962446, -0.77811044, -0.10273091, 9.643957138061523, 2.9281492233276367, -3.089421510696411, 11.554429054260254, -10.225198745727539, 1.3842970132827759, 
274, 2499261654, 0.61755854, 0.04158026, -0.7788091, -0.101731256, 9.683082580566406, 2.7068421840667725, -2.6465299129486084, 10.543171882629395, -7.02754020690918, 1.8751516342163086, 
275, 2499278321, 0.61683345, 0.042013284, -0.7795051, -0.10061607, 9.501826286315918, 2.3342037200927734, -2.290611505508423, 10.158686637878418, -6.969167709350586, 3.4319047927856445, 
276, 2499294988, 0.6161469, 0.042350028, -0.7801834, -0.099416696, 9.41994571685791, 2.236999273300171, -2.207041025161743, 10.376112937927246, -6.677234649658203, 4.279698371887207, 
277, 2499311655, 0.6155792, 0.042770438, -0.78077966, -0.09806335, 9.358070373535156, 2.2515673637390137, -2.274564266204834, 11.349193572998047, -5.611081123352051, 4.56234884262085, 
278, 2499328322, 0.6150632, 0.043104317, -0.78131586, -0.0968769, 9.320941925048828, 2.266453266143799, -2.202678680419922, 10.069296836853027, -5.1683502197265625, 4.326517581939697, 
279, 2499344989, 0.61458355, 0.043136004, -0.7818024, -0.09597757, 9.18784236907959, 2.3824830055236816, -2.063225030899048, 7.216989040374756, -5.042694568634033, 4.742084503173828, 
280, 2499361656, 0.6141208, 0.04278147, -0.7822517, -0.09543481, 9.347457885742188, 2.3113787174224854, -2.020766258239746, 3.7336857318878174, -5.136205673217773, 5.294088840484619, 
281, 2499378323, 0.61366284, 0.042338684, -0.78267056, -0.09514422, 9.524158477783203, 1.878007173538208, -1.935607671737671, 1.7880802154541016, -5.159102916717529, 4.745296955108643, 
282, 2499394990, 0.6131021, 0.042266756, -0.78318787, -0.09453071, 9.514347076416016, 1.6896055936813354, -1.9815603494644165, 5.270357608795166, -5.784270763397217, 4.0382843017578125, 
283, 2499411657, 0.61241853, 0.042534437, -0.78381395, -0.09364845, 9.499897003173828, 1.9993436336517334, -2.1718590259552, 8.334280014038086, -6.593838691711426, 3.2533202171325684, 
284, 2499428324, 0.61174893, 0.042699736, -0.78440547, -0.092996605, 9.504051208496094, 2.1580777168273926, -2.1385128498077393, 6.537714004516602, -6.527718544006348, 2.8476524353027344, 
285, 2499444991, 0.61109316, 0.042673368, -0.78496, -0.09263977, 9.301934242248535, 2.096545457839966, -1.967771291732788, 4.277917385101318, -6.476031303405762, 2.594586133956909, 
286, 2499461658, 0.6103355, 0.04255795, -0.7855895, -0.09235132, 9.366278648376465, 1.9425145387649536, -1.8928711414337158, 3.423605442047119, -7.46367073059082, 2.7859132289886475, 
287, 2499478325, 0.6095012, 0.042452086, -0.78627473, -0.09207751, 9.576533317565918, 1.931296467781067, -1.985069751739502, 3.6441304683685303, -8.080130577087402, 2.5809860229492188, 
288, 2499494992, 0.60855365, 0.04269443, -0.7870611, -0.09151247, 9.597699165344238, 1.9325649738311768, -2.1921749114990234, 6.580808162689209, -8.859052658081055, 1.9121615886688232, 
289, 2499511659, 0.6076007, 0.042990588, -0.78786093, -0.09082176, 9.52841567993164, 2.3261966705322266, -2.4593424797058105, 7.581573009490967, -8.86226749420166, 2.114553451538086, 
290, 2499528326, 0.6066857, 0.043061808, -0.7886202, -0.09031309, 9.525816917419434, 2.5820419788360596, -2.8057315349578857, 5.880940914154053, -8.622122764587402, 2.5185043811798096, 
291, 2499544993, 0.60600805, 0.04288182, -0.78919756, -0.089904435, 9.502525329589844, 2.455325126647949, -2.842942714691162, 3.6707170009613037, -6.836171627044678, 3.680372714996338, 
292, 2499561660, 0.60544443, 0.042535182, -0.7896857, -0.089579605, 9.451408386230469, 2.262557029724121, -2.8846943378448486, 2.6042165756225586, -5.923834323883057, 4.242865562438965, 
293, 2499578327, 0.60498977, 0.04221712, -0.7901022, -0.08912712, 9.456611633300781, 2.183135986328125, -2.747244358062744, 3.633347749710083, -4.903962135314941, 4.58963680267334, 
294, 2499594994, 0.60463476, 0.041989803, -0.7904525, -0.088537514, 9.44195556640625, 2.115640878677368, -2.6443958282470703, 4.619462490081787, -3.993929624557495, 4.725768089294434, 
295, 2499611661, 0.6043273, 0.04187097, -0.7907727, -0.08783084, 9.445050239562988, 2.060744524002075, -2.4790077209472656, 5.534399509429932, -3.5311338901519775, 4.6767964363098145, 
296, 2499628328, 0.6040768, 0.041797187, -0.79105705, -0.087023675, 9.464993476867676, 2.104562520980835, -2.494370698928833, 6.085353851318359, -3.0468103885650635, 4.910332679748535, 
297, 2499644995, 0.60390073, 0.041663066, -0.7912778, -0.0863004, 9.304939270019531, 2.154374361038208, -2.507112741470337, 5.497901439666748, -2.400691270828247, 4.8670477867126465, 
298, 2499661662, 0.6037641, 0.041463777, -0.79146284, -0.085652255, 9.27271842956543, 2.0939338207244873, -2.560779333114624, 4.752187252044678, -2.1030075550079346, 4.933870792388916, 
299, 2499678329, 0.6037277, 0.04129088, -0.7915747, -0.08495559, 9.330090522766113, 1.9955981969833374, -2.605236053466797, 5.27111291885376, -1.1784659624099731, 4.972994327545166, 
300, 2499694996, 0.6037205, 0.04113801, -0.79166526, -0.08423501, 9.417276382446289, 1.995043396949768, -2.6430673599243164, 5.154280662536621, -0.9667512774467468, 5.053597450256348, 
301, 2499711663, 0.60379547, 0.040975694, -0.79168826, -0.08355772, 9.37956428527832, 1.9461870193481445, -2.6275200843811035, 4.638236999511719, -0.28691351413726807, 5.002167701721191, 
302, 2499728330, 0.60391176, 0.04075757, -0.7916785, -0.082913175, 9.300820350646973, 1.94591224193573, -2.563584804534912, 4.467053413391113, 0.09056010842323303, 5.105744361877441, 
303, 2499744997, 0.60406834, 0.04048937, -0.7916302, -0.08236382, 9.296696662902832, 1.9162278175354004, -2.468899726867676, 2.9837708473205566, 0.28195101022720337, 5.188384056091309, 
304, 2499761664, 0.6041824, 0.039988153, -0.7915986, -0.08207591, 9.371960639953613, 1.9325580596923828, -2.378934383392334, 1.3882405757904053, -0.07923289388418198, 5.143613815307617, 
305, 2499778331, 0.6042973, 0.039419733, -0.79155135, -0.08196085, 9.362377166748047, 1.9344431161880493, -2.3731417655944824, -0.40049296617507935, -0.2064639776945114, 4.940773010253906, 
306, 2499794998, 0.60436994, 0.03864545, -0.79151964, -0.08209886, 9.366425514221191, 1.8790357112884521, -2.3195173740386963, -2.1377899646759033, -0.5999647378921509, 4.85963249206543, 
307, 2499811665, 0.60439044, 0.037772782, -0.79151595, -0.08238925, 9.37369155883789, 1.8503856658935547, -2.256817102432251, -3.4992713928222656, -1.1245898008346558, 4.771358489990234, 
308, 2499828332, 0.6043424, 0.036842205, -0.79154867, -0.082849376, 9.423835754394531, 1.735376238822937, -2.1496028900146484, -4.708395957946777, -1.749334692955017, 4.372017860412598, 
309, 2499844999, 0.6042097, 0.036049716, -0.7916501, -0.08319579, 9.524227142333984, 1.659619688987732, -2.170025110244751, -3.7609941959381104, -2.4556429386138916, 4.139146327972412, 
310, 2499861666, 0.6040105, 0.03532812, -0.7917993, -0.08353123, 9.556391716003418, 1.660051941871643, -2.235496759414673, -3.013052463531494, -2.9217562675476074, 3.672086477279663, 
311, 2499878333, 0.6037371, 0.034805715, -0.79200315, -0.08379274, 9.514457702636719, 1.6180877685546875, -2.2602829933166504, -1.2725541591644287, -3.3441221714019775, 2.7295007705688477, 
312, 2499895000, 0.60338295, 0.03442317, -0.79227895, -0.08389403, 9.436376571655273, 1.7892241477966309, -2.359484910964966, 0.7293665409088135, -3.881592273712158, 2.4601705074310303, 
313, 2499911667, 0.6030249, 0.034043808, -0.7925508, -0.08405535, 9.363641738891602, 1.9676905870437622, -2.44417142868042, -0.46919915080070496, -4.063788890838623, 2.4236984252929688, 
314, 2499928334, 0.6026463, 0.03349392, -0.7928293, -0.084364966, 9.414706230163574, 1.9893178939819336, -2.5163795948028564, -2.1527605056762695, -4.366133213043213, 2.7728376388549805, 
315, 2499945001, 0.60229725, 0.032890722, -0.79308045, -0.08473393, 9.45651912689209, 1.9170154333114624, -2.4967052936553955, -2.424100875854492, -4.081089019775391, 2.748889207839966, 
316, 2499961668, 0.60191655, 0.032218087, -0.79334706, -0.08519957, 9.45955753326416, 1.867321491241455, -2.46038818359375, -3.06730055809021, -4.356682777404785, 2.6735246181488037, 
317, 2499978335, 0.6015586, 0.03169942, -0.793614, -0.08543583, 9.497556686401367, 1.8500690460205078, -2.5582964420318604, -1.4669034481048584, -4.143597602844238, 2.8662729263305664, 
318, 2499995002, 0.6012305, 0.0310861, -0.79384875, -0.085789084, 9.436226844787598, 1.8244878053665161, -2.5036659240722656, -2.3404886722564697, -3.893592119216919, 2.853492021560669, 
319, 2500011669, 0.6009074, 0.030386213, -0.794069, -0.0862641, 9.298001289367676, 1.6941165924072266, -2.2360341548919678, -3.46468186378479, -3.8998029232025146, 2.844489097595215, 
320, 2500028336, 0.60044146, 0.02976661, -0.7943962, -0.086710334, 9.403528213500977, 1.564892053604126, -2.1812353134155273, -2.848580837249756, -5.075438976287842, 2.454586982727051, 
321, 2500045003, 0.5998425, 0.029204097, -0.79481125, -0.087242156, 9.432402610778809, 1.5450958013534546, -2.167346954345703, -2.5725910663604736, -6.077189922332764, 1.5900171995162964, 
322, 2500061670, 0.5990482, 0.028775273, -0.7953565, -0.08787268, 9.414680480957031, 1.390054702758789, -2.0944912433624268, -2.529062509536743, -7.645878791809082, 0.37194129824638367, 
323, 2500078337, 0.59813666, 0.028705666, -0.7959994, -0.08828088, 9.418715476989746, 1.2367427349090576, -1.9398549795150757, -0.17517811059951782, -8.516481399536133, -0.6275624632835388, 
324, 2500095004, 0.59700495, 0.029038044, -0.7968127, -0.08849676, 9.431215286254883, 1.2285524606704712, -2.0204265117645264, 2.8291356563568115, -10.12735652923584, -2.2074573040008545, 
325, 2500111671, 0.5955887, 0.029598942, -0.79781836, -0.08879137, 9.456740379333496, 1.3571540117263794, -2.1401638984680176, 3.28944730758667, -12.398781776428223, -3.890289783477783, 
326, 2500128338, 0.59397274, 0.030338347, -0.79893816, -0.089296326, 9.520668029785156, 1.3140424489974976, -2.0042173862457275, 3.1040375232696533, -13.88967514038086, -5.872279644012451, 
327, 2500145005, 0.592054, 0.03133928, -0.8002255, -0.09016135, 9.496115684509277, 0.8129063844680786, -1.4057321548461914, 2.1798930168151855, -16.195608139038086, -8.908082008361816, 
328, 2500161672, 0.5895566, 0.03291058, -0.8019011, -0.091074705, 9.5997953414917, 0.3728647530078888, -1.089406967163086, 4.937389373779297, -20.592355728149414, -12.645040512084961, 
329, 2500178339, 0.58648884, 0.035235576, -0.80396575, -0.09180769, 9.579345703125, 0.46908804774284363, -1.1974905729293823, 9.757426261901855, -24.76580810546875, -16.511051177978516, 
330, 2500195006, 0.5828571, 0.037957262, -0.8063421, -0.09300237, 9.348845481872559, 0.45056429505348206, -1.31855046749115, 9.994962692260742, -28.858840942382812, -21.185312271118164, 
331, 2500211673, 0.57853687, 0.041604783, -0.8091263, -0.09422974, 9.49428653717041, 0.32762202620506287, -1.6675773859024048, 12.671836853027344, -34.01280212402344, -26.43254280090332, 
332, 2500228340, 0.5737181, 0.046105325, -0.8121931, -0.09520717, 9.681194305419922, 0.6292863488197327, -2.183830738067627, 17.488544464111328, -37.3682746887207, -30.39474105834961, 
333, 2500245007, 0.5681396, 0.05089623, -0.8156546, -0.09661663, 9.813660621643066, 1.6056615114212036, -2.6845035552978516, 17.716184616088867, -42.91387939453125, -34.48426818847656, 
334, 2500261674, 0.5621085, 0.055684526, -0.8193187, -0.0982359, 10.040616035461426, 2.7176222801208496, -2.9835622310638428, 16.955602645874023, -46.27278137207031, -35.633296966552734, 
335, 2500278341, 0.55584055, 0.060662773, -0.8231396, -0.09900846, 10.160186767578125, 3.4250428676605225, -3.340195894241333, 21.410903930664062, -48.05970764160156, -33.06855773925781, 
336, 2500295008, 0.54945, 0.06531457, -0.82695067, -0.09995727, 10.66015911102295, 3.411587953567505, -3.2883360385894775, 19.484268188476562, -48.95176315307617, -32.06377410888672, 
337, 2500311675, 0.5428661, 0.06962298, -0.8307669, -0.101368375, 11.022891998291016, 2.735401153564453, -2.876697540283203, 14.68100357055664, -50.77684783935547, -31.582374572753906, 
338, 2500328342, 0.53622556, 0.07401106, -0.8346084, -0.1020475, 10.625795364379883, 2.1351633071899414, -2.806467056274414, 19.12979507446289, -50.848873138427734, -29.30129051208496, 
339, 2500345009, 0.5293944, 0.07859306, -0.83854043, -0.102053106, 9.921296119689941, 2.367589235305786, -3.0340094566345215, 23.8898868560791, -51.83356857299805, -28.044601440429688, 
340, 2500361676, 0.522748, 0.08281091, -0.8422631, -0.102322936, 9.658380508422852, 2.9234261512756348, -3.5960285663604736, 20.808496475219727, -50.433597564697266, -26.903812408447266, 
341, 2500378343, 0.5164839, 0.08684359, -0.8456526, -0.1028315, 9.238234519958496, 3.2856714725494385, -4.404273986816406, 18.31539535522461, -47.305084228515625, -26.606111526489258, 
342, 2500395010, 0.5110955, 0.09064359, -0.84843254, -0.103573896, 8.788432121276855, 3.2532896995544434, -4.619042873382568, 15.186666488647461, -40.3494758605957, -25.817203521728516, 
343, 2500411677, 0.5067392, 0.094082095, -0.8505658, -0.10441269, 8.318770408630371, 3.1924216747283936, -4.660196304321289, 12.257948875427246, -32.36335372924805, -23.70387840270996, 
344, 2500428344, 0.50384104, 0.09684183, -0.8518772, -0.10522011, 8.269259452819824, 2.901021957397461, -4.624795436859131, 8.551433563232422, -21.425819396972656, -19.100101470947266, 
345, 2500445011, 0.502638, 0.0989478, -0.8523265, -0.10537568, 7.947810173034668, 2.9434452056884766, -4.504048824310303, 8.35396957397461, -8.53948974609375, -12.35713005065918, 
346, 2500461678, 0.50303876, 0.09992326, -0.8519688, -0.105434336, 7.992558002471924, 2.923768997192383, -4.438302040100098, 3.340684175491333, 2.903590440750122, -4.777486324310303, 
347, 2500478345, 0.5049358, 0.09951484, -0.8508325, -0.105927944, 7.9712605476379395, 2.793863296508789, -4.532665729522705, -5.58597993850708, 13.065847396850586, 2.378403425216675, 
348, 2500495012, 0.5084012, 0.097807564, -0.8488761, -0.106636666, 8.128009796142578, 2.7497200965881348, -4.317163467407227, -13.028743743896484, 24.003337860107422, 9.811748504638672, 
349, 2500511679, 0.5131235, 0.09549485, -0.8463096, -0.106513925, 8.262860298156738, 2.379128932952881, -4.2447428703308105, -11.591678619384766, 33.58808898925781, 16.7619571685791, 
350, 2500528346, 0.5189279, 0.09266548, -0.8432021, -0.10553379, 8.609642028808594, 2.0982654094696045, -4.095590114593506, -9.542693138122559, 41.9797248840332, 23.22151756286621, 
351, 2500545013, 0.52564865, 0.08962432, -0.8396003, -0.10359724, 8.856111526489258, 1.9612771272659302, -3.990506649017334, -5.712580680847168, 49.50741958618164, 28.195642471313477, 
352, 2500561680, 0.53320324, 0.08666117, -0.83548933, -0.100707285, 8.950326919555664, 1.7760721445083618, -3.83550763130188, -0.819144606590271, 56.79888916015625, 31.4543399810791, 
353, 2500578347, 0.5413579, 0.08360312, -0.8309478, -0.09730331, 9.081016540527344, 1.8011207580566406, -3.6702520847320557, 1.1120012998580933, 62.05973434448242, 34.024261474609375, 
354, 2500595014, 0.5500072, 0.08020096, -0.8259713, -0.09397545, 9.334939002990723, 1.818747878074646, -3.4878547191619873, -1.1943954229354858, 66.22492218017578, 35.770816802978516, 
355, 2500611681, 0.5589364, 0.07655709, -0.8206602, -0.090808585, 9.50277042388916, 1.7108508348464966, -3.1729683876037598, -3.4084954261779785, 68.8277587890625, 36.514225006103516, 
356, 2500628348, 0.56790197, 0.0727869, -0.815176, -0.087622, 9.6088228225708, 1.676101565361023, -3.021723747253418, -3.9221580028533936, 69.6176528930664, 37.218414306640625, 
357, 2500645015, 0.57678235, 0.06890754, -0.8095851, -0.084534585, 9.706007957458496, 1.3943524360656738, -3.0227746963500977, -4.93880033493042, 69.43153381347656, 37.32256317138672, 
358, 2500661682, 0.58549047, 0.06519174, -0.8039278, -0.08155552, 9.743159294128418, 0.9622029662132263, -2.8566789627075195, -4.864697456359863, 68.77484130859375, 35.82887268066406, 
359, 2500678349, 0.5938831, 0.06211062, -0.798318, -0.07831786, 9.738811492919922, 0.7253943085670471, -2.6714284420013428, -0.7270820140838623, 67.30816650390625, 33.17897033691406, 
360, 2500695016, 0.6018588, 0.059976727, -0.7928491, -0.07455912, 9.66110897064209, 0.7969600558280945, -2.5783145427703857, 6.240397930145264, 65.17515563964844, 29.91250991821289, 
361, 2500711683, 0.6093677, 0.058589764, -0.78756964, -0.07051531, 9.591680526733398, 0.9451192021369934, -2.458078145980835, 11.163423538208008, 62.348392486572266, 26.834623336791992, 
362, 2500728350, 0.61625445, 0.057813678, -0.7826264, -0.06621333, 9.528413772583008, 1.143721342086792, -2.2916438579559326, 15.525079727172852, 57.974327087402344, 24.423856735229492, 
363, 2500745017, 0.622517, 0.05765246, -0.77805007, -0.06154128, 9.409136772155762, 1.228158950805664, -2.277376890182495, 20.530216217041016, 53.49105453491211, 22.535961151123047, 
364, 2500761684, 0.62802106, 0.057935778, -0.77392477, -0.057215687, 9.392773628234863, 1.3546288013458252, -2.3241257667541504, 21.06474494934082, 47.56342697143555, 18.528060913085938, 
365, 2500778351, 0.6329501, 0.058325645, -0.77012193, -0.053707793, 9.30770492553711, 1.5599603652954102, -2.3663649559020996, 17.52587890625, 42.83958053588867, 14.332216262817383, 
366, 2500795018, 0.63721216, 0.058976438, -0.7667462, -0.050824232, 9.122682571411133, 2.004394769668579, -2.4260170459747314, 15.778023719787598, 37.3134651184082, 10.164787292480469, 
367, 2500811685, 0.64068764, 0.059652913, -0.7638988, -0.0491915, 9.097199440002441, 2.65480637550354, -2.4344873428344727, 9.798730850219727, 30.376483917236328, 4.504707336425781, 
368, 2500828352, 0.6435099, 0.060284816, -0.7615222, -0.04842228, 8.441880226135254, 3.1589410305023193, -2.38047456741333, 5.496395587921143, 24.52787971496582, 0.9395272135734558, 
369, 2500845019, 0.64547783, 0.061891768, -0.75977564, -0.047633633, 7.62362003326416, 3.4212701320648193, -3.06992769241333, 10.480032920837402, 17.628177642822266, -4.0561089515686035, 
370, 2500861686, 0.64673066, 0.064831145, -0.7584894, -0.047227383, 6.641058444976807, 3.503850221633911, -3.8657498359680176, 14.852031707763672, 12.174590110778809, -12.69739055633545, 
371, 2500878353, 0.64722854, 0.06700759, -0.7577853, -0.048651326, 5.546136379241943, 4.4503583908081055, -4.152919769287109, 2.4420580863952637, 4.656405925750732, -16.78429412841797, 
372, 2500895020, 0.6474764, 0.06689263, -0.7574914, -0.050065733, 3.879040241241455, 5.798634052276611, -4.788562774658203, -7.45169734954834, 0.8501304984092712, -4.616703033447266, 
373, 2500911687, 0.64822805, 0.062996015, -0.7570703, -0.051735625, 2.505835771560669, 6.13188362121582, -5.57911491394043, -25.890338897705078, 2.723099708557129, 14.173561096191406, 
374, 2500928354, 0.64984083, 0.052166156, -0.75590175, -0.059985735, 6.3390913009643555, 4.228824138641357, 0.8615803718566895, -91.68397521972656, 5.336463451385498, 21.04608154296875, 
375, 2500945021, 0.6465458, 0.043083604, -0.7574916, -0.0795556, 18.765182495117188, 4.161361217498779, 0.287282258272171, -139.79782104492188, -35.892574310302734, -39.58559036254883, 
376, 2500961688, 0.6425358, 0.036363948, -0.75970834, -0.09310683, 24.11992073059082, -6.337242603302002, -3.3744750022888184, -97.36577606201172, -39.41398239135742, -25.333141326904297, 
377, 2500978355, 0.6443012, 0.038737938, -0.75826675, -0.09168975, 6.262105941772461, -1.664247989654541, -1.0729389190673828, 17.17526626586914, 16.465946197509766, -4.18258810043335, 
378, 2500995022, 0.63998455, 0.04642298, -0.7618291, -0.08877716, 3.733837366104126, 0.8169252872467041, -4.449407577514648, 53.2647705078125, -33.655574798583984, -27.81324577331543, 
379, 2501011689, 0.63429236, 0.048928507, -0.7659038, -0.09311708, 8.990300178527832, 6.130306243896484, -5.677928924560547, -6.776332378387451, -48.49964904785156, -33.27286911010742, 
380, 2501028356, 0.6338605, 0.049988717, -0.7655671, -0.098129, 10.372428894042969, 5.6199235916137695, -2.6691977977752686, -21.212116241455078, -2.617372751235962, -26.615726470947266, 
381, 2501045023, 0.6329033, 0.050131924, -0.7658547, -0.10191708, 9.503373146057129, 2.9404642581939697, -0.9903528690338135, -18.15393829345703, -8.283884048461914, -16.522994995117188, 
382, 2501061690, 0.63087565, 0.049938597, -0.76682305, -0.10716646, 9.673712730407715, 1.384868860244751, -1.2676979303359985, -26.458782196044922, -17.64018440246582, -21.612285614013672, 
383, 2501078357, 0.62866974, 0.051461954, -0.7679438, -0.11130393, 10.334038734436035, 0.2889463007450104, -0.6005422472953796, -12.97655963897705, -17.60699462890625, -25.942363739013672, 
384, 2501095024, 0.62560105, 0.055389363, -0.76995295, -0.112819016, 9.872735977172852, 1.2693324089050293, 0.22842496633529663, 12.244847297668457, -23.264978408813477, -27.699739456176758, 
385, 2501111691, 0.6213977, 0.05948977, -0.77280724, -0.114433534, 9.184759140014648, 3.543520450592041, 0.04093804955482483, 13.560508728027344, -32.854530334472656, -29.629812240600586, 
386, 2501128358, 0.6171841, 0.061899852, -0.7754767, -0.117849134, 8.997054100036621, 3.7203118801116943, -0.2768245041370392, -3.3539297580718994, -34.22462844848633, -28.405235290527344, 
387, 2501145025, 0.6127593, 0.06410242, -0.7782995, -0.12110732, 8.951021194458008, 2.6754660606384277, -0.7702348232269287, -3.1618716716766357, -36.1357421875, -26.712583541870117, 
388, 2501161692, 0.6077803, 0.06681749, -0.7814659, -0.12429686, 8.689265251159668, 1.7015503644943237, -1.1919829845428467, -0.092654749751091, -40.11509323120117, -29.476951599121094, 
389, 2501178359, 0.60205674, 0.06956048, -0.78509545, -0.12772822, 8.88460636138916, 1.9068082571029663, -1.1657536029815674, -0.531879186630249, -46.15250015258789, -31.082820892333984, 
390, 2501195026, 0.59601134, 0.072603896, -0.7888915, -0.13095616, 8.82833480834961, 2.4889659881591797, -1.6116398572921753, 2.116088628768921, -48.2372932434082, -32.08641815185547, 
391, 2501211693, 0.58946705, 0.07545148, -0.79282326, -0.13515556, 8.763339042663574, 2.051328420639038, -1.4028120040893555, -3.576313018798828, -52.17098617553711, -35.39567184448242, 
392, 2501228360, 0.5821472, 0.07836127, -0.79718465, -0.13950267, 8.786127090454102, 2.377713441848755, -1.1481279134750366, -3.3197689056396484, -58.17744827270508, -36.85291290283203, 
393, 2501245027, 0.5742942, 0.0814724, -0.80180883, -0.14370556, 8.4599027633667, 2.933117628097534, -1.2872684001922607, -1.1729297637939453, -61.90616989135742, -37.76615524291992, 
394, 2501261694, 0.5661944, 0.08435388, -0.8063039, -0.14893723, 8.498682975769043, 2.4903135299682617, -1.1058003902435303, -7.725870609283447, -63.58266830444336, -40.885475158691406, 
395, 2501278361, 0.55746925, 0.08725255, -0.8109791, -0.15468682, 8.549785614013672, 2.095698833465576, -0.9787458181381226, -9.96856689453125, -68.06379699707031, -43.55105209350586, 
396, 2501295028, 0.5478571, 0.09019573, -0.81598705, -0.16088067, 8.502118110656738, 2.203850030899048, -1.2490472793579102, -11.376810073852539, -74.53877258300781, -46.276668548583984, 
397, 2501311695, 0.5374725, 0.09371607, -0.82129645, -0.16677196, 8.068037986755371, 2.7679569721221924, -2.48522686958313, -6.679792404174805, -79.21344757080078, -49.07307052612305, 
398, 2501328362, 0.52682585, 0.09806735, -0.8265079, -0.17240132, 7.711333274841309, 2.8608288764953613, -3.2447750568389893, -2.0664095878601074, -79.21858978271484, -53.18037033081055, 
399, 2501345029, 0.51588, 0.10336695, -0.8316617, -0.17754433, 8.214510917663574, 2.471348524093628, -3.337853193283081, 4.268967628479004, -79.25348663330078, -57.21857452392578, 
400, 2501361696, 0.50411433, 0.10995338, -0.8370121, -0.18218076, 9.48169994354248, 2.2763726711273193, -3.0521464347839355, 12.549501419067383, -82.7087173461914, -63.67107009887695, 
401, 2501378363, 0.49156335, 0.11753198, -0.84226286, -0.18747047, 11.058381080627441, 1.8664100170135498, -1.6013755798339844, 12.698166847229004, -86.1572494506836, -72.752197265625, 
402, 2501395030, 0.47794867, 0.12638858, -0.84750307, -0.19320863, 12.66861629486084, 0.8584550023078918, -1.8206946849822998, 15.27649211883545, -91.06311798095703, -83.11975860595703, 
403, 2501411697, 0.46247575, 0.13843308, -0.8533996, -0.1966259, 11.515439987182617, 1.9296027421951294, -3.3967137336730957, 41.76414489746094, -97.88178253173828, -96.07140350341797, 
404, 2501428364, 0.4454056, 0.15300119, -0.8594792, -0.19874644, 11.581748962402344, 2.5223782062530518, -3.810377359390259, 59.16334533691406, -103.24687194824219, -108.81693267822266, 
405, 2501445031, 0.42682907, 0.16799547, -0.8657242, -0.20029049, 17.32401466369629, 1.4232687950134277, -1.0224010944366455, 65.68595123291016, -111.52752685546875, -111.52249145507812, 
406, 2501461698, 0.40725818, 0.17845157, -0.870995, -0.2089588, 28.767696380615234, -2.170975923538208, 3.172952175140381, 9.780082702636719, -129.23764038085938, -108.05850219726562, 
407, 2501478365, 0.3858131, 0.18868671, -0.8760397, -0.21931726, 30.776195526123047, -4.171056270599365, 1.5133781433105469, 1.028464913368225, -142.59332275390625, -114.76668548583984, 
408, 2501495032, 0.36047667, 0.20542927, -0.88218814, -0.22270964, 21.59195899963379, -2.295600414276123, -2.2204859256744385, 66.946044921875, -150.50750732421875, -140.29318237304688, 
409, 2501511699, 0.33509707, 0.22390074, -0.889145, -0.21679409, 10.9446382522583, 0.7765228152275085, -5.352424621582031, 128.95706176757812, -137.24781799316406, -126.84005737304688, 
410, 2501528366, 0.31559867, 0.24085017, -0.8951, -0.20294036, -0.5848500728607178, 2.3327319622039795, -5.55197811126709, 163.40054321289062, -89.1510009765625, -92.03124237060547, 
411, 2501545033, 0.3102311, 0.25334463, -0.8971125, -0.18644704, -11.440601348876953, 6.4042582511901855, -4.4453606605529785, 141.05929565429688, 4.566976547241211, -45.56191635131836, 
412, 2501561700, 0.32667348, 0.2513778, -0.8951456, -0.1697296, -10.519062995910645, 6.447569847106934, -4.094664096832275, 68.56153869628906, 129.6463623046875, 65.3946762084961, 
413, 2501578367, 0.35684022, 0.2373815, -0.8888192, -0.16222061, 1.7987021207809448, 8.359457015991211, -2.4366066455841064, -43.907928466796875, 194.1837615966797, 127.44046783447266, 
414, 2501595034, 0.3936039, 0.2222562, -0.8783442, -0.15553148, 0.8466323614120483, 6.851566791534424, -3.101137399673462, -67.0128173828125, 242.12608337402344, 133.00540161132812, 
415, 2501611701, 0.43030715, 0.21023121, -0.86676586, -0.13912435, -4.666762828826904, 4.75479793548584, -4.0680437088012695, -0.9604939818382263, 262.9591979980469, 138.9306182861328, 
416, 2501628368, 0.46812242, 0.19857049, -0.853242, -0.11579855, -7.839206218719482, 5.10331392288208, -8.778507232666016, 37.89314270019531, 285.8254089355469, 155.64381408691406, 
417, 2501645035, 0.50726986, 0.1801163, -0.83743036, -0.09458374, -9.823558807373047, 8.299111366271973, -12.400646209716797, -0.061150725930929184, 292.9395446777344, 186.8341827392578, 
418, 2501661702, 0.5440972, 0.16224012, -0.81972617, -0.07540318, -6.865421772003174, 7.314463138580322, -8.958627700805664, -8.167902946472168, 284.31353759765625, 172.77235412597656, 
419, 2501678369, 0.5747875, 0.14154617, -0.80302787, -0.06877816, -3.1244852542877197, 8.640217781066895, -11.042424201965332, -82.15939331054688, 230.6538848876953, 139.77142333984375, 
420, 2501695036, 0.60053897, 0.11715831, -0.7877466, -0.07129086, 0.38321128487586975, 8.102774620056152, -12.20987606048584, -141.77984619140625, 187.33494567871094, 123.25321197509766, 
421, 2501711703, 0.6214945, 0.09732862, -0.77406, -0.071434714, 5.4115824699401855, 4.175306797027588, -9.282011985778809, -105.51383972167969, 159.09933471679688, 107.40690612792969, 
422, 2501728370, 0.6311569, 0.0864821, -0.76765794, -0.069736436, 11.57470417022705, 1.812607765197754, -8.140641212463379, -46.217594146728516, 73.62610626220703, 66.83019256591797, 
423, 2501745037, 0.6335156, 0.08373171, -0.7663155, -0.06638954, 10.130681037902832, 3.3891992568969727, -6.2755818367004395, 4.353428840637207, 18.083908081054688, 30.737934112548828, 
424, 2501761704, 0.628876, 0.08485134, -0.7700959, -0.06532721, 6.111988544464111, 8.177242279052734, -4.923003673553467, 15.528597831726074, -40.57027053833008, 0.16743133962154388, 
425, 2501778371, 0.6192579, 0.08180914, -0.7775763, -0.07212574, 5.716488361358643, 8.123620986938477, -5.9443488121032715, -39.5008544921875, -89.31987762451172, -11.743669509887695, 
426, 2501795038, 0.60938036, 0.07861758, -0.7845467, -0.08343685, 4.642287731170654, 2.2555079460144043, -0.6793263554573059, -64.34558868408203, -91.0733871459961, -30.455345153808594, 
427, 2501811705, 0.59439397, 0.07316814, -0.79345584, -0.10849038, 10.06616497039795, 1.7640435695648193, -1.7133471965789795, -144.05255126953125, -135.52235412597656, -77.73287200927734, 
428, 2501828372, 0.5825977, 0.070350714, -0.79941666, -0.12870058, 22.175092697143555, -8.079450607299805, 0.5615516901016235, -110.64691925048828, -101.70046997070312, -71.41962432861328, 
429, 2501845039, 0.5729653, 0.07083723, -0.8042575, -0.14093533, 20.121381759643555, 1.9846527576446533, 2.077775001525879, -55.637733459472656, -78.66958618164062, -56.52027130126953, 
430, 2501861706, 0.5580011, 0.07563766, -0.8106949, -0.16027392, 26.029226303100586, 1.0203447341918945, 7.6789422035217285, -73.75179290771484, -113.8801040649414, -112.84805297851562, 
431, 2501878373, 0.53828794, 0.07706448, -0.8208341, -0.1747537, 49.011985778808594, -7.449712753295898, -6.669463634490967, -52.99269104003906, -156.02618408203125, -78.87168884277344, 
432, 2501895040, 0.5217073, 0.080421284, -0.8276115, -0.19082253, -2.6041884422302246, 6.329609394073486, -8.720548629760742, -60.608238220214844, -124.61860656738281, -94.12556457519531, 
433, 2501911707, 0.50012475, 0.093716465, -0.83742815, -0.19951646, -19.478178024291992, 8.119891166687012, -11.486333847045898, 23.753620147705078, -146.7039337158203, -128.99949645996094, 
434, 2501928374, 0.4862188, 0.109392375, -0.8434614, -0.2004937, 7.364414691925049, 10.552726745605469, -5.338988780975342, 66.21417236328125, -80.9145736694336, -107.79944610595703, 
435, 2501945041, 0.47153947, 0.11981747, -0.8502508, -0.20091818, 14.52470874786377, 17.331655502319336, -6.747384071350098, 53.53597640991211, -94.72020721435547, -75.90382385253906, 
436, 2501961708, 0.45978546, 0.12514178, -0.85428965, -0.20766822, 14.99062728881836, 11.560806274414062, -4.390708923339844, -6.092698097229004, -80.97415161132812, -64.7000732421875, 
437, 2501978375, 0.45040038, 0.1286615, -0.8563946, -0.2171959, 22.269039154052734, 4.996480464935303, -1.2326180934906006, -32.83924102783203, -65.97899627685547, -61.14235305786133, 
438, 2501995042, 0.43832108, 0.13456163, -0.85962874, -0.2254026, 25.100088119506836, -1.7971742153167725, -3.197826862335205, -13.579015731811523, -80.79447174072266, -74.23374938964844, 
439, 2502011709, 0.4189421, 0.14541239, -0.8665515, -0.22897881, 29.50490951538086, -6.264822006225586, -2.0328545570373535, 41.143367767333984, -123.28663635253906, -97.70228576660156, 
440, 2502028376, 0.39506546, 0.15693603, -0.8748003, -0.23241976, 28.858224868774414, -5.6577959060668945, -1.0172735452651978, 50.39894485473633, -152.97047424316406, -107.42742156982422, 
441, 2502045043, 0.37017217, 0.16880861, -0.88243306, -0.23619531, 20.917259216308594, -3.727301836013794, -1.613840937614441, 49.377925872802734, -157.4993133544922, -113.04978942871094, 
442, 2502061710, 0.34847298, 0.1805201, -0.8886557, -0.237214, 12.119221687316895, -3.736490249633789, -0.8327319622039795, 59.638057708740234, -131.7957763671875, -101.71833801269531, 
443, 2502078377, 0.33340946, 0.1915532, -0.89258343, -0.23545824, 1.7975038290023804, -3.338111162185669, -1.0253647565841675, 62.93474197387695, -83.5431900024414, -83.0676498413086, 
444, 2502095044, 0.32997668, 0.19831173, -0.89401233, -0.22919406, -6.117572784423828, -4.868199348449707, 0.3000771403312683, 61.39848327636719, -7.434966564178467, -30.970373153686523, 
445, 2502111711, 0.34766158, 0.19939415, -0.89311314, -0.20426114, -10.274252891540527, -1.0090343952178955, -0.2811982035636902, 130.7855987548828, 144.23654174804688, 76.45269775390625, 
446, 2502128378, 0.38212994, 0.19570307, -0.8865763, -0.17221901, -0.8430960178375244, 7.7345781326293945, -0.48333603143692017, 132.1350860595703, 263.99566650390625, 138.782470703125, 
447, 2502145045, 0.4246011, 0.19004387, -0.87352365, -0.14336592, -1.6437994241714478, 9.228975296020508, -2.034898281097412, 89.13692474365234, 323.3272399902344, 143.26634216308594, 
448, 2502161712, 0.46521103, 0.17290857, -0.8582923, -0.13044529, -8.296086311340332, 8.984384536743164, -8.177253723144531, -39.74087905883789, 286.3816833496094, 161.13995361328125, 
449, 2502178379, 0.5050924, 0.15996088, -0.84136766, -0.106746644, -8.481371879577637, 7.85946798324585, -11.005319595336914, 36.65339279174805, 304.2779541015625, 168.4391632080078, 
450, 2502195046, 0.54545325, 0.149319, -0.8213025, -0.07514482, -7.822038173675537, 9.131731033325195, -14.010370254516602, 87.5535888671875, 328.6034240722656, 179.6611785888672, 
451, 2502211713, 0.57941586, 0.13210095, -0.8022976, -0.05608309, -5.4706315994262695, 10.60395622253418, -15.262524604797363, -0.8824707865715027, 272.41680908203125, 167.71420288085938, 
452, 2502228380, 0.6069703, 0.10876245, -0.78543824, -0.053336475, -0.5226328372955322, 11.735306739807129, -10.818647384643555, -108.6696548461914, 211.56910705566406, 136.12767028808594, 
453, 2502245047, 0.62810785, 0.08817063, -0.7711441, -0.055169124, 5.8000359535217285, 12.320181846618652, -10.005571365356445, -116.1951904296875, 163.93052673339844, 101.9227523803711, 
454, 2502261714, 0.64068294, 0.0703771, -0.7623512, -0.05825162, 10.820466041564941, 10.296964645385742, -9.566676139831543, -103.45440673828125, 95.1822738647461, 81.94598388671875, 
455, 2502278381, 0.647474, 0.056252982, -0.7572265, -0.06496974, 12.098567008972168, 5.133812427520752, -6.666627883911133, -102.0836410522461, 48.513710021972656, 46.28653335571289, 
456, 2502295048, 0.64610195, 0.05130009, -0.75801885, -0.07299375, 10.110777854919434, 0.45750898122787476, -4.069765090942383, -62.259708404541016, -16.678245544433594, -8.588431358337402, 
457, 2502311715, 0.64006096, 0.058132954, -0.76213807, -0.078026935, 4.951785564422607, -1.2252346277236938, -1.5426225662231445, 8.993385314941406, -48.78739929199219, -57.923370361328125, 
458, 2502328382, 0.6268157, 0.0707475, -0.7708939, -0.08842917, 3.791152238845825, -1.5251729488372803, 1.6161338090896606, 11.66992473602295, -105.98052215576172, -113.91242980957031, 
459, 2502345049, 0.6089433, 0.07728537, -0.7822253, -0.10648288, 11.056321144104004, 0.6346854567527771, -0.2776567339897156, -51.246856689453125, -149.07273864746094, -116.29192352294922, 
460, 2502361716, 0.59477717, 0.07702424, -0.7903417, -0.12516956, 20.795381546020508, 1.9880485534667969, -0.07065263390541077, -87.42342376708984, -121.0322265625, -81.40724182128906, 
461, 2502378383, 0.58529216, 0.072476275, -0.7944358, -0.14509316, 16.550212860107422, 6.910048484802246, 3.7339091300964355, -117.59599304199219, -83.58295440673828, -61.34089279174805, 
462, 2502395050, 0.5679854, 0.069342256, -0.8019682, -0.17155564, 28.94131088256836, -0.9929451942443848, 3.8037970066070557, -140.23875427246094, -142.1505889892578, -101.47493743896484, 
463, 2502411717, 0.5503759, 0.06617734, -0.81045014, -0.18941478, 32.43947982788086, -2.417248010635376, -2.51416015625, -91.60828399658203, -143.6509246826172, -67.80094909667969, 
464, 2502428384, 0.5299061, 0.0709991, -0.8194646, -0.2064861, 15.020182609558105, -2.930865526199341, -8.637085914611816, -55.017024993896484, -150.97059631347656, -113.06338500976562, 
465, 2502445051, 0.5074826, 0.08458626, -0.8295931, -0.21698397, 2.055668354034424, 1.1345161199569702, -8.846725463867188, 16.42949104309082, -150.34165954589844, -140.88058471679688, 
466, 2502461718, 0.48622054, 0.10338228, -0.83944786, -0.21961169, -1.2768610715866089, 6.851846218109131, -10.174808502197266, 78.36475372314453, -130.29954528808594, -141.5547637939453, 
467, 2502478385, 0.46730214, 0.12162718, -0.84800917, -0.21843998, 3.6166369915008545, 11.10052490234375, -10.094586372375488, 94.80355834960938, -110.43238830566406, -122.94805145263672, 
468, 2502495052, 0.4495875, 0.13469338, -0.8556691, -0.218081, 10.26882266998291, 13.084872245788574, -8.287252426147461, 71.06592559814453, -108.8669662475586, -94.19699096679688, 
469, 2502511719, 0.43430078, 0.14045537, -0.8611828, -0.22365025, 16.450679779052734, 11.237018585205078, -5.503493309020996, 8.181791305541992, -104.36359405517578, -67.82606506347656, 
470, 2502528386, 0.42011085, 0.14300634, -0.8650348, -0.2340321, 24.074440002441406, 5.876761436462402, -3.9027345180511475, -33.46291732788086, -102.56202697753906, -63.1173210144043, 
471, 2502545053, 0.40523604, 0.14860177, -0.8685273, -0.24364269, 28.529911041259766, -1.3298274278640747, -1.8009698390960693, -19.964433670043945, -100.09844207763672, -80.59827423095703, 
472, 2502561720, 0.3876934, 0.15942676, -0.87285495, -0.24980314, 29.064794540405273, -5.79578971862793, 0.8899326324462891, 19.31165885925293, -106.29914855957031, -106.09410095214844, 
473, 2502578387, 0.37014905, 0.17440918, -0.8770294, -0.25177526, 21.10941505432129, -5.694799423217773, 1.348663568496704, 55.232635498046875, -94.44029235839844, -120.35791778564453, 
474, 2502595054, 0.35085014, 0.19120805, -0.8839334, -0.24291033, 8.33991813659668, -0.779736340045929, -1.596521019935608, 132.01014709472656, -96.05486297607422, -103.7099838256836, 
475, 2502611721, 0.33246243, 0.21150775, -0.8910131, -0.22545286, -7.373098373413086, 5.772744178771973, -2.7181012630462646, 191.7754364013672, -73.89653778076172, -102.53897857666016, 
476, 2502628388, 0.31921154, 0.22968978, -0.8956268, -0.20784469, -13.32967472076416, 1.5951799154281616, -2.003026247024536, 176.6048126220703, -39.768672943115234, -84.67291259765625, 
477, 2502645055, 0.33116946, 0.22774015, -0.8931636, -0.20179239, -2.714695692062378, 3.543654203414917, 2.1097118854522705, 11.32449722290039, 84.14146423339844, 38.94348907470703, 
478, 2502661722, 0.3651971, 0.21397224, -0.8845628, -0.19594893, -3.735084056854248, 5.765635013580322, 0.556661069393158, -59.898128509521484, 216.99098205566406, 132.1349334716797, 
479, 2502678389, 0.4068558, 0.19736706, -0.8726878, -0.18420292, -3.8434267044067383, 3.050154209136963, -0.33236685395240784, -46.70713424682617, 276.5751037597656, 169.79443359375, 
480, 2502695056, 0.4502562, 0.1815787, -0.85900086, -0.16253078, -3.1334097385406494, 5.152310371398926, -1.7730087041854858, 10.512310981750488, 306.67041015625, 192.5098876953125, 
481, 2502711723, 0.49475148, 0.16907161, -0.84130794, -0.13724796, -3.834904432296753, 6.9523210525512695, -7.89492130279541, 36.178001403808594, 333.7789306640625, 180.64320373535156, 
482, 2502728390, 0.53416276, 0.16006115, -0.82271045, -0.11044599, -3.409341812133789, 3.6239919662475586, -16.102203369140625, 61.90396499633789, 312.597900390625, 159.85487365722656, 
483, 2502745057, 0.5736496, 0.15331988, -0.8004155, -0.08218468, -1.4287493228912354, 4.5301032066345215, -11.849478721618652, 75.5142822265625, 330.1731262207031, 148.45669555664062, 
484, 2502761724, 0.6046772, 0.14264838, -0.7811777, -0.061471097, 1.8268311023712158, 9.271980285644531, -12.811917304992676, 29.037322998046875, 261.47479248046875, 138.81088256835938, 
485, 2502778391, 0.62875104, 0.13089229, -0.764848, -0.050468586, 8.253345489501953, 15.061509132385254, -11.995953559875488, -19.624616622924805, 202.1780242919922, 104.27752685546875, 
486, 2502795058, 0.6508119, 0.11514393, -0.7489723, -0.04718749, 15.39186954498291, 15.285451889038086, -8.601053237915039, -75.53643035888672, 181.4244384765625, 91.78328704833984, 
487, 2502811725, 0.6645985, 0.10195554, -0.7388422, -0.045014985, 13.780710220336914, 4.54384183883667, -5.522786617279053, -61.372344970703125, 113.1090316772461, 75.66582489013672, 
488, 2502828392, 0.66937447, 0.09711216, -0.7352134, -0.044369776, 9.689411163330078, -0.9583414196968079, -5.052304744720459, -22.684967041015625, 39.17555618286133, 28.079545974731445, 
489, 2502845059, 0.6664653, 0.10408677, -0.7369595, -0.043367587, 5.476728916168213, -2.1884031295776367, -2.1694722175598145, 40.25725555419922, -20.5079402923584, -28.82117462158203, 
490, 2502861726, 0.65072685, 0.11879574, -0.74827296, -0.050298017, 1.692910075187683, 4.243346214294434, -3.2026100158691406, 47.5335807800293, -132.71080017089844, -101.40614318847656, 
491, 2502878393, 0.6331433, 0.11666976, -0.76176083, -0.07237543, 8.215950965881348, 1.9418189525604248, -2.5266025066375732, -103.45861053466797, -170.10296630859375, -81.37408447265625, 
492, 2502895060, 0.6260353, 0.10439583, -0.7665248, -0.09808896, 14.335731506347656, 1.6255606412887573, 1.645211935043335, -179.4211883544922, -85.2257308959961, -45.82551574707031, 
493, 2502911727, 0.61547947, 0.10183874, -0.77270836, -0.1171996, 19.005115509033203, -5.025392532348633, 1.8679215908050537, -99.32744598388672, -98.29817199707031, -69.94889068603516, 
494, 2502928394, 0.59788203, 0.10287271, -0.7826806, -0.13915953, 21.231910705566406, -3.7418086528778076, -1.0251498222351074, -91.29169464111328, -150.95486450195312, -104.26817321777344, 
495, 2502945061, 0.5818215, 0.11114361, -0.7918755, -0.14853983, 10.28477668762207, -1.4305965900421143, 1.8868085145950317, 4.316142559051514, -123.7193832397461, -90.72561645507812, 
496, 2502961728, 0.5606607, 0.11865077, -0.80511785, -0.15286285, 10.431482315063477, 6.580809116363525, -3.8163208961486816, 36.839561462402344, -164.66726684570312, -68.52976989746094, 
497, 2502978395, 0.5417419, 0.12538369, -0.81477004, -0.16414791, 16.085159301757812, 9.830543518066406, -6.1951141357421875, -10.272825241088867, -144.9016876220703, -91.63189697265625, 
498, 2502995062, 0.52612585, 0.12944861, -0.82152104, -0.17758961, 14.235245704650879, 8.95442008972168, -5.080305099487305, -38.39205551147461, -120.46080017089844, -83.46508026123047, 
499, 2503011729, 0.50888443, 0.13216396, -0.82987356, -0.18675984, 9.680672645568848, 7.121020793914795, -6.999419212341309, -15.71609115600586, -133.29559326171875, -60.93429183959961, 
500, 2503028396, 0.4909328, 0.13621993, -0.8381324, -0.19484155, 11.542616844177246, 5.878734588623047, -5.447704792022705, -4.284996509552002, -134.28184509277344, -65.75637817382812, 
501, 2503045063, 0.4729576, 0.14135888, -0.84589916, -0.20194905, 21.3466854095459, 3.6111838817596436, -2.3556833267211914, 4.356741428375244, -130.4017791748047, -69.21744537353516, 
502, 2503061730, 0.45374164, 0.14458053, -0.8539419, -0.20975785, 37.82177734375, -4.140317916870117, -0.12793207168579102, -4.355372428894043, -141.9726104736328, -61.91332244873047, 
503, 2503078397, 0.43243518, 0.15255271, -0.86040753, -0.22232117, 32.010276794433594, -12.630395889282227, 2.9917659759521484, -17.68067169189453, -147.46798706054688, -109.53712463378906, 
504, 2503095064, 0.4032204, 0.1690239, -0.8702361, -0.22700997, 23.362642288208008, -10.259832382202148, 0.36799895763397217, 67.54136657714844, -183.28858947753906, -145.3250732421875, 
505, 2503111731, 0.37444505, 0.18831004, -0.8809936, -0.21950133, 12.421257972717285, -1.2740533351898193, -1.343611478805542, 149.192138671875, -164.88015747070312, -126.81848907470703, 
506, 2503128398, 0.34502304, 0.21260884, -0.89154446, -0.20225039, -6.135869979858398, 8.768146514892578, -6.049419403076172, 221.6434783935547, -148.23019409179688, -133.3994598388672, 
507, 2503145065, 0.3194189, 0.23839776, -0.89835787, -0.18463843, -17.861812591552734, 6.3946309089660645, -8.261641502380371, 216.6525115966797, -113.27656555175781, -141.65753173828125, 
508, 2503161732, 0.31482664, 0.24044181, -0.89892447, -0.18710099, 0.3498818576335907, 4.684275150299072, 0.5961188673973083, -1.9037641286849976, -32.5634880065918, -22.412696838378906, 
509, 2503178399, 0.33334893, 0.22708897, -0.8938526, -0.19579808, 4.032132148742676, 6.510341644287109, 0.7589591145515442, -119.18565368652344, 92.40467834472656, 79.69094848632812, 
510, 2503195066, 0.36126938, 0.21264496, -0.88605046, -0.19794299, 0.4704514443874359, 4.667049884796143, 0.5535240769386292, -99.7010269165039, 165.17515563964844, 109.80928039550781, 
511, 2503211733, 0.39385408, 0.19875666, -0.87691766, -0.19076231, 0.40494203567504883, 6.2104811668396, -0.4810784161090851, -50.084163665771484, 211.30740356445312, 134.02647399902344, 
512, 2503228400, 0.43535438, 0.18076785, -0.86335933, -0.18000126, -5.490781307220459, 8.487174987792969, -5.012015342712402, -57.54811477661133, 276.6260986328125, 174.1783905029297, 
513, 2503245067, 0.48253423, 0.16114256, -0.84642977, -0.15732358, -11.155740737915039, 4.1969099044799805, -9.42343807220459, -2.8944921493530273, 333.383544921875, 222.58580017089844, 
514, 2503261734, 0.5259435, 0.15071943, -0.8288641, -0.116839066, -4.852758884429932, 5.956358432769775, -7.9196906089782715, 134.79254150390625, 343.43328857421875, 223.4876708984375, 
515, 2503278401, 0.5667249, 0.14011274, -0.8077154, -0.08238449, 0.3079579174518585, 9.244778633117676, -12.19040584564209, 99.55230712890625, 335.0943908691406, 196.9866485595703, 
516, 2503295068, 0.60619867, 0.11972933, -0.78343, -0.06652581, 1.9428943395614624, 9.620721817016602, -14.28066349029541, -42.43329620361328, 316.700927734375, 175.1521453857422, 
517, 2503311735, 0.6434687, 0.09110777, -0.75761867, -0.060510613, 4.452056884765625, 9.589765548706055, -11.50107479095459, -128.75335693359375, 299.475341796875, 176.36048889160156, 
518, 2503328402, 0.67441314, 0.065969914, -0.73362756, -0.05104491, 9.291295051574707, 6.353508472442627, -9.606188774108887, -90.6543960571289, 262.1575622558594, 172.08462524414062, 
519, 2503345069, 0.69686234, 0.04990223, -0.7144922, -0.037333243, 15.865966796875, 2.120187282562256, -6.6063032150268555, -21.629056930541992, 201.94749450683594, 145.27542114257812, 
520, 2503361736, 0.7121793, 0.04270684, -0.700352, -0.02199795, 18.460424423217773, 0.6456963419914246, -4.228805065155029, 32.563594818115234, 145.85992431640625, 109.32612609863281, 
521, 2503378403, 0.7203542, 0.042471968, -0.6922151, -0.011162976, 11.319170951843262, 2.618079662322998, -1.0824652910232544, 47.9605827331543, 81.85017395019531, 54.41994094848633, 
522, 2503395070, 0.72086996, 0.04762321, -0.6913643, -0.009702416, 8.442893028259277, 0.47451505064964294, -2.006748914718628, 32.81316375732422, 7.005273818969727, -16.091827392578125, 
523, 2503411737, 0.71527, 0.056226186, -0.6964449, -0.013857772, 7.340439796447754, -4.070606708526611, -0.8760932683944702, 25.617856979370117, -53.042423248291016, -58.81072235107422, 
524, 2503428404, 0.70459026, 0.07127804, -0.7057014, -0.021395102, 6.586653709411621, -1.5052231550216675, 1.4811935424804688, 43.49052810668945, -98.58816528320312, -105.26850891113281, 
525, 2503445071, 0.68886715, 0.07890787, -0.7197596, -0.034380026, 9.4765625, 0.9541109204292297, -1.6053531169891357, -15.723474502563477, -150.11328125, -94.07084655761719, 
526, 2503461738, 0.6777524, 0.07767749, -0.7293668, -0.05140215, 13.76845932006836, 5.635592937469482, 1.6866146326065063, -81.22761535644531, -110.49749755859375, -70.6665267944336, 
527, 2503478405, 0.6674037, 0.076618716, -0.73747736, -0.069492646, 15.776472091674805, 1.8677507638931274, 2.015367031097412, -86.70037841796875, -100.23707580566406, -76.98355865478516, 
528, 2503495072, 0.65611434, 0.07585521, -0.7457987, -0.086858414, 15.754493713378906, 1.4606086015701294, -0.33094555139541626, -81.05809783935547, -105.50782775878906, -75.5051498413086, 
529, 2503511739, 0.6443772, 0.07741129, -0.7540013, -0.10133067, 14.338278770446777, 2.662415027618408, -2.1105117797851562, -55.592933654785156, -104.40254974365234, -74.69600677490234, 
530, 2503528406, 0.6316597, 0.079123996, -0.76277465, -0.11366787, 12.086396217346191, 4.07304048538208, -4.394857406616211, -42.90681457519531, -110.77474212646484, -66.43708801269531, 
531, 2503545073, 0.619658, 0.07908114, -0.7708336, -0.1248438, 10.801187515258789, 6.415070533752441, -6.048586845397949, -45.392112731933594, -104.63677978515625, -52.00349807739258, 
532, 2503561740, 0.60971385, 0.077070564, -0.77731293, -0.13451391, 11.395724296569824, 7.557009696960449, -8.162589073181152, -48.26834487915039, -87.83060455322266, -34.209815979003906, 
533, 2503578407, 0.6013855, 0.07696738, -0.782581, -0.14134614, 13.084742546081543, 7.227762222290039, -8.3626070022583, -27.088043212890625, -70.78948211669922, -31.603479385375977, 
534, 2503595074, 0.5944468, 0.07820718, -0.78699106, -0.1454703, 13.012648582458496, 5.747105598449707, -7.143838882446289, -8.557093620300293, -56.97483825683594, -26.698415756225586, 
535, 2503611741, 0.588573, 0.07797688, -0.7908576, -0.14847839, 11.697460174560547, 6.830839157104492, -6.066781520843506, -9.642621040344238, -49.82204818725586, -13.397684097290039, 
536, 2503628408, 0.5839935, 0.07645182, -0.79379666, -0.1516369, 10.832192420959473, 7.237480163574219, -5.575403690338135, -17.334627151489258, -40.40607833862305, -6.113614559173584, 
537, 2503645075, 0.5805002, 0.07419087, -0.7960833, -0.15416555, 10.471780776977539, 5.075937747955322, -4.87583589553833, -18.09626579284668, -32.27410125732422, 1.2585692405700684, 
538, 2503661742, 0.57756245, 0.07268968, -0.7981895, -0.15502085, 11.178495407104492, 3.2410635948181152, -4.159881591796875, -6.381255149841309, -26.84385871887207, 4.28816032409668, 
539, 2503678409, 0.5744976, 0.07212786, -0.8004823, -0.15484947, 11.063603401184082, 2.3072104454040527, -4.032402992248535, 3.241532325744629, -26.764955520629883, 3.1546921730041504, 
540, 2503695076, 0.57122403, 0.07236647, -0.8029068, -0.1542957, 9.951996803283691, 1.6591768264770508, -3.8668673038482666, 8.742478370666504, -27.392642974853516, 0.07906021922826767, 
541, 2503711743, 0.5675848, 0.07338597, -0.80552876, -0.15357603, 9.256543159484863, 1.2166472673416138, -3.2151732444763184, 13.096992492675781, -29.276626586914062, -3.8949248790740967, 
542, 2503728410, 0.5634133, 0.07478639, -0.80839807, -0.15318336, 8.942259788513184, 1.1654356718063354, -2.5113344192504883, 13.308528900146484, -32.952171325683594, -7.752449035644531, 
543, 2503745077, 0.5586809, 0.07664843, -0.8116779, -0.15224902, 7.887821674346924, 1.4274007081985474, -2.3347458839416504, 18.82005500793457, -36.91179656982422, -8.62986946105957, 
544, 2503761744, 0.55347675, 0.079034194, -0.81516874, -0.15138415, 7.401761054992676, 1.729322910308838, -1.6885881423950195, 20.889677047729492, -39.8625373840332, -12.221550941467285, 
545, 2503778411, 0.54775155, 0.08202087, -0.8188632, -0.15067929, 7.752552032470703, 1.8715921640396118, -1.3173469305038452, 22.795454025268555, -43.036277770996094, -16.658052444458008, 
546, 2503795078, 0.54140514, 0.08563822, -0.82271993, -0.15059443, 7.9351420402526855, 1.9576597213745117, -1.3637652397155762, 22.203075408935547, -46.871673583984375, -23.11800193786621, 
547, 2503811745, 0.53459024, 0.0905496, -0.82671404, -0.15019408, 8.25377368927002, 1.507875680923462, -1.4270676374435425, 29.26711082458496, -48.52693176269531, -29.706315994262695, 
548, 2503828412, 0.52686566, 0.09724002, -0.83113647, -0.14889368, 8.699541091918945, 1.4022161960601807, -1.5776026248931885, 41.8976936340332, -52.91987228393555, -37.201072692871094, 
549, 2503845079, 0.51792395, 0.10589541, -0.83605736, -0.14679636, 9.778270721435547, 0.9269434809684753, -1.3387826681137085, 54.89867401123047, -59.16979217529297, -46.492671966552734, 
550, 2503861746, 0.50754744, 0.11676352, -0.84151953, -0.14355114, 11.45118236541748, -0.619615912437439, -0.8734748363494873, 70.96678924560547, -66.32130432128906, -56.22319412231445, 
551, 2503878413, 0.49499384, 0.12907635, -0.84771955, -0.14032851, 13.417011260986328, -1.8758397102355957, 0.2736143469810486, 78.34651947021484, -80.14398193359375, -66.28019714355469, 
552, 2503895080, 0.47974345, 0.1412257, -0.854995, -0.13742363, 14.03852653503418, 0.4313583970069885, -0.7617793679237366, 79.36277770996094, -100.04523468017578, -68.13481903076172, 
553, 2503911747, 0.46278772, 0.15169378, -0.86273783, -0.1360144, 13.177603721618652, 3.948086977005005, -2.8811869621276855, 67.13499450683594, -114.72331237792969, -64.40381622314453, 
554, 2503928414, 0.445857, 0.16021824, -0.87028354, -0.13471514, 11.164626121520996, 5.823697090148926, -4.593906879425049, 60.10762023925781, -115.93016815185547, -53.43059158325195, 
555, 2503945081, 0.42973632, 0.16680348, -0.8774448, -0.13264212, 9.228424072265625, 7.121103763580322, -5.909021377563477, 57.553653717041016, -110.88043212890625, -39.121009826660156, 
556, 2503961748, 0.41555756, 0.17069326, -0.8837972, -0.13068397, 7.485134601593018, 7.438672065734863, -6.9764628410339355, 45.95720672607422, -99.37210845947266, -22.342391967773438, 
557, 2503978415, 0.40416294, 0.17172472, -0.88904333, -0.12947996, 5.525365352630615, 7.4206414222717285, -7.704794883728027, 28.968639373779297, -82.74018096923828, -5.905603885650635, 
558, 2503995082, 0.39574566, 0.1707013, -0.89298284, -0.12972397, 3.990842342376709, 7.27022123336792, -8.348913192749023, 9.750432968139648, -64.43069458007812, 3.7632341384887695, 
559, 2504011749, 0.39118412, 0.16680968, -0.8951819, -0.13341303, 4.565667152404785, 4.603226661682129, -8.14406681060791, -25.267419815063477, -42.596683502197266, 13.421122550964355, 
560, 2504028416, 0.39024723, 0.1598637, -0.8959413, -0.1394274, 5.349865436553955, 2.5245110988616943, -7.354833602905273, -53.27235794067383, -21.868799209594727, 27.648574829101562, 
561, 2504045083, 0.3925588, 0.15198454, -0.89578784, -0.14269742, 4.611158847808838, 2.9659054279327393, -6.736749649047852, -43.33128356933594, 2.71795916557312, 42.86771774291992, 
562, 2504061750, 0.39810374, 0.14534052, -0.8950844, -0.13861324, 3.711815357208252, 3.2053041458129883, -6.33612585067749, 1.3699356317520142, 33.019691467285156, 57.70680236816406, 
563, 2504078417, 0.40630764, 0.1377335, -0.8936931, -0.13136414, 3.1871933937072754, 4.147904396057129, -6.433340072631836, 14.894291877746582, 53.51995849609375, 74.1476058959961, 
564, 2504095084, 0.41707626, 0.125086, -0.89101166, -0.12844968, 3.4786579608917236, 5.458116054534912, -7.223162651062012, -29.413034439086914, 64.24097442626953, 94.11681365966797, 
565, 2504111751, 0.4308672, 0.10601058, -0.88642097, -0.1318079, 3.668053150177002, 5.7208943367004395, -7.080352783203125, -90.55758666992188, 77.1780014038086, 116.56034851074219, 
566, 2504128418, 0.44665796, 0.08308526, -0.8802281, -0.13708396, 3.308025598526001, 4.974791049957275, -6.949441432952881, -116.55908203125, 89.2394027709961, 135.01519775390625, 
567, 2504145085, 0.4632662, 0.05839024, -0.87297314, -0.14104283, 3.296942949295044, 3.9910995960235596, -7.06165075302124, -115.48735046386719, 96.54653930664062, 149.95950317382812, 
568, 2504161752, 0.48030055, 0.031988233, -0.8647068, -0.1434238, 3.8316211700439453, 3.8598520755767822, -7.491727828979492, -112.61088562011719, 101.3176040649414, 165.25765991210938, 
569, 2504178419, 0.49734706, 0.0035997822, -0.8553506, -0.14494279, 4.264656066894531, 4.264837265014648, -7.75372838973999, -115.1303939819336, 103.2337646484375, 179.70726013183594, 
570, 2504195086, 0.51245844, -0.027192099, -0.84553933, -0.14734432, 4.6776299476623535, 5.475313186645508, -7.583575248718262, -128.95217895507812, 91.00385284423828, 188.905029296875, 
571, 2504211753, 0.525139, -0.062281456, -0.8345818, -0.15434799, 5.698445796966553, 7.288070201873779, -6.944331645965576, -172.47694396972656, 77.42699432373047, 195.46144104003906, 
572, 2504228420, 0.5346623, -0.10075966, -0.8224542, -0.16599026, 6.431316375732422, 7.363655090332031, -7.058689117431641, -213.93052673339844, 61.923377990722656, 195.35400390625, 
573, 2504245087, 0.5403242, -0.13878676, -0.810125, -0.18023731, 7.642453193664551, 3.5836386680603027, -7.739920616149902, -229.90089416503906, 43.136512756347656, 178.99093627929688, 
574, 2504261754, 0.5429656, -0.17225802, -0.79841095, -0.19507839, 8.915156364440918, -0.05276671051979065, -6.259786128997803, -218.39181518554688, 30.22903060913086, 147.07278442382812, 
575, 2504278421, 0.5427137, -0.19830032, -0.7889828, -0.20891397, 9.888479232788086, -1.2438453435897827, -4.272348403930664, -185.48619079589844, 14.570849418640137, 103.42800903320312, 
576, 2504295088, 0.54065746, -0.21592346, -0.7830322, -0.21892318, 9.824488639831543, -0.0934300646185875, -3.359719753265381, -130.76962280273438, -1.3360201120376587, 64.66900634765625, 
577, 2504311755, 0.53765523, -0.2282527, -0.779334, -0.22686207, 8.742605209350586, 1.8881449699401855, -4.161172866821289, -97.9566421508789, -9.922430992126465, 39.07673645019531, 
578, 2504328422, 0.5348134, -0.23859361, -0.7757285, -0.23514476, 7.909654140472412, 2.5215163230895996, -4.177016735076904, -92.05320739746094, -5.7725348472595215, 27.251678466796875, 
579, 2504345089, 0.53258044, -0.24715152, -0.77249885, -0.24190904, 7.244490146636963, 2.959902048110962, -4.371132850646973, -75.7935562133789, -3.5191733837127686, 23.692214965820312, 
580, 2504361756, 0.53061074, -0.25458792, -0.7693936, -0.24833608, 7.603869438171387, 3.007491111755371, -4.874302387237549, -69.24226379394531, -1.2842313051223755, 19.198455810546875, 
581, 2504378423, 0.5289448, -0.2610653, -0.76622725, -0.25486892, 8.351506233215332, 2.300330400466919, -5.059220790863037, -65.8807373046875, 2.369859457015991, 14.366811752319336, 
582, 2504395090, 0.5281366, -0.26567522, -0.763399, -0.26021272, 8.884325981140137, 0.5451355576515198, -4.844539642333984, -50.69797897338867, 6.798847675323486, 9.747191429138184, 
583, 2504411757, 0.5292433, -0.2677319, -0.7607222, -0.26367208, 9.955732345581055, -0.6795340180397034, -3.3503987789154053, -27.774934768676758, 17.426509857177734, 6.324921607971191, 
584, 2504428424, 0.53183705, -0.2679057, -0.75821453, -0.26549345, 11.056535720825195, 0.342398464679718, -1.7584561109542847, -9.318770408630371, 24.981163024902344, 4.801785469055176, 
585, 2504445091, 0.53441197, -0.26693884, -0.75627375, -0.2668288, 12.067770004272461, 1.3746174573898315, -1.454148769378662, -1.6144485473632812, 23.983478546142578, -0.46159300208091736, 
586, 2504461758, 0.53601855, -0.26583695, -0.75485265, -0.2687236, 11.837307929992676, 1.124845266342163, -1.7783753871917725, -4.848234176635742, 18.29856300354004, -5.960903167724609, 
587, 2504478425, 0.5371173, -0.26465553, -0.75374883, -0.27078623, 10.377054214477539, 0.9918097257614136, -1.7993781566619873, -5.766860008239746, 14.935530662536621, -8.520112037658691, 
588, 2504495092, 0.5379363, -0.2633889, -0.75308657, -0.27223468, 9.48083782196045, 1.0267432928085327, -2.0699448585510254, -1.9575926065444946, 10.888457298278809, -8.02861213684082, 
589, 2504511759, 0.5382692, -0.26261935, -0.7524365, -0.27411076, 8.841424942016602, 1.914378046989441, -2.4731040000915527, -6.866370677947998, 8.164429664611816, -7.977118015289307, 
590, 2504528426, 0.5384001, -0.26240405, -0.7516395, -0.2762387, 8.530875205993652, 2.0975444316864014, -3.313335657119751, -10.862852096557617, 7.071460247039795, -6.160166263580322, 
591, 2504545093, 0.53828794, -0.26300925, -0.7504023, -0.2792289, 8.412459373474121, 2.2491908073425293, -3.3424086570739746, -19.63349723815918, 7.441634654998779, -4.781834602355957, 
592, 2504561760, 0.5381596, -0.26413423, -0.7488739, -0.28249878, 8.949259757995605, 2.051724672317505, -3.432389736175537, -23.590961456298828, 7.946031093597412, -2.6409952640533447, 
593, 2504578427, 0.53864694, -0.26511127, -0.7469805, -0.28564987, 9.201610565185547, 1.8672596216201782, -3.401466131210327, -22.0253963470459, 12.53882122039795, -1.106868028640747, 
594, 2504595094, 0.539199, -0.2659089, -0.7450731, -0.28883067, 9.466458320617676, 1.3280751705169678, -3.5546083450317383, -21.42646598815918, 13.3311128616333, -1.9879342317581177, 
595, 2504611761, 0.5403791, -0.26610434, -0.7431997, -0.2912616, 9.442788124084473, 1.6260409355163574, -3.491426467895508, -14.139782905578613, 16.247589111328125, -1.1147817373275757, 
596, 2504628428, 0.5418081, -0.26597014, -0.7412704, -0.29363614, 9.510744094848633, 1.657905101776123, -3.061060905456543, -12.286612510681152, 18.28705596923828, -1.9927866458892822, 
597, 2504645095, 0.5433648, -0.26567295, -0.73942465, -0.2956754, 9.938682556152344, 1.5396729707717896, -2.4060866832733154, -9.57127571105957, 18.34197998046875, -1.4728350639343262, 
598, 2504661762, 0.54488885, -0.26520738, -0.73788834, -0.29712296, 9.690665245056152, 2.4803125858306885, -2.117903709411621, -5.365302562713623, 16.27900505065918, -0.7551143765449524, 
599, 2504678429, 0.546208, -0.2653829, -0.7360021, -0.2992154, 9.436798095703125, 2.941223382949829, -2.11077880859375, -12.12774658203125, 16.413543701171875, 0.30014926195144653, 
600, 2504695096, 0.5476045, -0.26591644, -0.7337418, -0.3017295, 9.558759689331055, 2.249988555908203, -1.5421247482299805, -16.232044219970703, 18.23960304260254, 1.3699814081192017, 
601, 2504711763, 0.5487746, -0.26631603, -0.73192376, -0.3036611, 10.057878494262695, 1.5712261199951172, -1.135555624961853, -12.285928726196289, 14.642305374145508, 1.6089086532592773, 
602, 2504728430, 0.54959106, -0.26672652, -0.73047334, -0.3053123, 10.037778854370117, 1.757486343383789, -1.3932946920394897, -10.793378829956055, 10.932040214538574, 1.3049360513687134, 
603, 2504745097, 0.55021054, -0.2669482, -0.72938204, -0.30660886, 9.537059783935547, 2.0801451206207275, -1.6877573728561401, -7.904198169708252, 8.32741641998291, 0.6207432150840759, 
604, 2504761764, 0.5507148, -0.26730186, -0.72818816, -0.30822873, 9.373255729675293, 1.6031495332717896, -1.5556553602218628, -10.449604034423828, 8.450601577758789, 0.0027213511057198048, 
605, 2504778431, 0.55081785, -0.26788467, -0.72725403, -0.30974066, 9.549269676208496, 2.100059986114502, -1.121998906135559, -10.972383499145508, 4.771218776702881, 0.22932982444763184, 
606, 2504795098, 0.5506481, -0.26872286, -0.72637415, -0.311377, 9.62055778503418, 2.434140920639038, -1.3740211725234985, -12.944501876831055, 2.8830509185791016, 0.35262948274612427, 
607, 2504811765, 0.5503897, -0.26962835, -0.72549415, -0.31309792, 9.79449462890625, 1.7144700288772583, -1.5624576807022095, -13.776840209960938, 2.450580358505249, 0.17798922955989838, 
608, 2504828432, 0.55006576, -0.27005982, -0.7249962, -0.31444567, 9.666112899780273, 1.0212796926498413, -1.5744999647140503, -9.422223091125488, 1.0031665563583374, -1.62722647190094, 
609, 2504845099, 0.5497359, -0.2699099, -0.72493076, -0.3153007, 9.64555549621582, 1.1916226148605347, -1.2292920351028442, -3.8493072986602783, -0.32137537002563477, -3.4815728664398193, 
610, 2504861766, 0.54905236, -0.26963714, -0.7252702, -0.31594414, 9.725882530212402, 1.460673213005066, -0.7439876198768616, -2.1081430912017822, -3.7451655864715576, -4.816161155700684, 
611, 2504878433, 0.5477252, -0.26972643, -0.7259566, -0.31659427, 9.506318092346191, 2.5772950649261475, -1.2046229839324951, -3.928861379623413, -9.04127311706543, -5.084238529205322, 
612, 2504895100, 0.54631346, -0.2701114, -0.72641826, -0.31764477, 9.33022403717041, 2.822476625442505, -1.5521600246429443, -7.690293788909912, -8.521183013916016, -4.881577491760254, 
613, 2504911767, 0.5449093, -0.2706395, -0.726806, -0.3187185, 9.754404067993164, 2.250948905944824, -1.6726019382476807, -8.493406295776367, -8.476592063903809, -4.098572254180908, 
614, 2504928434, 0.54342264, -0.2711174, -0.7273325, -0.31964806, 9.484071731567383, 1.9395415782928467, -1.7262746095657349, -7.430887222290039, -9.568037986755371, -4.2490081787109375, 
615, 2504945101, 0.54156065, -0.2721227, -0.72780186, -0.32088298, 9.337820053100586, 2.2038681507110596, -1.706859827041626, -11.730358123779297, -11.821744918823242, -3.476914167404175, 
616, 2504961768, 0.5391437, -0.2740886, -0.7279597, -0.32291535, 9.418683052062988, 2.7817349433898926, -1.4800570011138916, -21.05327796936035, -14.06738567352295, -2.275181293487549, 
617, 2504978435, 0.53632665, -0.2768165, -0.7277804, -0.3256718, 9.488844871520996, 2.4935295581817627, -1.479891061782837, -28.97991943359375, -15.14961051940918, -1.4027615785598755, 
618, 2504995102, 0.5331501, -0.27987692, -0.727578, -0.32871026, 9.340432167053223, 1.7416129112243652, -0.6864712238311768, -32.290061950683594, -17.068401336669922, -1.552911639213562, 
619, 2505011769, 0.52952695, -0.28306282, -0.7277957, -0.33134615, 9.501198768615723, 1.9697598218917847, -0.5055776834487915, -30.73923683166504, -21.913732528686523, -1.2478443384170532, 
620, 2505028436, 0.5250582, -0.28643698, -0.7284433, -0.33412287, 9.474493026733398, 2.0681962966918945, -0.6973987221717834, -32.78662109375, -27.87076759338379, -3.5849435329437256, 
621, 2505045103, 0.5202131, -0.2896747, -0.7294405, -0.33672482, 9.519593238830566, 2.1233301162719727, -1.0288640260696411, -31.35264778137207, -31.052474975585938, -5.1923065185546875, 
622, 2505061770, 0.51497495, -0.29305172, -0.73062044, -0.33928666, 8.994369506835938, 2.480774164199829, -1.288358449935913, -31.98516845703125, -34.08246994018555, -5.630790710449219, 
623, 2505078437, 0.509117, -0.29735947, -0.73156625, -0.34232786, 8.934206008911133, 3.7142140865325928, -1.8083547353744507, -39.401756286621094, -37.567420959472656, -3.649437665939331, 
624, 2505095104, 0.5027283, -0.3031857, -0.7315401, -0.34668732, 8.763137817382812, 4.701037883758545, -2.1645212173461914, -54.83651351928711, -37.726951599121094, 0.14866481721401215, 
625, 2505111771, 0.4963046, -0.30997193, -0.7305125, -0.35206664, 9.083498001098633, 3.7007830142974854, -2.528909206390381, -65.73103332519531, -34.60414123535156, 3.4597220420837402, 
626, 2505128438, 0.49006215, -0.3165607, -0.7295061, -0.35700077, 9.314631462097168, 2.669337511062622, -2.580820322036743, -62.4362678527832, -34.2443733215332, 4.3993611335754395, 
627, 2505145105, 0.48407933, -0.32271045, -0.7287879, -0.36110032, 9.292304992675781, 2.3240790367126465, -2.3794121742248535, -55.49403381347656, -34.652164459228516, 5.0188398361206055, 
628, 2505161772, 0.4779668, -0.3287861, -0.72843933, -0.36444986, 9.462775230407715, 2.5542044639587402, -2.408600330352783, -50.80661392211914, -38.00783157348633, 5.982680797576904, 
629, 2505178439, 0.47152093, -0.3351482, -0.72810733, -0.36770034, 9.104937553405762, 3.0174496173858643, -2.3002846240997314, -51.989898681640625, -40.67915725708008, 6.878417015075684, 
630, 2505195106, 0.46500054, -0.34164414, -0.7277339, -0.3707524, 8.720226287841797, 3.25938081741333, -2.2503294944763184, -51.68488693237305, -41.71258544921875, 8.093451499938965, 
631, 2505211773, 0.45826593, -0.34830981, -0.72734874, -0.37367973, 8.875469207763672, 2.9642117023468018, -1.5560382604599, -52.154151916503906, -43.477962493896484, 8.830284118652344, 
632, 2505228440, 0.45087215, -0.3555047, -0.7271597, -0.37625733, 9.190666198730469, 3.183582067489624, -1.673857569694519, -53.07572555541992, -49.58462905883789, 10.391761779785156, 
633, 2505245107, 0.4428766, -0.36293286, -0.72697264, -0.37901306, 8.880454063415527, 2.6550519466400146, -1.7965879440307617, -56.325164794921875, -52.79653549194336, 9.507668495178223, 
634, 2505261774, 0.43410695, -0.37059575, -0.7271586, -0.38137975, 8.918180465698242, 1.7572351694107056, -1.201333999633789, -55.78372573852539, -59.349891662597656, 8.815412521362305, 
635, 2505278441, 0.4238999, -0.3787887, -0.72797686, -0.3832466, 9.38804817199707, 1.502232313156128, -0.28964918851852417, -56.71108627319336, -71.06906127929688, 7.505836009979248, 
636, 2505295108, 0.4112955, -0.38852698, -0.72954965, -0.38424003, 9.824701309204102, 3.0297904014587402, -1.4339430332183838, -61.12992858886719, -91.62966918945312, 9.505620956420898, 
637, 2505311775, 0.39680108, -0.40008226, -0.7307876, -0.3852695, 10.40063762664795, 3.599660634994507, -3.0757110118865967, -72.58868408203125, -104.91065216064453, 14.50505256652832, 
638, 2505328442, 0.38084033, -0.41279858, -0.73077375, -0.38797894, 11.897520065307617, 4.853428363800049, -2.6385016441345215, -91.57105255126953, -107.3283462524414, 15.32390308380127, 
639, 2505345109, 0.36508605, -0.4244179, -0.73099345, -0.3901671, 12.00676155090332, 2.824497699737549, -1.9442132711410522, -84.82388305664062, -105.45587158203125, 11.042999267578125, 
