sep=,
DeviceTag:,L Upper Leg - 6,,,,,,,,,,,,,,,,,
FirmwareVersion:,3.0.0,,,,,,,,,,,,,,,,,
AppVersion:,2023.6.1,,,,,,,,,,,,,,,,,
StartTime:,2024-05-23 11:49:42.000 +0200,,,,,,,,,,,,,,,,,
 2024,,,,,,,,,,,,,,,,,,,

PacketCounter,SampleTimeFine,Quat_W,Quat_X,Quat_Y,Quat_Z,Acc_X,Acc_Y,Acc_Z,Gyr_X,Gyr_Y,Gyr_Z,
0, 2513314484, 0.33922696, 0.61560816, -0.4127217, 0.5793205, 0.0, 0.0, 0.0, 0.0, 0.0, 0.0, 
1, 2513331151, 0.3388571, 0.61620426, -0.4124732, 0.57908034, 9.84949779510498, -0.57818603515625, -1.0016510486602783, 5.658377170562744, -2.5427651405334473, -1.413142442703247, 
2, 2513347818, 0.33865342, 0.61678743, -0.4122622, 0.57872885, 9.813414573669434, -0.5864461660385132, -0.9667315483093262, 5.638656139373779, -2.643871545791626, -1.5210744142532349, 
3, 2513364485, 0.33865678, 0.6170389, -0.41219744, 0.578505, 9.814900398254395, -0.5871788859367371, -0.9249154925346375, 6.061009407043457, -2.742377758026123, -1.4189308881759644, 
4, 2513381152, 0.3379933, 0.61758345, -0.41131946, 0.57893646, 9.777854919433594, -0.5831910371780396, -0.9104360938072205, 7.467800140380859, -2.797867774963379, -1.2984744310379028, 
5, 2513397819, 0.337691, 0.61777204, -0.4108563, 0.57924074, 9.82032299041748, -0.5727664828300476, -0.9172541499137878, 7.925037860870361, -2.6799468994140625, -0.9543036818504333, 
6, 2513414486, 0.33756292, 0.6178398, -0.41051632, 0.57948405, 9.874576568603516, -0.5890702605247498, -0.9632063508033752, 7.935898780822754, -2.1299142837524414, -0.939871072769165, 
7, 2513431153, 0.3369839, 0.6182389, -0.40982005, 0.5798881, 9.837757110595703, -0.5748403668403625, -1.0676751136779785, 8.045788764953613, -2.0754871368408203, -0.913579523563385, 
8, 2513447820, 0.3362917, 0.6187954, -0.40924582, 0.5801017, 9.854591369628906, -0.4547671675682068, -1.0167063474655151, 8.269145011901855, -2.552882432937622, -0.8052378296852112, 
9, 2513464487, 0.33559668, 0.61949295, -0.40854385, 0.58025444, 9.895293235778809, -0.3960125744342804, -0.97519850730896, 8.023517608642578, -2.6747217178344727, -0.8129599690437317, 
10, 2513481154, 0.3351263, 0.6201591, -0.40783915, 0.58031076, 9.880080223083496, -0.36943864822387695, -0.9639171361923218, 6.898443222045898, -2.452544689178467, -1.0616466999053955, 
11, 2513497821, 0.33482972, 0.6207998, -0.4071641, 0.5802707, 9.880630493164062, -0.40433382987976074, -0.9647822380065918, 5.285354137420654, -2.4448986053466797, -1.248836874961853, 
12, 2513514488, 0.334809, 0.62126863, -0.40670347, 0.580104, 9.827801704406738, -0.439924031496048, -0.9107420444488525, 4.347276210784912, -2.209594964981079, -1.4022698402404785, 
13, 2513531155, 0.334751, 0.6217233, -0.40624362, 0.57997257, 9.793586730957031, -0.4973811209201813, -0.934819757938385, 4.733131408691406, -2.341705560684204, -1.3573966026306152, 
14, 2513547822, 0.33471394, 0.62206584, -0.4059431, 0.5798372, 9.827970504760742, -0.5707381367683411, -1.0497907400131226, 5.126221656799316, -2.349414825439453, -0.9889448285102844, 
15, 2513564489, 0.33466953, 0.6223316, -0.4057532, 0.57971054, 9.786294937133789, -0.575384259223938, -1.0528080463409424, 4.657099723815918, -2.0233778953552246, -0.7517584562301636, 
16, 2513581156, 0.33447674, 0.6227117, -0.40551183, 0.5795825, 9.788382530212402, -0.5035481452941895, -0.9636856913566589, 3.928898572921753, -2.4899065494537354, -0.8875889778137207, 
17, 2513597823, 0.33434582, 0.6230245, -0.4053807, 0.5794134, 9.866520881652832, -0.4906735122203827, -0.9670857787132263, 3.196458339691162, -2.542815923690796, -0.7311400771141052, 
18, 2513614490, 0.33427238, 0.6232886, -0.40529197, 0.57923377, 9.836026191711426, -0.490974485874176, -1.0164989233016968, 3.149703025817871, -2.408055305480957, -0.8011269569396973, 
19, 2513631157, 0.33429843, 0.62349576, -0.4052862, 0.5789999, 9.865325927734375, -0.48685139417648315, -0.9830021858215332, 2.2346503734588623, -2.2888147830963135, -0.8949460983276367, 
20, 2513647824, 0.33442926, 0.6236062, -0.4054218, 0.5787104, 9.837418556213379, -0.5331898927688599, -0.9440273642539978, 1.6760119199752808, -2.2390880584716797, -0.7104578614234924, 
21, 2513664491, 0.3344079, 0.6238172, -0.4054436, 0.57848006, 9.837409973144531, -0.6095691323280334, -0.9503397941589355, 1.8590848445892334, -2.5442373752593994, -0.7097790837287903, 
22, 2513681158, 0.33429074, 0.6240598, -0.405343, 0.57835656, 9.865851402282715, -0.5682563185691833, -0.9049258232116699, 2.3195691108703613, -2.198927164077759, -0.7894730567932129, 
23, 2513697825, 0.33419985, 0.6242565, -0.40524018, 0.57826877, 9.85455322265625, -0.560886025428772, -0.90299391746521, 3.834625005722046, -1.9556962251663208, -0.968352198600769, 
24, 2513714492, 0.33382508, 0.62455916, -0.4048819, 0.57840943, 9.827703475952148, -0.5693957209587097, -0.9595619440078735, 6.064134120941162, -1.61891508102417, -0.6828730702400208, 
25, 2513731159, 0.33336762, 0.6248674, -0.40447843, 0.5786226, 9.824736595153809, -0.5479075312614441, -0.9481624364852905, 6.7567667961120605, -1.4510879516601562, -0.4555732011795044, 
26, 2513747826, 0.3328625, 0.6251991, -0.40405184, 0.5788531, 9.806572914123535, -0.49097535014152527, -0.9507203102111816, 6.312269687652588, -1.5110725164413452, -0.33462995290756226, 
27, 2513764493, 0.3326672, 0.62528723, -0.40405172, 0.57887024, 9.833097457885742, -0.4729671776294708, -1.0200873613357544, 5.2387518882751465, -1.7332884073257446, 0.1279802769422531, 
28, 2513781160, 0.3323217, 0.62548184, -0.40389946, 0.5789647, 9.853780746459961, -0.410319983959198, -1.0386253595352173, 3.963866710662842, -1.688491702079773, 0.30500245094299316, 
29, 2513797827, 0.33204904, 0.6256294, -0.40384373, 0.57900053, 9.847566604614258, -0.36956125497817993, -0.9451806545257568, 3.4415855407714844, -1.7448526620864868, 0.44023749232292175, 
30, 2513814494, 0.3316846, 0.6258052, -0.4037699, 0.579071, 9.845029830932617, -0.3947738707065582, -0.9204503297805786, 4.581190586090088, -1.9603769779205322, 0.7476091384887695, 
31, 2513831161, 0.3312532, 0.6259887, -0.4036408, 0.5792095, 9.850330352783203, -0.4711088240146637, -0.9291432499885559, 5.565646648406982, -1.7949124574661255, 0.9299907684326172, 
32, 2513847828, 0.3306662, 0.6262645, -0.4033154, 0.5794732, 9.875264167785645, -0.4791634976863861, -0.939915657043457, 5.6093034744262695, -1.518705129623413, 0.9537466168403625, 
33, 2513864495, 0.330197, 0.6264624, -0.40306187, 0.5797034, 9.857901573181152, -0.41916966438293457, -0.9424229264259338, 4.903391361236572, -1.2152585983276367, 0.894670844078064, 
34, 2513881162, 0.32984397, 0.6265871, -0.4029561, 0.5798434, 9.887405395507812, -0.3212587535381317, -0.9297477602958679, 4.194367408752441, -1.3712782859802246, 1.0076228380203247, 
35, 2513897829, 0.3295159, 0.62670904, -0.40288892, 0.57994455, 9.927422523498535, -0.32912585139274597, -0.925098180770874, 3.8118937015533447, -1.5539610385894775, 1.0603851079940796, 
36, 2513914496, 0.32915118, 0.6268738, -0.40277135, 0.58005524, 9.881634712219238, -0.35044753551483154, -0.9878895282745361, 4.297293186187744, -1.6818838119506836, 0.9483807682991028, 
37, 2513931163, 0.32887164, 0.62703377, -0.40265518, 0.58012164, 9.887237548828125, -0.35434767603874207, -0.8895905613899231, 3.067568778991699, -1.5619648694992065, 0.648039698600769, 
38, 2513947830, 0.32874402, 0.6271311, -0.40267736, 0.5800733, 9.905176162719727, -0.3101719319820404, -0.8063707947731018, 2.5410938262939453, -1.781299352645874, 0.4573596715927124, 
39, 2513964497, 0.32864052, 0.62725025, -0.40263408, 0.5800332, 9.881370544433594, -0.2356039136648178, -0.7799592018127441, 2.5012145042419434, -1.6488686800003052, 0.10959033668041229, 
40, 2513981164, 0.32866797, 0.6273683, -0.4025779, 0.5799288, 9.870552062988281, -0.21437948942184448, -0.8307344913482666, 1.5483454465866089, -1.5618112087249756, -0.5205397009849548, 
41, 2513997831, 0.32888424, 0.6274091, -0.4026829, 0.5796892, 9.920469284057617, -0.26384663581848145, -0.8146793246269226, -0.15357370674610138, -1.7195979356765747, -0.6472968459129333, 
42, 2514014498, 0.32922176, 0.6273527, -0.40294272, 0.57937795, 9.857122421264648, -0.3277116119861603, -0.8230161070823669, -1.8901017904281616, -1.67339289188385, -0.30115410685539246, 
43, 2514031165, 0.3297579, 0.62715256, -0.4033948, 0.578975, 9.791634559631348, -0.42437273263931274, -0.7832913398742676, -4.087838172912598, -1.401526927947998, -0.06409578025341034, 
44, 2514047832, 0.33048454, 0.6267985, -0.40410367, 0.5784496, 9.807353973388672, -0.6023511290550232, -0.8369324207305908, -6.162288665771484, -1.421761155128479, 0.3614784777164459, 
45, 2514064499, 0.33118138, 0.62643313, -0.4048424, 0.57793, 9.79951286315918, -0.7616464495658875, -0.9066439867019653, -6.067880153656006, -1.5189357995986938, 0.5752677321434021, 
46, 2514081166, 0.3317409, 0.6261372, -0.40550122, 0.5774678, 9.748607635498047, -0.7854235768318176, -0.8832249045372009, -5.131345272064209, -1.724240779876709, 0.648065447807312, 
47, 2514097833, 0.33215186, 0.62591547, -0.40606216, 0.5770776, 9.71310806274414, -0.6694571375846863, -0.809181272983551, -3.771604537963867, -1.8959096670150757, 0.6807599067687988, 
48, 2514114500, 0.33253285, 0.6257221, -0.40664396, 0.5766581, 9.779637336730957, -0.6196637749671936, -0.7982221245765686, -3.4339072704315186, -2.2951924800872803, 0.6483790874481201, 
49, 2514131167, 0.33278382, 0.62558806, -0.40706715, 0.57636017, 9.819883346557617, -0.7051721811294556, -0.828660249710083, -2.271731376647949, -1.9971375465393066, 0.6080263257026672, 
50, 2514147834, 0.33295172, 0.6254829, -0.40746087, 0.576099, 9.819182395935059, -0.7461812496185303, -0.7839223146438599, -1.054846167564392, -2.159240245819092, 0.6912099123001099, 
51, 2514164501, 0.33310336, 0.62538236, -0.4077921, 0.5758861, 9.84289264678955, -0.7038725018501282, -0.7388282418251038, -0.8632761240005493, -1.8767706155776978, 0.5566087961196899, 
52, 2514181168, 0.33313102, 0.62533337, -0.40804276, 0.57574576, 9.814108848571777, -0.6050865054130554, -0.7843506932258606, -0.27800023555755615, -1.9264719486236572, 0.7454000115394592, 
53, 2514197835, 0.33304974, 0.62532586, -0.40822497, 0.57567173, 9.804742813110352, -0.5641027688980103, -0.8010028004646301, 0.9451022744178772, -1.9803868532180786, 0.8731049299240112, 
54, 2514214502, 0.3329357, 0.6253373, -0.4084635, 0.5755561, 9.785412788391113, -0.5704955458641052, -0.8175445795059204, 0.9223453402519226, -2.4733285903930664, 1.0692981481552124, 
55, 2514231169, 0.33300877, 0.6252432, -0.40882266, 0.57536095, 9.802715301513672, -0.5829218029975891, -0.7799967527389526, -0.46995463967323303, -2.1735193729400635, 0.9079638719558716, 
56, 2514247836, 0.3330529, 0.6251841, -0.40919173, 0.57513714, 9.778403282165527, -0.5690115690231323, -0.8067488670349121, -0.6429171562194824, -2.5401651859283447, 0.917517364025116, 
57, 2514264503, 0.33305326, 0.6251952, -0.4094952, 0.574909, 9.820792198181152, -0.5590529441833496, -0.758222222328186, 0.040551308542490005, -2.821930170059204, 0.5813250541687012, 
58, 2514281170, 0.3329385, 0.6252658, -0.4097251, 0.57473505, 9.864279747009277, -0.6018375158309937, -0.7616289258003235, 1.070834994316101, -2.994175672531128, 0.675490140914917, 
59, 2514297837, 0.3328372, 0.62527835, -0.40994844, 0.57462054, 9.856659889221191, -0.6158856153488159, -0.7834660410881042, 0.9051977396011353, -2.464876651763916, 0.901534914970398, 
60, 2514314504, 0.33271655, 0.62531084, -0.41013563, 0.5745216, 9.837944984436035, -0.5876023769378662, -0.7555099725723267, 0.944718062877655, -2.445500612258911, 0.8215849995613098, 
61, 2514331171, 0.3325667, 0.625345, -0.41030723, 0.57444876, 9.85023307800293, -0.5585939288139343, -0.8042314648628235, 1.6442010402679443, -2.4278922080993652, 0.8653059005737305, 
62, 2514347838, 0.33238724, 0.62544626, -0.41044676, 0.5743425, 9.849427223205566, -0.5540642738342285, -0.8365825414657593, 1.9410134553909302, -2.856302499771118, 0.5784820318222046, 
63, 2514364505, 0.33225045, 0.6255254, -0.41057858, 0.5742413, 9.853029251098633, -0.5325101613998413, -0.7802567481994629, 1.6588257551193237, -2.6087048053741455, 0.4612783193588257, 
64, 2514381172, 0.33200487, 0.6256613, -0.41062292, 0.57420343, 9.8364896774292, -0.5291467905044556, -0.8622252941131592, 2.659667491912842, -2.6742992401123047, 0.5158205628395081, 
65, 2514397839, 0.33174288, 0.6258017, -0.410692, 0.5741525, 9.863933563232422, -0.5797497034072876, -0.8307068943977356, 2.444047212600708, -2.8436119556427, 0.6673709750175476, 
66, 2514414506, 0.33161542, 0.6258859, -0.41080388, 0.57405436, 9.816849708557129, -0.6237640976905823, -0.7643002867698669, 1.7642861604690552, -2.5687363147735596, 0.3282075524330139, 
67, 2514431173, 0.33136004, 0.6260548, -0.41080847, 0.5740142, 9.811861038208008, -0.6152318716049194, -0.8084653615951538, 2.8436825275421143, -2.7714993953704834, 0.286074697971344, 
68, 2514447840, 0.33098358, 0.6262605, -0.41073856, 0.57405716, 9.82780647277832, -0.5510885715484619, -0.8320443034172058, 4.073795318603516, -2.746372699737549, 0.5088538527488708, 
69, 2514464507, 0.33056912, 0.6264599, -0.41067603, 0.5741233, 9.863570213317871, -0.5143039226531982, -0.8211425542831421, 4.312340259552002, -2.756554126739502, 0.7581039667129517, 
70, 2514481174, 0.3302736, 0.62655807, -0.41072693, 0.5741496, 9.851554870605469, -0.4991627633571625, -0.7936330437660217, 3.233981132507324, -2.4746735095977783, 0.9506601095199585, 
71, 2514497841, 0.33000702, 0.6267028, -0.41079357, 0.5740974, 9.827255249023438, -0.4975077509880066, -0.814850389957428, 2.6121373176574707, -2.944929599761963, 0.6422258019447327, 
72, 2514514508, 0.32977313, 0.6268596, -0.41088405, 0.5739959, 9.86046314239502, -0.4447159469127655, -0.7630120515823364, 2.555999994277954, -3.194441318511963, 0.4424913823604584, 
73, 2514531175, 0.32947925, 0.6270395, -0.41088519, 0.5739674, 9.838374137878418, -0.3869509994983673, -0.8161536455154419, 3.3526058197021484, -2.950518846511841, 0.41716042160987854, 
74, 2514547842, 0.329173, 0.6271881, -0.41091007, 0.57396275, 9.870100021362305, -0.39730504155158997, -0.8344172239303589, 3.3420794010162354, -2.825605869293213, 0.7269716858863831, 
75, 2514564509, 0.3288635, 0.6273578, -0.4109176, 0.5739493, 9.854063034057617, -0.4855835735797882, -0.815227746963501, 3.197214126586914, -2.9121897220611572, 0.6347531080245972, 
76, 2514581176, 0.32848707, 0.6275678, -0.41085017, 0.5739835, 9.81507682800293, -0.5666292309761047, -0.815141499042511, 3.7143733501434326, -2.880033493041992, 0.614263117313385, 
77, 2514597843, 0.3282116, 0.6277157, -0.4108768, 0.57396024, 9.817266464233398, -0.5205949544906616, -0.8378960490226746, 2.937955856323242, -2.8428494930267334, 0.6262816786766052, 
78, 2514614510, 0.32797095, 0.62779427, -0.41096458, 0.5739492, 9.807719230651855, -0.48138055205345154, -0.8741363286972046, 2.57836651802063, -2.5762665271759033, 0.9600793719291687, 
79, 2514631177, 0.3276748, 0.62787753, -0.411053, 0.57396376, 9.773192405700684, -0.4895224869251251, -0.8771834969520569, 2.756746530532837, -2.640669584274292, 1.2527941465377808, 
80, 2514647844, 0.32731202, 0.627977, -0.41115934, 0.57398605, 9.787376403808594, -0.612220823764801, -0.9045283794403076, 3.1332528591156006, -2.9138224124908447, 1.5601719617843628, 
81, 2514664511, 0.32707834, 0.6280217, -0.4113387, 0.5739417, 9.827811241149902, -0.7093619704246521, -0.8530252575874329, 1.7891432046890259, -2.7785041332244873, 1.389431357383728, 
82, 2514681178, 0.32686386, 0.628063, -0.41148764, 0.573912, 9.874913215637207, -0.7506914138793945, -0.9341489672660828, 2.037330389022827, -2.6008546352386475, 1.1895883083343506, 
83, 2514697845, 0.32654706, 0.62819874, -0.41146305, 0.5739613, 9.872856140136719, -0.7590194940567017, -0.9449352622032166, 3.434112310409546, -2.5265583992004395, 0.7593140602111816, 
84, 2514714512, 0.32615945, 0.62844497, -0.41125277, 0.574063, 9.844868659973145, -0.7233805656433105, -0.8678024411201477, 5.150189399719238, -2.541708469390869, -0.00812563020735979, 
85, 2514731179, 0.3255128, 0.62886107, -0.41078362, 0.5743101, 9.918535232543945, -0.6536372303962708, -0.8944609761238098, 7.902601718902588, -2.7361412048339844, -0.24576666951179504, 
86, 2514747846, 0.3246561, 0.62936676, -0.41008994, 0.5747366, 9.949590682983398, -0.6271295547485352, -0.9408577084541321, 10.259739875793457, -2.4049949645996094, -0.22190850973129272, 
87, 2514764513, 0.32380527, 0.6298563, -0.4092845, 0.5752544, 9.883811950683594, -0.5000050663948059, -0.8792016506195068, 11.037528038024902, -1.697040319442749, -0.49627819657325745, 
88, 2514781180, 0.32306743, 0.63035583, -0.40850982, 0.5756725, 9.838505744934082, -0.29891085624694824, -0.7740100622177124, 10.08816146850586, -1.923757791519165, -1.0352914333343506, 
89, 2514797847, 0.32238466, 0.6308562, -0.40780342, 0.57600784, 9.874197959899902, -0.1846613883972168, -0.7972702980041504, 9.419425964355469, -2.3079357147216797, -1.1227331161499023, 
90, 2514814514, 0.32186416, 0.6312434, -0.40726602, 0.57625496, 9.888362884521484, -0.1275453120470047, -0.8227676749229431, 7.401859760284424, -2.169767379760742, -0.8517631888389587, 
91, 2514831181, 0.32170823, 0.6313582, -0.4071044, 0.57633036, 9.870975494384766, -0.13727691769599915, -0.8795878291130066, 3.322716474533081, -1.667694330215454, -0.2508251667022705, 
92, 2514847848, 0.3217643, 0.63127995, -0.40732622, 0.57622826, 9.842192649841309, -0.25737375020980835, -0.9939320683479309, 0.16091817617416382, -1.9517772197723389, 0.7346041798591614, 
93, 2514864515, 0.32187667, 0.63116026, -0.40764368, 0.57607186, 9.827489852905273, -0.3380771279335022, -0.8665760159492493, -0.9600536227226257, -2.0617072582244873, 0.9810624718666077, 
94, 2514881182, 0.3221044, 0.6310023, -0.4080089, 0.57585907, 9.8502779006958, -0.3995811939239502, -0.7732996940612793, -1.5992568731307983, -1.9702569246292114, 0.6950773596763611, 
95, 2514897849, 0.32235312, 0.63090277, -0.4083238, 0.57560563, 9.849452018737793, -0.4297631084918976, -0.7677287459373474, -1.8375571966171265, -2.204190254211426, 0.19892741739749908, 
96, 2514914516, 0.32267, 0.630771, -0.40866268, 0.575332, 9.867973327636719, -0.49059614539146423, -0.8308593034744263, -1.9836267232894897, -2.073002338409424, 0.04116601496934891, 
97, 2514931183, 0.32298315, 0.63062954, -0.40896988, 0.57509303, 9.812886238098145, -0.5226017832756042, -0.8276493549346924, -1.870098352432251, -1.8326910734176636, 0.04035920649766922, 
98, 2514947850, 0.3233419, 0.6304464, -0.40933654, 0.5748315, 9.810025215148926, -0.5603187680244446, -0.8252638578414917, -2.455399990081787, -1.7866014242172241, 0.1863003820180893, 
99, 2514964517, 0.3237852, 0.6302322, -0.40974277, 0.5745272, 9.814406394958496, -0.6424899101257324, -0.807457447052002, -3.250110626220703, -1.7114276885986328, 0.026163369417190552, 
100, 2514981184, 0.32409728, 0.6300679, -0.41008493, 0.57428735, 9.879012107849121, -0.6973986625671387, -0.8245521783828735, -2.2896792888641357, -1.8634071350097656, 0.28065115213394165, 
101, 2514997851, 0.3241998, 0.6299764, -0.41028574, 0.5741863, 9.877837181091309, -0.719935417175293, -0.8793688416481018, -0.22436083853244781, -1.8470276594161987, 0.5829834342002869, 
102, 2515014518, 0.32430813, 0.6298769, -0.4104268, 0.57413346, 9.802398681640625, -0.6840084195137024, -0.8544705510139465, 0.42323702573776245, -1.491760492324829, 0.3766091465950012, 
103, 2515031185, 0.3243832, 0.62981606, -0.41053724, 0.5740789, 9.819327354431152, -0.6221250891685486, -0.8103304505348206, 0.7064046263694763, -1.687300443649292, 0.2610510289669037, 
104, 2515047852, 0.3243444, 0.62983805, -0.41053367, 0.57407904, 9.821033477783203, -0.5642575025558472, -0.7606985569000244, 1.9478267431259155, -1.8599685430526733, 0.1077590212225914, 
105, 2515064519, 0.32419068, 0.62991405, -0.41039032, 0.57418513, 9.845102310180664, -0.5056794285774231, -0.7472893595695496, 3.276139736175537, -1.640224575996399, 0.05872352048754692, 
106, 2515081186, 0.32403272, 0.6299872, -0.41021785, 0.5743174, 9.847023963928223, -0.4128393828868866, -0.7520139217376709, 3.752382516860962, -1.502722978591919, -0.014432758092880249, 
107, 2515097853, 0.32398134, 0.63003796, -0.41010857, 0.5743687, 9.854958534240723, -0.3136141300201416, -0.7633896470069885, 2.6523938179016113, -1.620861530303955, -0.2502105236053467, 
108, 2515114520, 0.32406956, 0.6300029, -0.41016468, 0.5743174, 9.868453979492188, -0.2896977663040161, -0.76851886510849, 0.9320781230926514, -1.7239011526107788, -0.0541580505669117, 
109, 2515131187, 0.32416105, 0.6299262, -0.41029212, 0.5742586, 9.886320114135742, -0.36544904112815857, -0.7822659015655518, 0.4366452693939209, -1.7572743892669678, 0.37602004408836365, 
110, 2515147854, 0.32429442, 0.62982464, -0.41049176, 0.5741521, 9.851898193359375, -0.46350550651550293, -0.8316701650619507, -0.15204337239265442, -1.9338163137435913, 0.4932621121406555, 
111, 2515164521, 0.32449156, 0.629688, -0.41073218, 0.5740188, 9.824688911437988, -0.48052841424942017, -0.7857910990715027, -0.7808031439781189, -1.8365328311920166, 0.4680400490760803, 
112, 2515181188, 0.3247117, 0.62955487, -0.41095722, 0.5738791, 9.83529281616211, -0.48520132899284363, -0.7391349077224731, -0.8746607303619385, -1.7953218221664429, 0.29891934990882874, 
113, 2515197855, 0.32488486, 0.6294583, -0.41116944, 0.57373506, 9.871843338012695, -0.4342585802078247, -0.7321995496749878, -0.5090652108192444, -2.0881266593933105, 0.31549087166786194, 
114, 2515214522, 0.3250582, 0.6293334, -0.41137832, 0.57362425, 9.870562553405762, -0.41252580285072327, -0.7506548762321472, -0.2605323791503906, -1.8608009815216064, 0.43615224957466125, 
115, 2515231189, 0.32520992, 0.62921685, -0.41153064, 0.5735568, 9.859404563903809, -0.47093209624290466, -0.7596651911735535, 0.10603017359972, -1.657935619354248, 0.3736572563648224, 
116, 2515247856, 0.32539746, 0.6291193, -0.4116496, 0.573472, 9.874605178833008, -0.535448431968689, -0.6855739951133728, -0.05488801747560501, -1.6451165676116943, 0.018690867349505424, 
117, 2515264523, 0.32556215, 0.6290228, -0.4117682, 0.5733991, 9.843727111816406, -0.5586907267570496, -0.7651766538619995, 0.05946628749370575, -1.6870189905166626, 0.13608667254447937, 
118, 2515281190, 0.3257375, 0.6288922, -0.41192862, 0.5733277, 9.833974838256836, -0.5531914830207825, -0.7725745439529419, -0.0864940956234932, -1.6387646198272705, 0.356227844953537, 
119, 2515297857, 0.32585865, 0.62876016, -0.4120945, 0.5732844, 9.817737579345703, -0.5762369632720947, -0.8263937830924988, 0.20655998587608337, -1.698326587677002, 0.6604681611061096, 
120, 2515314524, 0.32588562, 0.62866765, -0.41223508, 0.57326955, 9.80117416381836, -0.6113746166229248, -0.7735685706138611, 0.9413948655128479, -1.960722804069519, 0.8654019236564636, 
121, 2515331191, 0.32584062, 0.62859935, -0.41228697, 0.5733326, 9.825984001159668, -0.6129571795463562, -0.7233370542526245, 1.8892501592636108, -1.7438021898269653, 0.8672011494636536, 
122, 2515347858, 0.32577136, 0.6285509, -0.41228434, 0.57342714, 9.855043411254883, -0.5234120488166809, -0.721851110458374, 2.16532301902771, -1.6454877853393555, 0.761132538318634, 
123, 2515364525, 0.32574666, 0.6284663, -0.41231507, 0.5735117, 9.854447364807129, -0.47624361515045166, -0.7443294525146484, 1.8836408853530884, -1.5277845859527588, 0.7948580384254456, 
124, 2515381192, 0.32579175, 0.62836623, -0.41239113, 0.57354087, 9.818886756896973, -0.4625113010406494, -0.7646772265434265, 1.036065697669983, -1.6197086572647095, 0.6654371023178101, 
125, 2515397859, 0.3258408, 0.62827814, -0.4125156, 0.5735202, 9.803420066833496, -0.45108020305633545, -0.7513498663902283, 0.9696648716926575, -2.0151560306549072, 0.6879891753196716, 
126, 2515414526, 0.32589835, 0.6281613, -0.41267565, 0.57350034, 9.887167930603027, -0.425576776266098, -0.7507020831108093, 0.6404199600219727, -1.968457818031311, 0.9116712212562561, 
127, 2515431193, 0.32590434, 0.6280932, -0.41276094, 0.5735101, 9.922380447387695, -0.48833566904067993, -0.751012921333313, 1.3743582963943481, -2.0349674224853516, 0.7276119589805603, 
128, 2515447860, 0.3259488, 0.6280269, -0.41278917, 0.57353693, 9.83714771270752, -0.531632125377655, -0.686557412147522, 1.4633880853652954, -1.7497445344924927, 0.37218454480171204, 
129, 2515464527, 0.32599577, 0.6279753, -0.41280726, 0.5735539, 9.881699562072754, -0.4926423728466034, -0.6736772060394287, 1.5110660791397095, -1.8461887836456299, 0.257170706987381, 
130, 2515481194, 0.32611263, 0.6278683, -0.41283256, 0.5735863, 9.878316879272461, -0.4502311050891876, -0.697313129901886, 1.1070257425308228, -1.404843807220459, 0.20860904455184937, 
131, 2515497861, 0.32623282, 0.62774795, -0.41287395, 0.57361996, 9.8696870803833, -0.42321616411209106, -0.7271614074707031, 0.9818692803382874, -1.393804669380188, 0.31916627287864685, 
132, 2515514528, 0.3263007, 0.62767816, -0.4128818, 0.5736522, 9.852030754089355, -0.47785288095474243, -0.7236940860748291, 1.4501911401748657, -1.694036841392517, 0.24370485544204712, 
133, 2515531195, 0.3263762, 0.62763596, -0.41286626, 0.5736665, 9.83814811706543, -0.4724070131778717, -0.6924859285354614, 1.6077028512954712, -1.8332929611206055, -0.009412667714059353, 
134, 2515547862, 0.32654864, 0.627566, -0.41290206, 0.5736191, 9.825235366821289, -0.4719371795654297, -0.6940802335739136, 0.7358080148696899, -1.8498389720916748, -0.22107599675655365, 
135, 2515564529, 0.32670632, 0.62748665, -0.41294783, 0.5735831, 9.843284606933594, -0.4726015329360962, -0.6988025903701782, 0.8374264240264893, -1.855486273765564, -0.06985864043235779, 
136, 2515581196, 0.3267633, 0.62745816, -0.41292325, 0.57359964, 9.865998268127441, -0.49280253052711487, -0.7112629413604736, 1.5725620985031128, -1.9616894721984863, 0.036133117973804474, 
137, 2515597863, 0.32673782, 0.62744355, -0.41283056, 0.5736968, 9.848243713378906, -0.5297082662582397, -0.6897241473197937, 2.505946636199951, -1.773762583732605, 0.20861543715000153, 
138, 2515614530, 0.32678157, 0.6273805, -0.41278318, 0.57377493, 9.846855163574219, -0.48826590180397034, -0.7212728261947632, 1.968841552734375, -1.5980147123336792, 0.21602387726306915, 
139, 2515631197, 0.3268619, 0.62728626, -0.41278225, 0.573833, 9.86625862121582, -0.45986923575401306, -0.7338294982910156, 1.5698665380477905, -1.5858936309814453, 0.3131536841392517, 
140, 2515647864, 0.32692993, 0.62723434, -0.41276157, 0.57386583, 9.951865196228027, -0.48139968514442444, -0.751392126083374, 1.8020455837249756, -1.8751635551452637, 0.09662391990423203, 
141, 2515664531, 0.3269165, 0.62726444, -0.41258717, 0.57396597, 9.970355033874512, -0.5338051319122314, -0.7344823479652405, 3.0592451095581055, -1.8074371814727783, -0.30959352850914, 
142, 2515681198, 0.32675698, 0.6274057, -0.41215077, 0.5742159, 9.927416801452637, -0.4975624084472656, -0.7049773931503296, 5.413238048553467, -1.4439289569854736, -0.8392385840415955, 
143, 2515697865, 0.3264486, 0.62761575, -0.4115705, 0.5745776, 9.899479866027832, -0.41816750168800354, -0.6976450681686401, 7.045938491821289, -1.3469783067703247, -0.8000319004058838, 
144, 2515714532, 0.32612455, 0.62783545, -0.41089883, 0.57500243, 9.83661937713623, -0.35891297459602356, -0.6255279779434204, 7.7359724044799805, -0.9751973748207092, -1.0141286849975586, 
145, 2515731199, 0.32581592, 0.62806684, -0.41032332, 0.5753355, 9.771960258483887, -0.3337874710559845, -0.6121847629547119, 7.090857028961182, -1.6140483617782593, -0.885636031627655, 
146, 2515747866, 0.32566363, 0.62820274, -0.4098983, 0.5755765, 9.748589515686035, -0.341258704662323, -0.5760858654975891, 5.3349528312683105, -1.5504393577575684, -0.7736445069313049, 
147, 2515764533, 0.32552394, 0.62829775, -0.409628, 0.5757439, 9.765556335449219, -0.36765581369400024, -0.6524941325187683, 4.2412590980529785, -2.033456563949585, -0.17337237298488617, 
148, 2515781200, 0.32546353, 0.62829345, -0.4095403, 0.5758451, 9.769416809082031, -0.3975799083709717, -0.7300522923469543, 2.9020278453826904, -2.1391472816467285, 0.4291856288909912, 
149, 2515797867, 0.32548687, 0.6282045, -0.4096419, 0.5758569, 9.809062004089355, -0.4512987434864044, -0.7335997223854065, 1.3327759504318237, -2.3921492099761963, 0.9651312232017517, 
150, 2515814534, 0.3254784, 0.62812954, -0.40979415, 0.57583493, 9.819013595581055, -0.48194172978401184, -0.6618780493736267, 1.0714625120162964, -2.802016496658325, 1.216942548751831, 
151, 2515831201, 0.32546344, 0.62802863, -0.40996128, 0.5758345, 9.826035499572754, -0.4963606894016266, -0.5946609973907471, 1.2514877319335938, -2.689595937728882, 1.4063421487808228, 
152, 2515847868, 0.32535413, 0.62795323, -0.41006702, 0.5759034, 9.88825511932373, -0.47432371973991394, -0.6207432746887207, 2.2397537231445312, -2.6494100093841553, 1.5906383991241455, 
153, 2515864535, 0.32533026, 0.62785095, -0.4101162, 0.5759931, 9.937705039978027, -0.4683064818382263, -0.6241337656974792, 1.976653814315796, -2.10003662109375, 1.1498502492904663, 
154, 2515881202, 0.32535562, 0.6277637, -0.41014513, 0.57605344, 9.843564987182617, -0.485811710357666, -0.6360780596733093, 1.7785907983779907, -2.1229214668273926, 0.7676830887794495, 
155, 2515897869, 0.32538813, 0.62770253, -0.41017395, 0.57608116, 9.860748291015625, -0.5066289305686951, -0.6762987375259399, 1.8160109519958496, -2.3723254203796387, 0.5848724246025085, 
156, 2515914536, 0.32546094, 0.6275892, -0.41026804, 0.57609636, 9.835325241088867, -0.5127956867218018, -0.7017211318016052, 1.2478187084197998, -2.2700281143188477, 0.8267202973365784, 
157, 2515931203, 0.32559213, 0.6274404, -0.4104094, 0.57608384, 9.776005744934082, -0.5065092444419861, -0.6790691614151001, 0.7198513150215149, -2.2089414596557617, 0.8307670950889587, 
158, 2515947870, 0.32569507, 0.6273149, -0.4105544, 0.5760589, 9.786096572875977, -0.5421257019042969, -0.6756855845451355, 0.6832315921783447, -2.4489519596099854, 0.8878387212753296, 
159, 2515964537, 0.32577297, 0.62721115, -0.4107154, 0.576013, 9.9003267288208, -0.6262000203132629, -0.682854413986206, 0.9320077896118164, -2.7611963748931885, 0.9209815263748169, 
160, 2515981204, 0.32579666, 0.62711656, -0.41085246, 0.57600504, 9.979278564453125, -0.7393397092819214, -0.6517724990844727, 1.041201114654541, -2.7269201278686523, 1.1306533813476562, 
161, 2515997871, 0.32580054, 0.62699676, -0.41093633, 0.5760733, 9.942397117614746, -0.7417870163917542, -0.6246275305747986, 1.8183929920196533, -2.2748944759368896, 1.1701740026474, 
162, 2516014538, 0.3256935, 0.62692714, -0.4108537, 0.5762688, 9.844450950622559, -0.5883266925811768, -0.6036805510520935, 3.320155620574951, -1.877321481704712, 1.0395876169204712, 
163, 2516031205, 0.3254474, 0.6269438, -0.41062093, 0.5765554, 9.836158752441406, -0.43544042110443115, -0.6347610354423523, 4.87814998626709, -1.897632122039795, 0.9144566655158997, 
164, 2516047872, 0.32526273, 0.6269577, -0.41040942, 0.57679486, 9.865907669067383, -0.3571337163448334, -0.6439666152000427, 4.5451202392578125, -1.9901450872421265, 0.6563829183578491, 
165, 2516064539, 0.32519332, 0.6269464, -0.4103111, 0.5769165, 9.874397277832031, -0.35336217284202576, -0.6440187692642212, 3.0926249027252197, -2.3343801498413086, 0.523645281791687, 
166, 2516081206, 0.32528046, 0.62686074, -0.41033986, 0.5769399, 9.884622573852539, -0.43472912907600403, -0.6600375175476074, 1.5146007537841797, -2.3235585689544678, 0.44871529936790466, 
167, 2516097873, 0.3253712, 0.6267806, -0.410421, 0.57691807, 9.88770866394043, -0.49885597825050354, -0.7117010951042175, 1.0580158233642578, -2.6542060375213623, 0.5657525658607483, 
168, 2516114540, 0.32549757, 0.6266423, -0.4104986, 0.5769419, 9.847683906555176, -0.5200613737106323, -0.6255239844322205, 1.0826168060302734, -2.140709638595581, 0.6600329279899597, 
169, 2516131207, 0.32556462, 0.6265223, -0.4105465, 0.5770001, 9.825077056884766, -0.4709985852241516, -0.5866110324859619, 1.5960105657577515, -2.182893753051758, 0.7950886487960815, 
170, 2516147874, 0.3256671, 0.6263855, -0.41058046, 0.57706666, 9.826082229614258, -0.3872806429862976, -0.5740511417388916, 1.4605833292007446, -1.9644811153411865, 0.6692534685134888, 
171, 2516164541, 0.325812, 0.6262284, -0.41065416, 0.57710284, 9.861160278320312, -0.3459552228450775, -0.6162974834442139, 0.9487072229385376, -1.9984949827194214, 0.6778785586357117, 
172, 2516181208, 0.32601777, 0.6259965, -0.41080877, 0.5771283, 9.871132850646973, -0.3988410234451294, -0.6806010007858276, 0.29767078161239624, -1.7822530269622803, 0.9685826301574707, 
173, 2516197875, 0.32622933, 0.6257582, -0.41104168, 0.57710135, 9.837788581848145, -0.5013484954833984, -0.7020138502120972, -0.3269204795360565, -2.1454989910125732, 1.2079397439956665, 
174, 2516214542, 0.32650992, 0.6254957, -0.41138127, 0.5769851, 9.867005348205566, -0.5922262668609619, -0.682582676410675, -1.2905983924865723, -2.491206645965576, 1.2558739185333252, 
175, 2516231209, 0.3267438, 0.625252, -0.41168422, 0.57690096, 9.87048053741455, -0.6335313320159912, -0.6365466713905334, -0.7459442019462585, -2.4929866790771484, 1.2905408143997192, 
176, 2516247876, 0.32691464, 0.6250137, -0.4119737, 0.57685554, 9.89134407043457, -0.595089316368103, -0.604764461517334, -0.13342934846878052, -2.520033597946167, 1.5308390855789185, 
177, 2516264543, 0.3270096, 0.6248031, -0.41213453, 0.57691514, 9.896056175231934, -0.5361924767494202, -0.6064997911453247, 0.8461154699325562, -2.10650372505188, 1.4597957134246826, 
178, 2516281210, 0.32697797, 0.62465394, -0.41216505, 0.5770726, 9.848970413208008, -0.4468238353729248, -0.6319882273674011, 2.414611577987671, -2.0160202980041504, 1.4399075508117676, 
179, 2516297877, 0.32696334, 0.6245149, -0.4121685, 0.57722914, 9.877954483032227, -0.3677900433540344, -0.6099451780319214, 2.5166780948638916, -1.9669463634490967, 1.2273732423782349, 
180, 2516314544, 0.32704702, 0.6243634, -0.41226906, 0.5772738, 9.887604713439941, -0.35730496048927307, -0.6430611610412598, 1.329478144645691, -2.3489723205566406, 1.054449200630188, 
181, 2516331211, 0.3273235, 0.6241387, -0.41246676, 0.5772187, 9.867303848266602, -0.34293124079704285, -0.6318618655204773, -0.22857415676116943, -2.176560878753662, 0.6910306215286255, 
182, 2516347878, 0.32769647, 0.62389493, -0.41274258, 0.5770735, 9.822587013244629, -0.38187164068222046, -0.5991901159286499, -1.4071747064590454, -2.390202760696411, 0.5247978568077087, 
183, 2516364545, 0.32802358, 0.6236613, -0.41299468, 0.5769599, 9.857202529907227, -0.45601925253868103, -0.6411042809486389, -1.0512861013412476, -2.3802521228790283, 0.6626453995704651, 
184, 2516381212, 0.3281288, 0.62348986, -0.41309997, 0.57701, 9.86772632598877, -0.5527037978172302, -0.6710417866706848, 1.0858567953109741, -2.2345542907714844, 1.11112380027771, 
185, 2516397879, 0.32823467, 0.6232911, -0.41318247, 0.5771053, 9.817946434020996, -0.5659458041191101, -0.6218217015266418, 1.3528884649276733, -1.8951671123504639, 1.1789782047271729, 
186, 2516414546, 0.3284668, 0.6230433, -0.41336682, 0.57710874, 9.779701232910156, -0.510223925113678, -0.6134733557701111, 0.006684914231300354, -1.9741564989089966, 1.0496084690093994, 
187, 2516431213, 0.32881698, 0.6227442, -0.41368642, 0.5770031, 9.769515037536621, -0.44755077362060547, -0.6354606747627258, -1.33502995967865, -2.227069139480591, 1.0476619005203247, 
188, 2516447880, 0.32922193, 0.62243825, -0.4140358, 0.5768517, 9.820378303527832, -0.4362448751926422, -0.6858951449394226, -1.8945075273513794, -2.312558174133301, 0.8857191801071167, 
189, 2516464547, 0.3296383, 0.62215114, -0.41440424, 0.5766591, 9.865736961364746, -0.5009289383888245, -0.682664692401886, -2.0745904445648193, -2.580902338027954, 0.7791575789451599, 
190, 2516481214, 0.33001262, 0.6218879, -0.41472986, 0.57649475, 9.890947341918945, -0.5741792321205139, -0.6534592509269714, -1.67368745803833, -2.5779950618743896, 0.7691813707351685, 
191, 2516497881, 0.33038047, 0.6216526, -0.41500223, 0.57634205, 9.895774841308594, -0.5262717008590698, -0.6092691421508789, -1.2043859958648682, -2.5541369915008545, 0.49709123373031616, 
192, 2516514548, 0.33083713, 0.621396, -0.4152569, 0.57617325, 9.88863468170166, -0.4251724183559418, -0.5523670315742493, -1.7572872638702393, -2.2445430755615234, 0.11230528354644775, 
193, 2516531215, 0.33145648, 0.6211543, -0.4155364, 0.57587636, 9.929105758666992, -0.27881985902786255, -0.5532782077789307, -2.8494133949279785, -2.456156015396118, -0.7575981616973877, 
194, 2516547882, 0.33235013, 0.6209379, -0.41593447, 0.57530695, 10.009786605834961, -0.1295510232448578, -0.5507059097290039, -4.968275547027588, -3.2365236282348633, -2.0464677810668945, 
195, 2516564549, 0.33371785, 0.62076855, -0.41652533, 0.5742694, 10.124798774719238, 0.04357333108782768, -0.5348801016807556, -9.059575080871582, -4.511589527130127, -4.2753119468688965, 
196, 2516581216, 0.33597213, 0.6203826, -0.41711396, 0.57294345, 10.318516731262207, 0.2742908298969269, -0.44405242800712585, -14.318984031677246, -2.345600128173828, -7.783705711364746, 
197, 2516597883, 0.3391015, 0.6200307, -0.41781387, 0.5709675, 10.105154037475586, 0.9115396738052368, -0.29888665676116943, -20.067556381225586, -3.0275487899780273, -12.343955993652344, 
198, 2516614550, 0.34239438, 0.62024426, -0.41787982, 0.5687176, 10.279098510742188, 1.4206520318984985, -0.3083812892436981, -17.77410316467285, -4.486766338348389, -17.883390426635742, 
199, 2516631217, 0.34569356, 0.6210682, -0.41654032, 0.566802, 10.425082206726074, 1.6095588207244873, -0.44444358348846436, -9.826221466064453, -2.1403818130493164, -24.785625457763672, 
200, 2516647884, 0.34896186, 0.62264615, -0.41309154, 0.5655908, 10.357410430908203, 2.168060779571533, -0.4056978225708008, 2.438281297683716, 2.8458573818206787, -34.06380844116211, 
201, 2516664551, 0.35273886, 0.62493557, -0.40829727, 0.56420267, 10.156119346618652, 2.916339635848999, -0.49763381481170654, 6.871250629425049, 3.9941303730010986, -44.12968826293945, 
202, 2516681218, 0.3575638, 0.62739474, -0.40302798, 0.56222105, 9.88776683807373, 3.442196846008301, -0.26855090260505676, 2.999807357788086, 4.897624969482422, -51.986637115478516, 
203, 2516697885, 0.3645131, 0.6291917, -0.3988112, 0.5587467, 9.736027717590332, 2.7809834480285645, -0.3071371912956238, -15.775379180908203, 4.329439163208008, -57.3368034362793, 
204, 2516714552, 0.37319624, 0.6300081, -0.39607507, 0.55402076, 9.472027778625488, 1.2049152851104736, -1.3025680780410767, -34.760902404785156, 3.740186929702759, -57.926910400390625, 
205, 2516731219, 0.38178855, 0.6304697, -0.39515856, 0.5482659, 9.208314895629883, -0.8314858675003052, -1.2129108905792236, -45.10255432128906, -4.223590850830078, -51.343563079833984, 
206, 2516747886, 0.38832432, 0.6309283, -0.39378038, 0.54412395, 9.798624992370605, -2.891096830368042, -0.15438424050807953, -29.961341857910156, -1.5357003211975098, -41.459476470947266, 
207, 2516764553, 0.39130968, 0.6319087, -0.3906021, 0.54313743, 9.005525588989258, -2.8305861949920654, -0.2263127714395523, 1.9098488092422485, 5.376320838928223, -29.151094436645508, 
208, 2516781220, 0.39245647, 0.6335149, -0.38801038, 0.5422959, 8.621484756469727, -1.2429512739181519, -1.0949736833572388, 9.746848106384277, -2.846652030944824, -21.207983016967773, 
209, 2516797887, 0.3946488, 0.6342082, -0.3871821, 0.54048353, 9.1408109664917, -0.4187260866165161, -0.5911139845848083, -6.364175319671631, -5.589133262634277, -17.72513771057129, 
210, 2516814554, 0.39734083, 0.6341233, -0.38759786, 0.5383084, 9.37185287475586, -0.4056215286254883, -0.4360527992248535, -16.290996551513672, -6.317305564880371, -13.140667915344238, 
211, 2516831221, 0.39898524, 0.6339911, -0.3881852, 0.5368226, 9.45265007019043, -0.22909629344940186, -0.42418164014816284, -10.679632186889648, -6.40191125869751, -6.581763744354248, 
212, 2516847888, 0.39966404, 0.6339855, -0.3889239, 0.53578824, 9.392251014709473, 0.3478619158267975, -0.3915835916996002, -5.34008264541626, -7.887765407562256, -1.540809154510498, 
213, 2516864555, 0.4005833, 0.6338283, -0.3900687, 0.53445417, 9.198627471923828, 0.9451417922973633, -0.10960070043802261, -9.256945610046387, -9.131174087524414, -1.0959551334381104, 
214, 2516881222, 0.4017335, 0.6338705, -0.39116254, 0.5327387, 9.273004531860352, 1.3742307424545288, 0.1093795895576477, -10.456803321838379, -10.780150413513184, -3.7707173824310303, 
215, 2516897889, 0.40300086, 0.63427484, -0.39186805, 0.530778, 9.490859031677246, 1.3165971040725708, -0.11661644279956818, -9.098332405090332, -11.810757637023926, -7.545444965362549, 
216, 2516914556, 0.40406072, 0.63510126, -0.39199826, 0.5288844, 9.532880783081055, 1.121579885482788, -0.4137828052043915, -4.746998310089111, -12.04307746887207, -10.240633964538574, 
217, 2516931223, 0.4044256, 0.6363044, -0.39154577, 0.52749276, 9.38250732421875, 1.0542347431182861, -0.574585497379303, 2.940999746322632, -11.467672348022461, -9.895307540893555, 
218, 2516947890, 0.4046546, 0.6373591, -0.3912151, 0.52628785, 9.478586196899414, 0.974838376045227, -0.4046646058559418, 3.0243043899536133, -10.830323219299316, -7.936867713928223, 
219, 2516964557, 0.40561548, 0.6376736, -0.39130047, 0.52510226, 9.9144926071167, 0.9303663969039917, 0.0077221812680363655, -3.628911256790161, -7.259089946746826, -6.735028266906738, 
220, 2516981224, 0.40688574, 0.6375541, -0.39134458, 0.5242312, 10.672045707702637, 0.9354713559150696, 0.30102017521858215, -5.169310092926025, -3.394387722015381, -6.005987167358398, 
221, 2516997891, 0.4063278, 0.63814723, -0.39067125, 0.5244445, 11.338109016418457, 0.8001859188079834, -0.06676622480154037, 10.383399963378906, -4.170953273773193, -1.4650472402572632, 
222, 2517014558, 0.4035903, 0.63950753, -0.3895037, 0.525768, 11.315047264099121, 0.8501481413841248, -0.5639647245407104, 26.90627098083496, -6.574259281158447, 5.241493225097656, 
223, 2517031225, 0.40050247, 0.64098996, -0.38812906, 0.52733827, 10.606078147888184, 1.485016107559204, -0.7690454125404358, 30.066987991333008, -6.326807022094727, 5.9595513343811035, 
224, 2517047892, 0.3974512, 0.64270884, -0.3874749, 0.5280355, 10.048002243041992, 1.9648905992507935, -1.1188602447509766, 25.790569305419922, -12.905123710632324, 5.96721887588501, 
225, 2517064559, 0.3948057, 0.6447928, -0.38851288, 0.5267147, 9.270415306091309, 1.0102344751358032, -0.8642386198043823, 13.46450424194336, -26.678224563598633, 5.521725654602051, 
226, 2517081226, 0.39317486, 0.6468807, -0.3896033, 0.5245648, 9.589971542358398, -0.2723265588283539, 0.3812328577041626, 6.450211524963379, -27.808563232421875, -0.1792125403881073, 
227, 2517097893, 0.39313066, 0.6472311, -0.3902205, 0.5237062, 9.588433265686035, -0.22824791073799133, -0.3202398419380188, 0.009611168876290321, -10.312739372253418, 0.043612040579319, 
228, 2517114560, 0.39127776, 0.64786434, -0.39083144, 0.52385545, 8.78310489654541, 0.022227449342608452, -1.0514459609985352, 11.466171264648438, -11.71860408782959, 8.440169334411621, 
229, 2517131227, 0.38823175, 0.64933753, -0.39158642, 0.5237338, 9.301497459411621, 0.154966801404953, -1.3169701099395752, 17.860136032104492, -19.53205680847168, 10.335784912109375, 
230, 2517147894, 0.38563845, 0.6506447, -0.3921631, 0.523596, 10.25207233428955, 0.14379683136940002, -1.4393341541290283, 15.865686416625977, -17.30917739868164, 8.29038143157959, 
231, 2517164561, 0.38221377, 0.6522212, -0.39199582, 0.5242704, 10.547431945800781, 0.4203345477581024, -1.2836564779281616, 25.25787353515625, -14.894947052001953, 9.326415061950684, 
232, 2517181228, 0.37923276, 0.65366864, -0.39182502, 0.52475995, 10.320886611938477, 1.3148325681686401, -0.9391002655029297, 22.448070526123047, -14.056056022644043, 7.546218395233154, 
233, 2517197895, 0.37760106, 0.6546597, -0.39180836, 0.52471375, 10.366015434265137, 2.3435568809509277, -1.2013276815414429, 13.078605651855469, -11.608902931213379, 3.241616725921631, 
234, 2517214562, 0.37720427, 0.65530306, -0.39187786, 0.5241439, 9.852313995361328, 1.7446401119232178, -1.2456058263778687, 5.1280035972595215, -9.59321403503418, -1.2234550714492798, 
235, 2517231229, 0.37778822, 0.6557804, -0.391764, 0.52321064, 9.851621627807617, 0.21833397448062897, -1.6646666526794434, -0.10193856805562973, -7.512423515319824, -6.030882358551025, 
236, 2517247896, 0.37758562, 0.6567078, -0.390773, 0.5229345, 10.074934005737305, -0.2732703983783722, -2.110140085220337, 9.462301254272461, -5.98926305770874, -6.684226036071777, 
237, 2517264563, 0.37612224, 0.658226, -0.38915086, 0.5232899, 10.051543235778809, 0.09663867950439453, -1.8513602018356323, 20.608596801757812, -6.972058296203613, -4.994536399841309, 
238, 2517281230, 0.37462726, 0.659608, -0.38779378, 0.5236294, 9.980116844177246, 0.3200282156467438, -1.8716024160385132, 19.303531646728516, -7.302652359008789, -3.375579595565796, 
239, 2517297897, 0.37321243, 0.6607036, -0.3869427, 0.5238881, 10.040196418762207, 0.5805040001869202, -1.9739277362823486, 16.158245086669922, -7.700799942016602, -0.8369471430778503, 
240, 2517314564, 0.37154132, 0.6615659, -0.38680127, 0.52409214, 9.967930793762207, 0.5113260746002197, -1.7284002304077148, 14.140727996826172, -9.573012351989746, 3.753077507019043, 
241, 2517331231, 0.36977547, 0.6622069, -0.38702285, 0.5243678, 9.925919532775879, 0.33017876744270325, -1.7901816368103027, 12.766324996948242, -9.624276161193848, 6.520238399505615, 
242, 2517347898, 0.36786953, 0.6627963, -0.3874254, 0.5246663, 9.8753080368042, 0.5427020192146301, -2.05383563041687, 12.721551895141602, -10.148748397827148, 8.010361671447754, 
243, 2517364565, 0.36596632, 0.66330606, -0.38816825, 0.52480406, 9.80725383758545, 0.6280834674835205, -1.943159818649292, 10.973908424377441, -11.412659645080566, 9.318351745605469, 
244, 2517381232, 0.36448205, 0.66344756, -0.38949648, 0.52467394, 9.742035865783691, 0.9221711158752441, -1.7074998617172241, 5.099871635437012, -11.657580375671387, 10.809858322143555, 
245, 2517397899, 0.36354, 0.66312164, -0.39115447, 0.52450603, 9.770524024963379, 1.181841254234314, -1.6620144844055176, 0.22219674289226532, -9.506532669067383, 11.504791259765625, 
246, 2517414566, 0.36302233, 0.66268224, -0.39276043, 0.52422, 9.746474266052246, 1.1224067211151123, -1.6255104541778564, -2.222632884979248, -8.366148948669434, 9.77741527557373, 
247, 2517431233, 0.36244217, 0.66241044, -0.39406183, 0.52398807, 9.638429641723633, 0.8820160627365112, -1.649907112121582, -0.1737310290336609, -8.122764587402344, 8.291135787963867, 
248, 2517447900, 0.361564, 0.6624797, -0.39480126, 0.52395064, 9.640667915344238, 0.8581669330596924, -1.8839943408966064, 4.4650959968566895, -7.875281810760498, 6.392055988311768, 
249, 2517464567, 0.3604281, 0.662874, -0.39510405, 0.5240063, 9.584649085998535, 1.0120400190353394, -1.6703922748565674, 8.299870491027832, -8.218684196472168, 4.681396007537842, 
250, 2517481234, 0.35957277, 0.6633012, -0.39510685, 0.5240512, 9.819145202636719, 1.1393693685531616, -1.4399813413619995, 8.058379173278809, -6.880072593688965, 2.2197444438934326, 
251, 2517497901, 0.35945666, 0.66334486, -0.394924, 0.5242134, 9.96469497680664, 1.2191174030303955, -1.4982095956802368, 4.900728225708008, -2.4905920028686523, 0.02903839945793152, 
252, 2517514568, 0.3595951, 0.6632826, -0.3945949, 0.52444506, 9.875860214233398, 1.0292494297027588, -1.479082703590393, 4.229739189147949, -0.7389135956764221, -1.077526330947876, 
253, 2517531235, 0.3593926, 0.663372, -0.39418906, 0.52477586, 9.788383483886719, 1.0724996328353882, -1.766109824180603, 6.618661403656006, -1.5757702589035034, -0.33174851536750793, 
254, 2517547902, 0.35941583, 0.6632894, -0.39424744, 0.5248204, 9.915843963623047, 1.0530246496200562, -1.7896385192871094, 2.8703835010528564, -2.777031898498535, 0.7169828414916992, 
255, 2517564569, 0.35925022, 0.66308564, -0.3943391, 0.5251224, 9.739931106567383, 1.0490481853485107, -1.6573731899261475, 3.8879754543304443, -1.7572616338729858, 2.5547962188720703, 
256, 2517581236, 0.3592013, 0.66269183, -0.39458376, 0.5254691, 9.681842803955078, 0.9815176129341125, -1.4749462604522705, 2.4206626415252686, -0.9251050353050232, 3.4786720275878906, 
257, 2517597903, 0.35925615, 0.66210544, -0.39488366, 0.5259452, 9.635576248168945, 1.0628705024719238, -1.4870375394821167, 1.934790015220642, 0.5192911624908447, 4.152952194213867, 
258, 2517614570, 0.35949957, 0.6614401, -0.39527333, 0.5263234, 9.842326164245605, 1.0520929098129272, -1.6290464401245117, -0.14622293412685394, 0.6241623759269714, 3.9528918266296387, 
259, 2517631237, 0.3600456, 0.6605916, -0.39582878, 0.5265981, 9.875099182128906, 0.9390389919281006, -1.8936439752578735, -2.642974853515625, 1.244309902191162, 3.827786684036255, 
260, 2517647904, 0.36077294, 0.659649, -0.39659864, 0.52670264, 9.788640975952148, 0.869939386844635, -1.8001383543014526, -4.653097152709961, 0.8031822443008423, 3.9390602111816406, 
261, 2517664571, 0.361394, 0.6587214, -0.39738122, 0.5268481, 9.749384880065918, 0.9299877882003784, -1.918036699295044, -4.365442276000977, 0.6090124845504761, 4.504512310028076, 
262, 2517681238, 0.36191693, 0.6578623, -0.39817956, 0.5269597, 9.68563461303711, 0.9810357689857483, -1.72569739818573, -3.9329261779785156, -0.08488689363002777, 4.676943302154541, 
263, 2517697905, 0.3625232, 0.6570036, -0.3989122, 0.5270604, 9.730478286743164, 0.9755231142044067, -1.5142477750778198, -4.284595012664795, 0.2562743127346039, 4.0942606925964355, 
264, 2517714572, 0.36325458, 0.6560156, -0.3996089, 0.5272594, 9.683120727539062, 1.1063125133514404, -1.6490675210952759, -4.429332256317139, 1.6193948984146118, 4.028781414031982, 
265, 2517731239, 0.36391947, 0.6550878, -0.40020245, 0.5275041, 9.748358726501465, 1.1561620235443115, -1.6807949542999268, -3.507960557937622, 1.6881587505340576, 3.7771694660186768, 
266, 2517747906, 0.364421, 0.65421456, -0.40045312, 0.528051, 9.895797729492188, 1.1858556270599365, -1.6800646781921387, -1.0004961490631104, 3.2492077350616455, 3.5311779975891113, 
267, 2517764573, 0.36538225, 0.6530019, -0.40060183, 0.5287747, 9.850083351135254, 1.744659662246704, -1.8969539403915405, -2.587728500366211, 6.827393531799316, 2.7224063873291016, 
268, 2517781240, 0.36671245, 0.652137, -0.4007738, 0.52879095, 9.463427543640137, 2.0623066425323486, -1.4159668684005737, -5.521254062652588, 3.359279155731201, -1.1832300424575806, 
269, 2517797907, 0.36841968, 0.6517664, -0.40096408, 0.5279162, 9.290318489074707, 1.3812249898910522, -0.3823460042476654, -8.405707359313965, -1.4302904605865479, -6.03817081451416, 
270, 2517814574, 0.37121674, 0.6509361, -0.40132624, 0.52670455, 9.75791072845459, 0.23956258594989777, -0.6012235283851624, -16.408538818359375, 1.2470518350601196, -8.715204238891602, 
271, 2517831241, 0.37494436, 0.6491273, -0.40231368, 0.52554166, 10.235064506530762, 0.3595782518386841, -1.6941050291061401, -24.66933822631836, 5.98162317276001, -6.574129104614258, 
272, 2517847908, 0.37846655, 0.6469762, -0.40396366, 0.52440286, 10.03320598602295, 0.0786784216761589, -1.523783802986145, -27.10846710205078, 5.056581497192383, -1.8626759052276611, 
273, 2517864575, 0.38086426, 0.6452031, -0.40563753, 0.5235587, 10.112900733947754, -0.37222546339035034, -1.4210871458053589, -20.53955841064453, 1.8173710107803345, 2.004075288772583, 
274, 2517881242, 0.38193187, 0.6438049, -0.40655082, 0.5237939, 10.261262893676758, -0.48763802647590637, -1.6113232374191284, -8.325322151184082, 3.518834114074707, 5.217482089996338, 
275, 2517897909, 0.3818181, 0.64279926, -0.4069573, 0.5247953, 10.128398895263672, 0.06890206784009933, -1.456653356552124, 2.7871296405792236, 3.5795738697052, 7.955977916717529, 
276, 2517914576, 0.3817608, 0.6416277, -0.4076062, 0.52576584, 9.691526412963867, 0.7556617259979248, -0.7521629929542542, 0.8710817694664001, 3.552399158477783, 9.22549819946289, 
277, 2517931243, 0.38220456, 0.6401876, -0.40873596, 0.5263218, 9.505526542663574, 0.895064651966095, -0.6260247826576233, -4.961489200592041, 2.8154449462890625, 9.207481384277344, 
278, 2517947910, 0.38342974, 0.63841665, -0.4102152, 0.52643085, 9.61620044708252, 0.9137104153633118, -1.2199358940124512, -11.891511917114258, 3.2945830821990967, 7.697332382202148, 
279, 2517964577, 0.38483536, 0.63664126, -0.41189927, 0.5262402, 9.504103660583496, 0.5614073872566223, -1.154560923576355, -14.205633163452148, 1.9690353870391846, 7.161975860595703, 
280, 2517981244, 0.38583174, 0.63520133, -0.41311195, 0.5263, 9.694214820861816, 0.3035132586956024, -0.9753062129020691, -9.114821434020996, 1.937774419784546, 6.288464546203613, 
281, 2517997911, 0.38615692, 0.6342006, -0.41359645, 0.5268877, 9.892943382263184, 0.15587297081947327, -0.9959161877632141, -0.9087130427360535, 2.6718597412109375, 5.682351112365723, 
282, 2518014578, 0.386203, 0.63329464, -0.41366738, 0.527887, 10.023759841918945, 0.27809587121009827, -1.0147120952606201, 3.2608625888824463, 4.420887470245361, 5.694094657897949, 
283, 2518031245, 0.3862494, 0.63238233, -0.41377264, 0.52886325, 9.991902351379395, 0.534658670425415, -0.9138861894607544, 3.164123058319092, 4.2518181800842285, 5.775568962097168, 
284, 2518047912, 0.386333, 0.6315363, -0.41385975, 0.52974415, 9.70245361328125, 0.7174233198165894, -0.780617356300354, 2.819504499435425, 3.7366440296173096, 5.142794609069824, 
285, 2518064579, 0.38632765, 0.63088524, -0.4137596, 0.5306014, 9.494620323181152, 0.6680103540420532, -0.8421650528907776, 4.37130069732666, 3.158615827560425, 4.0422539710998535, 
286, 2518081246, 0.38622, 0.63046414, -0.41338977, 0.53146774, 9.674371719360352, 0.9034416675567627, -0.9591930508613586, 6.526610374450684, 2.7819175720214844, 2.612053871154785, 
287, 2518097913, 0.38662773, 0.6298497, -0.41315857, 0.5320794, 9.858348846435547, 1.00998055934906, -1.0190292596817017, 2.6057403087615967, 3.48118257522583, 1.2130111455917358, 
288, 2518114580, 0.38700065, 0.6293211, -0.41287112, 0.53265655, 9.862394332885742, 0.9255090355873108, -0.9306149482727051, 2.920020341873169, 3.066038131713867, 0.8053592443466187, 
289, 2518131247, 0.38736826, 0.62881505, -0.41276866, 0.5330661, 9.992142677307129, 0.724213182926178, -0.9999817609786987, 1.9499268531799316, 1.7526577711105347, 1.117859959602356, 
290, 2518147914, 0.38780463, 0.6281389, -0.4130346, 0.53333986, 10.055562973022461, 0.44875940680503845, -1.0653613805770874, -0.6262689828872681, 1.0008739233016968, 2.5993754863739014, 
291, 2518164581, 0.38819867, 0.6272776, -0.41364792, 0.5335917, 10.074214935302734, 0.2990783154964447, -0.9665201902389526, -2.3315885066986084, 0.5398837924003601, 4.726190567016602, 
292, 2518181248, 0.38848612, 0.62627727, -0.41444257, 0.5339409, 9.971671104431152, 0.19146589934825897, -0.8076283931732178, -2.7937567234039307, 0.6769501566886902, 6.565130710601807, 
293, 2518197915, 0.38866735, 0.62525916, -0.41527137, 0.5343581, 9.908613204956055, 0.20563872158527374, -0.8385185599327087, -1.816862940788269, 0.6461637616157532, 7.262168884277344, 
294, 2518214582, 0.3884767, 0.6244594, -0.41593125, 0.5349184, 9.85719108581543, 0.16729775071144104, -0.9393360614776611, 1.4271079301834106, -0.15581488609313965, 7.646922588348389, 
295, 2518231249, 0.38798204, 0.62380683, -0.41642588, 0.5356534, 9.847518920898438, 0.2752036452293396, -0.7962424159049988, 4.008049011230469, -0.3817957937717438, 8.11954116821289, 
296, 2518247916, 0.38742805, 0.62322164, -0.41677186, 0.53646606, 9.846345901489258, 0.16299670934677124, -0.7176473140716553, 4.910371780395508, -0.0829339399933815, 7.745993137359619, 
297, 2518264583, 0.3866926, 0.62278855, -0.4169684, 0.5373459, 9.700821876525879, 0.03863315284252167, -0.7416720986366272, 6.988576412200928, -0.48333749175071716, 7.492954254150391, 
298, 2518281250, 0.38569412, 0.6225734, -0.41704294, 0.5382544, 9.70875358581543, 0.0017342051723971963, -0.8176338076591492, 9.13807201385498, -1.6019729375839233, 7.393871784210205, 
299, 2518297917, 0.38452262, 0.62243634, -0.4170459, 0.5392479, 9.854442596435547, 0.07778934389352798, -0.8009474873542786, 10.754913330078125, -1.835278868675232, 7.701301574707031, 
300, 2518314584, 0.383438, 0.6222023, -0.4171147, 0.54023606, 9.904004096984863, 0.2715250253677368, -0.69582599401474, 10.246321678161621, -1.4253349304199219, 7.873662948608398, 
301, 2518331251, 0.3825186, 0.6218634, -0.41740298, 0.541055, 9.758774757385254, 0.393232136964798, -0.6965256929397583, 7.623086452484131, -1.8764193058013916, 8.094833374023438, 
302, 2518347918, 0.38179567, 0.62143487, -0.4179834, 0.54160964, 9.742915153503418, 0.41232356429100037, -0.6858154535293579, 4.5791802406311035, -2.8853352069854736, 8.193490982055664, 
303, 2518364585, 0.38119885, 0.62084657, -0.41870463, 0.5421471, 9.744654655456543, 0.44277670979499817, -0.695444643497467, 3.0968897342681885, -2.3789079189300537, 8.73751163482666, 
304, 2518381252, 0.38069797, 0.6201739, -0.41954553, 0.5426188, 9.76637077331543, 0.40694451332092285, -0.6748334765434265, 1.7777079343795776, -2.3891665935516357, 8.974187850952148, 
305, 2518397919, 0.38056457, 0.6193071, -0.42068174, 0.5428226, 9.746252059936523, 0.38128697872161865, -0.8702383041381836, -2.212566614151001, -2.5276668071746826, 8.730289459228516, 
306, 2518414586, 0.38063034, 0.61842424, -0.42200232, 0.54275805, 9.748147964477539, 0.3322073221206665, -0.733434796333313, -4.2277750968933105, -3.5210049152374268, 8.082429885864258, 
307, 2518431253, 0.38076624, 0.6176012, -0.42335555, 0.54254586, 9.727760314941406, 0.3909255564212799, -0.771862268447876, -5.353465557098389, -4.253835678100586, 7.4494500160217285, 
308, 2518447920, 0.38082534, 0.61689335, -0.4244608, 0.54244596, 9.76123332977295, 0.38017722964286804, -0.8258917331695557, -3.301490545272827, -3.787440776824951, 6.627985954284668, 
309, 2518464587, 0.3809325, 0.61623514, -0.42534378, 0.54242736, 9.925457000732422, 0.31339046359062195, -0.915989100933075, -2.386399507522583, -2.9051589965820312, 5.586520671844482, 
310, 2518481254, 0.3810799, 0.6156112, -0.42598635, 0.5425283, 9.96479320526123, 0.1946796178817749, -0.925308883190155, -1.3501224517822266, -1.7755236625671387, 4.64962100982666, 
311, 2518497921, 0.38121969, 0.6150643, -0.4264095, 0.54271764, 9.884231567382812, 0.11370562016963959, -0.8059934377670288, 0.44177427887916565, -1.1439272165298462, 3.702463388442993, 
312, 2518514588, 0.38139048, 0.6146057, -0.42681202, 0.542801, 9.826409339904785, 0.10329355299472809, -0.7990716695785522, 0.048196692019701004, -1.7720017433166504, 2.9906985759735107, 
313, 2518531255, 0.3815327, 0.6140983, -0.4271378, 0.5430189, 9.860431671142578, 0.22198975086212158, -0.9061638712882996, 0.7081462144851685, -0.9056138396263123, 3.2713751792907715, 
314, 2518547922, 0.3816958, 0.6135457, -0.42750475, 0.54323983, 9.852743148803711, 0.30016598105430603, -0.8791422247886658, 0.2607949376106262, -0.7658452391624451, 3.5232763290405273, 
315, 2518564589, 0.3820415, 0.6128848, -0.42803052, 0.5433288, 9.837390899658203, 0.21706068515777588, -0.8347102403640747, -1.9796183109283447, -0.7914451360702515, 3.5107645988464355, 
316, 2518581256, 0.38246268, 0.6122502, -0.4286304, 0.5432756, 9.846837043762207, 0.11768367886543274, -0.8094863295555115, -2.853062868118286, -1.4620368480682373, 3.0860040187835693, 
317, 2518597923, 0.38299924, 0.61153966, -0.4292327, 0.543222, 9.905816078186035, 0.05727441981434822, -0.7944387197494507, -3.707247018814087, -0.8406344652175903, 2.9041152000427246, 
318, 2518614590, 0.38346037, 0.61082834, -0.42982015, 0.5432325, 9.800405502319336, 0.15189869701862335, -0.7922672033309937, -3.269423007965088, -0.7485952973365784, 3.3056716918945312, 
319, 2518631257, 0.38386816, 0.61018705, -0.43028864, 0.54329455, 9.756613731384277, 0.2704690396785736, -0.7610030770301819, -1.8098701238632202, -0.6513437032699585, 2.887454032897949, 
320, 2518647924, 0.3845485, 0.60950166, -0.43074286, 0.54322267, 9.77285385131836, 0.28036612272262573, -0.6653038263320923, -2.5900588035583496, -0.22525086998939514, 1.5036382675170898, 
321, 2518664591, 0.38528395, 0.60883975, -0.43099293, 0.5432455, 9.793265342712402, 0.3355870246887207, -0.6284750699996948, -2.5282936096191406, 0.8078052997589111, 0.7150745391845703, 
322, 2518681258, 0.3859495, 0.6082865, -0.43095076, 0.54342616, 9.782028198242188, 0.49268898367881775, -0.6273215413093567, -0.24557457864284515, 1.619663953781128, -0.15470071136951447, 
323, 2518697925, 0.38699546, 0.607712, -0.43078405, 0.54345745, 9.761163711547852, 0.633927583694458, -0.46841374039649963, -2.0434584617614746, 2.539006471633911, -2.3997695446014404, 
324, 2518714592, 0.38850152, 0.6070214, -0.43044415, 0.5434239, 9.821480751037598, 0.6600443124771118, -0.47167640924453735, -3.827665328979492, 4.520802021026611, -4.652317047119141, 
325, 2518731259, 0.38989714, 0.6064596, -0.4296839, 0.54365325, 9.855058670043945, 0.7565610408782959, -0.6127826571464539, -0.6029230952262878, 5.92678689956665, -5.660511016845703, 
326, 2518747926, 0.39127952, 0.60600364, -0.42856145, 0.54405427, 9.900727272033691, 0.9457056522369385, -0.6432396173477173, 1.7044554948806763, 7.17823600769043, -6.962418079376221, 
327, 2518764593, 0.39260074, 0.6057475, -0.42685518, 0.54472893, 9.738144874572754, 1.1964714527130127, -0.4931389093399048, 5.323737144470215, 8.971306800842285, -8.975091934204102, 
328, 2518781260, 0.3939008, 0.6060466, -0.4246949, 0.5451458, 9.50166130065918, 1.4518781900405884, -0.06122227758169174, 8.619789123535156, 6.973275661468506, -13.143783569335938, 
329, 2518797927, 0.3958543, 0.60639465, -0.42179507, 0.54559517, 9.656502723693848, 1.416012167930603, -0.17576980590820312, 8.050105094909668, 10.844698905944824, -18.61260223388672, 
330, 2518814594, 0.39818397, 0.6067031, -0.41790003, 0.5465533, 9.510174751281738, 1.4740111827850342, 0.030123405158519745, 11.8961820602417, 16.91059112548828, -22.653955459594727, 
331, 2518831261, 0.4009286, 0.60708433, -0.4129418, 0.5478906, 9.464871406555176, 1.5765011310577393, 0.18825513124465942, 15.745573997497559, 22.323909759521484, -27.793806076049805, 
332, 2518847928, 0.40482077, 0.6071421, -0.4076287, 0.54894215, 9.582001686096191, 1.6527472734451294, 0.25563544034957886, 10.285124778747559, 26.58612060546875, -33.39707565307617, 
333, 2518864595, 0.4094127, 0.60709155, -0.40237683, 0.54946697, 9.81242561340332, 1.4763309955596924, 0.12332289665937424, 5.756835460662842, 26.59758186340332, -36.91764831542969, 
334, 2518881262, 0.4138549, 0.60740256, -0.39688626, 0.5497887, 10.16158676147461, 1.190409541130066, -0.11618362367153168, 7.803295612335205, 24.658964157104492, -38.88369369506836, 
335, 2518897929, 0.4179093, 0.60820705, -0.39102295, 0.5500338, 10.515118598937988, 1.0572516918182373, -0.2741519510746002, 12.29089641571045, 22.5120849609375, -40.520896911621094, 
336, 2518914596, 0.4216487, 0.6095652, -0.3848154, 0.55005455, 10.757308006286621, 1.0854095220565796, -0.33669546246528625, 15.823681831359863, 19.65260887145996, -42.87495422363281, 
337, 2518931263, 0.4251505, 0.6114543, -0.37830016, 0.54978144, 10.877507209777832, 1.4648576974868774, -0.1319240778684616, 18.157827377319336, 16.67416000366211, -45.49470520019531, 
338, 2518947930, 0.42889282, 0.6135059, -0.37148333, 0.54923755, 10.695873260498047, 2.0470094680786133, 0.08197683840990067, 18.727113723754883, 16.514766693115234, -48.88026809692383, 
339, 2518964597, 0.43301788, 0.6155761, -0.36478317, 0.5481742, 10.314713478088379, 2.7180893421173096, 0.09450186043977737, 15.25805377960205, 14.908411026000977, -51.37785339355469, 
340, 2518981264, 0.4378013, 0.61732775, -0.3588626, 0.54630953, 10.188244819641113, 2.949298620223999, -0.03524147346615791, 6.622148513793945, 12.088645935058594, -52.10065460205078, 
341, 2518997931, 0.44321495, 0.6186441, -0.35375947, 0.54377764, 10.177112579345703, 2.834914207458496, 0.03544125705957413, -2.2656192779541016, 9.996779441833496, -51.89661407470703, 
342, 2519014598, 0.44935906, 0.61929375, -0.3497429, 0.5405843, 10.075610160827637, 2.4115700721740723, 0.3074612021446228, -13.261988639831543, 8.14584732055664, -50.36737060546875, 
343, 2519031265, 0.455996, 0.6193948, -0.34716922, 0.53655535, 9.820844650268555, 1.7425956726074219, 0.5456681251525879, -23.314054489135742, 3.556140422821045, -47.30997848510742, 
344, 2519047932, 0.46283898, 0.61894774, -0.34549958, 0.5322724, 9.701274871826172, 1.1265926361083984, 0.6557701230049133, -30.861858367919922, 1.999148964881897, -43.72032928466797, 
345, 2519064599, 0.46928546, 0.61824787, -0.3441457, 0.5283036, 9.590357780456543, 0.8277310132980347, 0.6994617581367493, -30.016178131103516, 2.392483711242676, -39.35860061645508, 
346, 2519081266, 0.47419912, 0.6180391, -0.34239528, 0.52528906, 9.52481460571289, 0.8379360437393188, 0.6599593162536621, -18.67372703552246, 2.226773262023926, -33.609554290771484, 
347, 2519097933, 0.47745192, 0.618604, -0.34022117, 0.5230855, 9.394481658935547, 1.1401581764221191, 0.4526497423648834, -5.68821382522583, 0.34999218583106995, -28.63115119934082, 
348, 2519114600, 0.47969264, 0.6196521, -0.33821535, 0.521092, 9.510442733764648, 1.492586612701416, 0.24092957377433777, 0.3535136580467224, -3.3401594161987305, -24.74244499206543, 
349, 2519131267, 0.48122624, 0.62097216, -0.33617225, 0.51942587, 9.649194717407227, 1.785902500152588, 0.05139482766389847, 5.303240776062012, -4.391228675842285, -21.950111389160156, 
350, 2519147934, 0.48244712, 0.6223219, -0.33401972, 0.51806486, 9.639215469360352, 2.1407663822174072, 0.03439277783036232, 7.499750137329102, -3.616737127304077, -20.389293670654297, 
351, 2519164601, 0.4840358, 0.62339973, -0.33210278, 0.5165172, 9.590470314025879, 2.484414577484131, 0.17999374866485596, 3.785876512527466, -3.354820966720581, -20.69997215270996, 
352, 2519181268, 0.48636997, 0.62397814, -0.33066133, 0.51454735, 9.510149002075195, 2.7148187160491943, 0.37254244089126587, -3.6159939765930176, -3.228588581085205, -21.58068084716797, 
353, 2519197935, 0.48920676, 0.624109, -0.3294224, 0.5124897, 9.394001007080078, 2.89536714553833, 0.6194616556167603, -8.276900291442871, -1.5667446851730347, -21.76799201965332, 
354, 2519214602, 0.49213144, 0.6240682, -0.32805273, 0.5106144, 9.259331703186035, 3.085813522338867, 0.831978440284729, -8.352418899536133, 0.46142005920410156, -21.638200759887695, 
355, 2519231269, 0.4948916, 0.6240855, -0.32650882, 0.50891227, 9.169388771057129, 3.311239242553711, 1.0374791622161865, -6.443333625793457, 1.2260372638702393, -21.34220314025879, 
356, 2519247936, 0.4976972, 0.62397146, -0.3249304, 0.5073237, 9.113909721374512, 3.4533300399780273, 1.1673619747161865, -6.572831153869629, 2.415646553039551, -20.958560943603516, 
357, 2519264603, 0.5005024, 0.62375265, -0.3231331, 0.5059793, 9.179252624511719, 3.5491154193878174, 1.2304210662841797, -5.976029396057129, 4.463424205780029, -20.820547103881836, 
358, 2519281270, 0.503268, 0.6234567, -0.32111558, 0.5048841, 9.222235679626465, 3.651658058166504, 1.229764699935913, -4.449676513671875, 6.550529479980469, -20.57362937927246, 
359, 2519297937, 0.5060021, 0.6231042, -0.31879297, 0.5040577, 9.181957244873047, 3.7073276042938232, 1.1671922206878662, -2.981771469116211, 8.837326049804688, -20.70486831665039, 
360, 2519314604, 0.50887555, 0.622554, -0.31627163, 0.50343263, 9.055680274963379, 3.7250239849090576, 1.2331610918045044, -2.7126076221466064, 11.505483627319336, -20.872417449951172, 
361, 2519331271, 0.5115768, 0.62199277, -0.3134832, 0.5031327, 8.89543628692627, 3.720191717147827, 1.2762300968170166, -0.46628010272979736, 13.472084045410156, -20.233739852905273, 
362, 2519347938, 0.5138209, 0.62165505, -0.31042182, 0.50316167, 8.75868034362793, 3.755338668823242, 1.2484025955200195, 3.832468271255493, 14.036919593811035, -19.133773803710938, 
363, 2519364605, 0.5152317, 0.62190807, -0.30711403, 0.5034359, 8.675460815429688, 3.885878801345825, 1.1838501691818237, 10.78082275390625, 12.108049392700195, -17.676971435546875, 
364, 2519381272, 0.51593864, 0.62263817, -0.30368292, 0.5038908, 8.685087203979492, 4.172913551330566, 1.2322602272033691, 16.380041122436523, 10.20745849609375, -16.110002517700195, 
365, 2519397939, 0.5163015, 0.62351084, -0.30059823, 0.5042894, 8.702021598815918, 4.285049915313721, 1.19416344165802, 17.40224266052246, 7.642134666442871, -13.88695240020752, 
366, 2519414606, 0.51651806, 0.62427586, -0.29787272, 0.5047382, 8.7716646194458, 4.174389362335205, 1.3528810739517212, 16.350168228149414, 6.603111267089844, -11.417352676391602, 
367, 2519431273, 0.5163149, 0.62494767, -0.29559314, 0.5054544, 8.937603950500488, 4.239937782287598, 1.0731282234191895, 16.670488357543945, 5.573221206665039, -6.894293785095215, 
368, 2519447940, 0.51530266, 0.62577796, -0.29387155, 0.50646305, 8.875502586364746, 4.455401420593262, 0.9547214508056641, 19.318540573120117, 2.638899087905884, -0.9488493800163269, 
369, 2519464607, 0.5133989, 0.6270444, -0.2921261, 0.507838, 8.651872634887695, 4.709283351898193, 0.6455004811286926, 25.630516052246094, 1.0161798000335693, 2.498838424682617, 
370, 2519481274, 0.50912035, 0.63008964, -0.2904516, 0.5093342, 8.222427368164062, 4.351680278778076, -0.7626415491104126, 42.283172607421875, -9.637215614318848, 7.986472129821777, 
371, 2519497941, 0.5043908, 0.63314956, -0.29024765, 0.51036084, 7.375020980834961, 3.1650009155273438, -1.26087486743927, 38.08043670654297, -17.772850036621094, 14.27711009979248, 
372, 2519514608, 0.5022949, 0.63323504, -0.29488474, 0.50966316, 5.974348545074463, 1.48667311668396, -1.136397361755371, -4.3053364753723145, -26.391170501708984, 26.050260543823242, 
373, 2519531275, 0.49852058, 0.6324241, -0.3035988, 0.50925905, 5.303625106811523, -0.8432006239891052, -1.5255359411239624, -13.737346649169922, -39.42461013793945, 52.47248840332031, 
374, 2519547942, 0.49332282, 0.63033515, -0.31480858, 0.51010406, 5.246527671813965, 0.18795639276504517, 1.9836219549179077, -18.30451011657715, -41.105892181396484, 75.1626968383789, 
375, 2519564609, 0.4872561, 0.6273191, -0.3247017, 0.51344043, 10.895879745483398, 9.566900253295898, 3.428285598754883, -7.4749956130981445, -24.5018367767334, 82.90264892578125, 
376, 2519581276, 0.48203057, 0.6289412, -0.33405465, 0.51037955, 23.197250366210938, 11.203534126281738, -1.2693898677825928, -8.03337287902832, -64.90708923339844, 45.932373046875, 
377, 2519597943, 0.49267954, 0.62107307, -0.3401163, 0.5058224, 16.311569213867188, -3.532939910888672, 2.391003370285034, -99.88959503173828, 9.338997840881348, -7.093805313110352, 
378, 2519614610, 0.4901173, 0.62293416, -0.33960065, 0.50636905, 4.1698384284973145, -6.17348575592041, 0.5632174015045166, 24.446006774902344, -11.342921257019043, 5.104860782623291, 
379, 2519631277, 0.48087654, 0.6282617, -0.34074533, 0.5078757, 4.273778438568115, -1.1593210697174072, -1.99016535282135, 60.98248291015625, -40.55025863647461, 30.433387756347656, 
380, 2519647944, 0.46742785, 0.6339923, -0.34275308, 0.511943, 8.815741539001465, 2.3641769886016846, -0.571927547454834, 83.38787841796875, -43.59143829345703, 56.31264114379883, 
381, 2519664611, 0.45564073, 0.6365238, -0.34754255, 0.5161816, 11.643597602844238, 4.826664924621582, -0.3097459673881531, 56.47133255004883, -36.619258880615234, 70.6685562133789, 
382, 2519681278, 0.45030016, 0.6358723, -0.35260725, 0.51823205, 11.435161590576172, 5.898898124694824, -1.0162047147750854, 12.028985977172852, -20.387773513793945, 49.78147506713867, 
383, 2519697945, 0.4506781, 0.63330746, -0.35769856, 0.51755464, 9.681402206420898, 4.834249019622803, -0.7703797221183777, -25.54574966430664, -11.705806732177734, 25.77372169494629, 
384, 2519714612, 0.4526942, 0.6301863, -0.3630411, 0.51588213, 9.132421493530273, 3.2733306884765625, -0.7967274785041809, -37.73749542236328, -10.808722496032715, 19.37015151977539, 
385, 2519731279, 0.4543296, 0.62748754, -0.36777782, 0.5143769, 8.894049644470215, 2.4488213062286377, -1.436612606048584, -32.197288513183594, -10.644896507263184, 17.575965881347656, 
386, 2519747946, 0.4545917, 0.62569135, -0.3713412, 0.51377285, 8.210943222045898, 1.8332412242889404, -1.8173803091049194, -17.014236450195312, -9.736921310424805, 17.90322494506836, 
387, 2519764613, 0.4524314, 0.62532127, -0.37407345, 0.51414824, 7.836151599884033, 1.5523858070373535, -0.8376302123069763, 3.1898586750030518, -14.136300086975098, 22.30316734313965, 
388, 2519781280, 0.4481281, 0.62614304, -0.37571788, 0.51571524, 8.531094551086426, 2.0358896255493164, -0.3290383517742157, 22.988311767578125, -15.351688385009766, 25.838214874267578, 
389, 2519797947, 0.44388723, 0.6271996, -0.37682268, 0.5172904, 9.202643394470215, 2.660977363586426, -0.4184306561946869, 25.364656448364258, -14.332820892333984, 22.716032028198242, 
390, 2519814614, 0.44097534, 0.6277355, -0.37786725, 0.5183679, 9.330946922302246, 3.4222252368927, 0.03502154350280762, 17.06069564819336, -10.99438190460205, 17.56748390197754, 
391, 2519831281, 0.4391449, 0.6277593, -0.37911743, 0.51898, 8.749662399291992, 4.26105260848999, 0.03438026085495949, 8.75694751739502, -9.021583557128906, 14.566259384155273, 
392, 2519847948, 0.4377967, 0.6276306, -0.38140026, 0.51860195, 8.28538990020752, 4.305361270904541, -0.5733568668365479, 0.0016200053505599499, -14.619685173034668, 14.757974624633789, 
393, 2519864615, 0.43740717, 0.6268808, -0.38416106, 0.5177989, 8.221024513244629, 3.7805778980255127, -0.8854832053184509, -8.676289558410645, -13.148504257202148, 13.79042911529541, 
394, 2519881282, 0.43795848, 0.6256722, -0.38674045, 0.51687384, 8.115921974182129, 3.183403491973877, -0.41847795248031616, -13.696383476257324, -8.996920585632324, 10.536341667175293, 
395, 2519897949, 0.43824956, 0.6250227, -0.3886456, 0.515983, 7.950028419494629, 2.6168739795684814, -0.27071553468704224, -10.016534805297852, -9.659710884094238, 7.35589075088501, 
396, 2519914616, 0.43802825, 0.6251054, -0.38959715, 0.5153528, 7.929232120513916, 2.295114755630493, 0.2771967053413391, -1.5270425081253052, -9.634142875671387, 3.9256277084350586, 
397, 2519931283, 0.43737197, 0.6257354, -0.39022052, 0.51467365, 7.962514400482178, 2.0024235248565674, -0.18451787531375885, 3.028095006942749, -11.974276542663574, 2.45828914642334, 
398, 2519947950, 0.43513218, 0.62723833, -0.39018348, 0.51477075, 8.356437683105469, 1.6099921464920044, -0.03564775735139847, 16.888051986694336, -13.986620903015137, 5.223483085632324, 
399, 2519964617, 0.43187442, 0.6289751, -0.3893035, 0.5160597, 8.606484413146973, 1.747451663017273, -0.29137858748435974, 28.160701751708984, -9.886075019836426, 8.133935928344727, 
400, 2519981284, 0.42762387, 0.631362, -0.3865278, 0.51876426, 8.890157699584961, 2.3382256031036377, -0.23196616768836975, 44.89979934692383, -3.0952017307281494, 5.93095064163208, 
401, 2519997951, 0.4244453, 0.6333163, -0.38246378, 0.5219946, 9.592933654785156, 3.5333662033081055, 0.9023611545562744, 44.96726989746094, 7.371368885040283, -0.7659661173820496, 
402, 2520014618, 0.42273685, 0.63476056, -0.37726617, 0.525398, 10.489280700683594, 3.7371935844421387, 0.06669003516435623, 41.60757064819336, 17.109634399414062, -9.084071159362793, 
403, 2520031285, 0.42070442, 0.63656723, -0.36973044, 0.53017855, 10.659758567810059, 4.402446746826172, 0.12022071331739426, 56.09617614746094, 27.767507553100586, -15.0059175491333, 
404, 2520047952, 0.4191831, 0.637986, -0.3604581, 0.5360312, 10.300636291503906, 6.0305256843566895, 0.14720411598682404, 61.79374694824219, 40.198387145996094, -20.317373275756836, 
405, 2520064619, 0.41862196, 0.6395706, -0.34789, 0.54284227, 9.376691818237305, 8.742364883422852, 2.1664884090423584, 72.58356475830078, 55.68254470825195, -35.86422348022461, 
406, 2520081286, 0.4241282, 0.64067477, -0.33172044, 0.54736906, 8.65699577331543, 11.49356746673584, 2.9712729454040527, 52.507083892822266, 72.28694152832031, -79.61717224121094, 
407, 2520097953, 0.44085324, 0.64008206, -0.3115488, 0.5467, 8.863117218017578, 12.271842956542969, 3.997431516647339, 1.3636490106582642, 93.01029968261719, -150.55734252929688, 
408, 2520114620, 0.46745417, 0.6375531, -0.28733084, 0.5407899, 10.693265914916992, 6.677709579467773, 3.754377603530884, -43.97332000732422, 110.58463287353516, -217.05624389648438, 
409, 2520131287, 0.49794, 0.6326152, -0.261337, 0.5325005, 11.292230606079102, -1.4660593271255493, 0.13391686975955963, -66.83087921142578, 122.43043518066406, -242.13796997070312, 
410, 2520147954, 0.5256325, 0.6263936, -0.23738396, 0.52439517, 9.220756530761719, -6.645411491394043, -3.343444585800171, -66.2084732055664, 115.91919708251953, -220.21131896972656, 
411, 2520164621, 0.54716396, 0.6206176, -0.21616799, 0.51837903, 7.637775421142578, -5.512350082397461, -3.693424701690674, -44.52696990966797, 103.42752838134766, -179.5845947265625, 
412, 2520181288, 0.5601324, 0.6198835, -0.19341916, 0.5143784, 6.5677313804626465, -1.0835094451904297, -2.3972787857055664, 19.427907943725586, 87.18791961669922, -155.6855926513672, 
413, 2520197955, 0.5653068, 0.6261868, -0.16853791, 0.509817, 6.7520751953125, 0.9030896425247192, -2.7023274898529053, 86.5359115600586, 57.84379196166992, -148.8095245361328, 
414, 2520214622, 0.5628995, 0.63821423, -0.14466266, 0.5048758, 8.07606029510498, -2.129948139190674, -5.212602615356445, 137.441650390625, 23.55583953857422, -126.05912017822266, 
415, 2520231289, 0.5575965, 0.64993745, -0.12606819, 0.50077367, 7.30721378326416, -1.062212347984314, -2.585475206375122, 131.42437744140625, 5.120748519897461, -89.4012680053711, 
416, 2520247956, 0.5533685, 0.6578988, -0.116525814, 0.49736714, 7.426898956298828, 2.8573803901672363, 1.495314598083496, 81.6043472290039, -12.503902435302734, -46.823116302490234, 
417, 2520264623, 0.549601, 0.6625222, -0.11886823, 0.49484682, 7.876183986663818, 7.69442892074585, 3.6715948581695557, 26.903812408447266, -41.922935485839844, 11.358529090881348, 
418, 2520281290, 0.54561454, 0.6632695, -0.130344, 0.49536735, 8.10345458984375, 9.929108619689941, 3.5413146018981934, -15.300424575805664, -49.616825103759766, 68.38257598876953, 
419, 2520297957, 0.54721147, 0.6542997, -0.15076642, 0.49972105, 5.302172660827637, 6.383421897888184, 3.2199158668518066, -104.23857116699219, -27.656494140625, 113.3039779663086, 
420, 2520314624, 0.5462079, 0.6450137, -0.17426656, 0.5052184, 2.3289639949798584, 0.815870463848114, -0.37663960456848145, -103.10610961914062, -35.7704963684082, 140.74041748046875, 
421, 2520331291, 0.5386767, 0.6402908, -0.19581428, 0.5113825, 2.92926025390625, -1.4898264408111572, -2.740020751953125, -49.452354431152344, -49.163368225097656, 151.7597198486328, 
422, 2520347958, 0.5255372, 0.63958836, -0.21415265, 0.51853263, 5.49176025390625, 1.6412991285324097, -0.3417331874370575, 2.709218740463257, -54.5793342590332, 155.52053833007812, 
423, 2520364625, 0.5084536, 0.64285433, -0.23026393, 0.52458745, 9.432415962219238, 2.8581960201263428, 2.2713143825531006, 40.70979690551758, -71.28980255126953, 149.95904541015625, 
424, 2520381292, 0.48731738, 0.6500529, -0.24357265, 0.52974087, 12.005692481994629, 3.3056528568267822, 3.0593481063842773, 81.06404113769531, -86.09771728515625, 142.78138732910156, 
425, 2520397959, 0.4697455, 0.6566527, -0.25786275, 0.53071016, 9.594454765319824, 2.33026123046875, 2.157998561859131, 52.55790710449219, -99.97044372558594, 121.12962341308594, 
426, 2520414626, 0.46124893, 0.6585087, -0.27469933, 0.5274051, 5.539800643920898, 1.3676432371139526, 1.8610726594924927, -20.600139617919922, -94.12352752685547, 94.08055877685547, 
427, 2520431293, 0.4529625, 0.65875584, -0.28808153, 0.52713835, 5.29824686050415, 4.371739387512207, 1.272268295288086, -8.380375862121582, -63.21626281738281, 90.3282241821289, 
428, 2520447960, 0.44932774, 0.65549403, -0.30234593, 0.52632606, 8.406129837036133, 13.347211837768555, 0.0023582372814416885, -44.65215301513672, -46.532135009765625, 82.75244903564453, 
429, 2520464627, 0.4593539, 0.64519095, -0.3212556, 0.5191507, 15.08963394165039, 16.112241744995117, 2.413161277770996, -158.01312255859375, -35.707366943359375, 49.407222747802734, 
430, 2520481294, 0.47283378, 0.6361232, -0.33278975, 0.51090765, 22.63451385498047, 14.290610313415527, 3.085726261138916, -145.432861328125, -14.014774322509766, -1.561083436012268, 
431, 2520497961, 0.49173597, 0.63207144, -0.3337744, 0.4972688, 32.13652038574219, 14.272661209106445, -3.6929876804351807, -128.0937957763672, -8.630325317382812, -95.66276550292969, 
432, 2520514628, 0.5208666, 0.618937, -0.33345628, 0.48417124, 11.791203498840332, -16.26963233947754, 3.259680986404419, -197.5811004638672, 52.67985534667969, -113.58628845214844, 
433, 2520531295, 0.52460885, 0.61944425, -0.3272865, 0.4836919, 1.5791902542114258, -13.740119934082031, -8.045307159423828, 7.776121616363525, 23.634401321411133, -40.420745849609375, 
434, 2520547962, 0.5059399, 0.6316098, -0.3200929, 0.49257958, 2.0454916954040527, -2.038316488265991, -8.072105407714844, 169.7221221923828, -21.82663345336914, 37.06202697753906, 
435, 2520564629, 0.47735327, 0.64461416, -0.32006684, 0.50414675, 12.694319725036621, 9.131914138793945, -3.954289197921753, 197.2918701171875, -59.63835144042969, 109.23343658447266, 
436, 2520581296, 0.45352608, 0.65199476, -0.32444158, 0.5137655, 24.034473419189453, 17.19150161743164, -1.2469987869262695, 138.15469360351562, -52.65835189819336, 118.3138656616211, 
437, 2520597963, 0.45263165, 0.64944935, -0.3264916, 0.51647204, 18.616212844848633, 22.02833366394043, 2.409142017364502, -2.8142166137695312, 9.844417572021484, 27.641944885253906, 
438, 2520614630, 0.46545592, 0.6426908, -0.32742125, 0.5129277, 10.946272850036621, 15.132145881652832, 3.2912185192108154, -87.20695495605469, 31.109872817993164, -35.78070831298828, 
439, 2520631297, 0.48355964, 0.6358138, -0.3236515, 0.5071103, 10.792654037475586, 11.030228614807129, 3.7554702758789062, -99.43750762939453, 48.322242736816406, -81.98153686523438, 
440, 2520647964, 0.50437903, 0.6309268, -0.31206837, 0.5001465, 11.033289909362793, 5.214720726013184, 5.3724517822265625, -79.98208618164062, 68.30511474609375, -133.73841857910156, 
441, 2520664631, 0.5247166, 0.6281766, -0.2911906, 0.4952524, 9.11622428894043, -0.21755096316337585, 4.366674423217773, -34.049861907958984, 101.04562377929688, -169.8045654296875, 
442, 2520681298, 0.54242456, 0.62690616, -0.26538953, 0.49227297, 4.843750953674316, -6.143492698669434, 1.4577844142913818, 3.272757053375244, 116.72242736816406, -178.24061584472656, 
443, 2520697965, 0.5568299, 0.625811, -0.24007033, 0.4905785, 1.6227813959121704, -9.361244201660156, -1.1040642261505127, 18.891067504882812, 113.84503173828125, -160.641357421875, 
444, 2520714632, 0.5636869, 0.6285747, -0.21425602, 0.49116722, 1.401206135749817, -6.1308274269104, -2.992535352706909, 71.59054565429688, 100.13250732421875, -135.0881805419922, 
445, 2520731299, 0.5631937, 0.6361749, -0.18747652, 0.49289656, 2.9418094158172607, -1.5916099548339844, -4.04203987121582, 127.02986907958984, 81.72710418701172, -117.232177734375, 
446, 2520747966, 0.5568923, 0.6481904, -0.16263069, 0.49322572, 5.845858573913574, 0.43673160672187805, -2.651101589202881, 161.14492797851562, 45.769874572753906, -100.23770141601562, 
447, 2520764633, 0.5482961, 0.66162246, -0.14252622, 0.4912367, 9.071878433227539, -0.2762887179851532, -3.2139151096343994, 158.0966796875, 10.00124740600586, -81.82008361816406, 
448, 2520781300, 0.54351574, 0.66932714, -0.1281904, 0.49006042, 9.041271209716797, 2.3719818592071533, -3.7593257427215576, 100.4172592163086, 15.12385368347168, -59.87488555908203, 
449, 2520797967, 0.5455389, 0.66819197, -0.12631997, 0.4898469, 7.2216572761535645, 8.32381820678711, -1.2714440822601318, -5.1251702308654785, 8.82763671875, -14.108181953430176, 
450, 2520814634, 0.5531535, 0.65906787, -0.13953182, 0.49008328, 7.32146692276001, 6.2042236328125, 2.5089457035064697, -111.21344757080078, -13.896562576293945, 45.006954193115234, 
451, 2520831301, 0.56380427, 0.64216894, -0.16472031, 0.49255565, 8.778983116149902, 0.5244418382644653, 4.508192539215088, -192.7633514404297, -20.256248474121094, 105.0177993774414, 
452, 2520847968, 0.56484056, 0.6291709, -0.19121885, 0.49853235, 7.67720365524292, -2.4352316856384277, -1.3832014799118042, -135.6150665283203, -34.03816604614258, 152.4308624267578, 
453, 2520864635, 0.5535898, 0.62649596, -0.21343328, 0.5054576, 5.1034159660339355, 0.6531434059143066, -3.4991424083709717, -26.444887161254883, -64.8132095336914, 165.99966430664062, 
454, 2520881302, 0.54114485, 0.6264442, -0.23744486, 0.50828123, 6.94583797454834, 2.5164718627929688, 1.0586872100830078, -23.618698120117188, -100.13742065429688, 158.38990783691406, 
455, 2520897969, 0.5251186, 0.6295475, -0.2551399, 0.51266366, 11.536999702453613, 4.411527156829834, 3.5560050010681152, 28.168426513671875, -86.7951889038086, 144.32057189941406, 
456, 2520914636, 0.50101024, 0.64199954, -0.26391387, 0.5168897, 11.83341121673584, 4.376417636871338, -0.47219377756118774, 128.10263061523438, -102.43165588378906, 117.21961212158203, 
457, 2520931303, 0.47970518, 0.6535396, -0.27106643, 0.5189335, 8.094573974609375, 1.932369351387024, 2.7083089351654053, 114.37464904785156, -98.12017059326172, 94.22563934326172, 
458, 2520947970, 0.4714965, 0.65513796, -0.28473347, 0.5171193, 3.3050878047943115, 2.4443764686584473, 6.144039630889893, -7.692008018493652, -77.0931625366211, 82.55020904541016, 
459, 2520964637, 0.46381664, 0.6548095, -0.29384694, 0.5193773, 2.3142218589782715, 5.1547532081604, 1.2968254089355469, 7.871786117553711, -36.19894027709961, 77.1484146118164, 
460, 2520981304, 0.4525986, 0.6568454, -0.29944152, 0.5234917, 5.653972148895264, 11.225406646728516, -2.380035877227783, 47.66087341308594, -32.22986602783203, 75.15178680419922, 
461, 2520997971, 0.45403615, 0.65177405, -0.31519607, 0.5193199, 13.846726417541504, 17.161869049072266, -1.5793317556381226, -85.24711608886719, -49.598175048828125, 64.476806640625, 
462, 2521014638, 0.4696892, 0.64221424, -0.33131686, 0.50713134, 28.82671546936035, 16.961217880249023, -0.08460453152656555, -181.64859008789062, -39.842105865478516, 0.24812127649784088, 
463, 2521031305, 0.49384648, 0.6332149, -0.33650872, 0.49184996, 24.0618953704834, 12.20793628692627, -0.15081337094306946, -186.3121795654297, -0.8387497663497925, -88.8242416381836, 
464, 2521047972, 0.5219576, 0.62375987, -0.3345866, 0.47595772, 15.79893684387207, -6.105520725250244, 2.541323184967041, -182.41696166992188, 31.30535888671875, -134.14691162109375, 
465, 2521064639, 0.53431195, 0.62223256, -0.32519364, 0.47072995, 6.6450724601745605, -13.913174629211426, -1.594122052192688, -37.36029052734375, 41.60213851928711, -94.76637268066406, 
466, 2521081306, 0.52529037, 0.63070554, -0.31349108, 0.47749752, 5.117529392242432, -8.163725852966309, -4.536822319030762, 125.11959838867188, 21.28178596496582, -14.00207805633545, 
467, 2521097973, 0.5030141, 0.6431776, -0.30366072, 0.4910088, 11.093976020812988, 2.5614025592803955, -3.956010103225708, 205.4198760986328, 2.145282506942749, 53.237396240234375, 
468, 2521114640, 0.478857, 0.65233505, -0.2999706, 0.5051464, 18.29036521911621, 10.481171607971191, -2.3953566551208496, 182.81527709960938, -8.986529350280762, 95.82252502441406, 
469, 2521131307, 0.46507347, 0.6560288, -0.2961403, 0.5153967, 19.891246795654297, 17.104537963867188, -0.4632245898246765, 110.73241424560547, 14.453993797302246, 57.695796966552734, 
470, 2521147974, 0.467844, 0.65395695, -0.29079148, 0.5185582, 13.069787979125977, 18.85604476928711, 1.9045997858047485, 8.573512077331543, 41.47989273071289, -18.581205368041992, 
471, 2521164641, 0.48173788, 0.64813036, -0.2844086, 0.51668894, 10.814689636230469, 14.923861503601074, 3.0685019493103027, -59.87641143798828, 57.78053283691406, -71.34838104248047, 
472, 2521181308, 0.5013361, 0.6415415, -0.27342755, 0.51217586, 10.52379035949707, 10.669231414794922, 4.141986846923828, -76.64485931396484, 75.03938293457031, -119.21748352050781, 
473, 2521197975, 0.5245687, 0.6343028, -0.25821358, 0.5057802, 9.649351119995117, 2.615877866744995, 2.838958740234375, -83.5374526977539, 90.38297271728516, -155.87646484375, 
474, 2521214642, 0.5465095, 0.6274072, -0.23925371, 0.50044525, 6.20704984664917, -6.03507661819458, 0.09282456338405609, -61.74451446533203, 104.99434661865234, -164.54104614257812, 
475, 2521231309, 0.5631899, 0.62199414, -0.2206695, 0.497238, 1.459110975265503, -10.374549865722656, -2.208040952682495, -31.262414932250977, 99.00837707519531, -139.39251708984375, 
476, 2521247976, 0.56932616, 0.6229287, -0.20119879, 0.49733952, -0.3953295946121216, -5.962146759033203, -4.000194072723389, 46.463321685791016, 78.9310531616211, -104.10260772705078, 
477, 2521264643, 0.5682188, 0.6286029, -0.18244575, 0.49869776, 2.1226744651794434, -0.9106410145759583, -2.1942315101623535, 95.30553436279297, 55.34442901611328, -77.96814727783203, 
478, 2521281310, 0.5609561, 0.6393106, -0.16602346, 0.49904552, 5.9851884841918945, -1.9363737106323242, -3.9979045391082764, 132.29977416992188, 16.94346809387207, -57.0731315612793, 
479, 2521297977, 0.5495977, 0.6531651, -0.15205298, 0.49819458, 9.54405689239502, -1.418509840965271, -3.163900375366211, 152.63279724121094, -13.172821998596191, -40.52935791015625, 
480, 2521314644, 0.5374691, 0.6666007, -0.14111088, 0.49684843, 10.921499252319336, 2.030953884124756, -2.2931389808654785, 143.58999633789062, -26.141149520874023, -25.823488235473633, 
481, 2521331311, 0.5297358, 0.6732494, -0.13771166, 0.49714297, 9.804545402526855, 6.024315357208252, -0.4643174409866333, 74.15843963623047, -18.993600845336914, 6.310178279876709, 
482, 2521347978, 0.5310922, 0.66861165, -0.14876334, 0.49876758, 7.351737022399902, 7.897745132446289, 2.772608757019043, -57.16979217529297, -18.26996421813965, 57.64959716796875, 
483, 2521364645, 0.5366884, 0.6560425, -0.1704615, 0.5025106, 5.792214393615723, 4.588251113891602, 3.285045623779297, -139.9624481201172, -15.909590721130371, 107.93975830078125, 
484, 2521381312, 0.5371165, 0.6445332, -0.1955679, 0.5077756, 5.504916667938232, 0.28850221633911133, 0.608060896396637, -122.71381378173828, -31.38710594177246, 145.55056762695312, 
485, 2521397979, 0.5285979, 0.6377874, -0.22025473, 0.51507246, 7.28836727142334, -2.500974416732788, -0.7609544396400452, -61.27360916137695, -49.505741119384766, 175.98013305664062, 
486, 2521414646, 0.511495, 0.63825047, -0.24423239, 0.5209222, 12.324028968811035, -1.8865625858306885, -1.5418946743011475, 2.886563777923584, -91.79401397705078, 187.0095672607422, 
487, 2521431313, 0.49161524, 0.64218384, -0.2621768, 0.52647674, 17.79129981994629, 3.8804352283477783, 0.13904067873954773, 48.3785285949707, -88.92939758300781, 163.50010681152344, 
488, 2521447980, 0.47272062, 0.6492678, -0.27033684, 0.5309468, 13.634681701660156, 8.819297790527344, 0.9063906073570251, 88.1323013305664, -70.25827026367188, 107.33158874511719, 
489, 2521464647, 0.45397666, 0.66083515, -0.2743069, 0.5309969, 7.469100475311279, 8.512682914733887, 2.332176446914673, 109.11224365234375, -92.46643829345703, 65.43343353271484, 
490, 2521481314, 0.44415247, 0.6662184, -0.28157482, 0.5287697, 3.7272119522094727, 4.887091636657715, 7.86426305770874, 32.9550895690918, -73.73400115966797, 52.489662170410156, 
491, 2521497981, 0.44041288, 0.66516227, -0.29370803, 0.5266227, 2.7664289474487305, 0.23705263435840607, 3.917438507080078, -32.07316970825195, -53.14308166503906, 65.4174575805664, 
492, 2521514648, 0.43076995, 0.66327107, -0.3003998, 0.53316855, 4.689733982086182, 1.9932236671447754, 0.9824546575546265, 29.666297912597656, -5.867644786834717, 89.90518188476562, 
493, 2521531315, 0.41606653, 0.6647826, -0.30558762, 0.5399712, 8.638529777526855, 15.670530319213867, -3.4188151359558105, 68.8638916015625, -23.184898376464844, 95.34429931640625, 
494, 2521547982, 0.4318751, 0.65389353, -0.3241017, 0.5299673, 23.7287540435791, 16.87255859375, -0.6059590578079224, -190.88214111328125, -27.945140838623047, 21.137527465820312, 
495, 2521564649, 0.457953, 0.63819575, -0.33580375, 0.519828, 16.67595100402832, 0.22477397322654724, -0.5061407089233398, -226.81312561035156, 32.0488166809082, -36.46251678466797, 
496, 2521581316, 0.46990114, 0.6325154, -0.33814853, 0.514561, 9.264139175415039, -4.649232864379883, -3.2123115062713623, -88.54190826416016, 14.437112808227539, -34.87401580810547, 
497, 2521597983, 0.46935004, 0.6349812, -0.3370158, 0.5127667, 10.93147087097168, -4.628564357757568, -1.8785666227340698, 12.498672485351562, -17.065074920654297, -13.600936889648438, 
498, 2521614650, 0.46010223, 0.64161795, -0.33399528, 0.5148587, 15.532963752746582, 1.039703607559204, -3.0444016456604004, 79.57857513427734, -28.83734893798828, 11.589410781860352, 
499, 2521631317, 0.4488154, 0.6486414, -0.33029196, 0.518398, 15.713215827941895, 5.898016929626465, -3.879110813140869, 95.525390625, -26.304597854614258, 19.448823928833008, 
500, 2521647984, 0.44075975, 0.65293133, -0.32759428, 0.52162623, 13.418486595153809, 10.272738456726074, -0.9383400678634644, 68.3753890991211, -13.66666030883789, 17.695093154907227, 
501, 2521664651, 0.43653506, 0.6551295, -0.32367113, 0.52486145, 13.139026641845703, 15.84819221496582, 2.875882148742676, 49.253684997558594, 6.2162628173828125, 3.2840182781219482, 
502, 2521681318, 0.44624847, 0.6528574, -0.31687537, 0.52366924, 13.241620063781738, 19.138671875, 6.414210319519043, -26.404706954956055, 41.9989128112793, -63.1181526184082, 
503, 2521697985, 0.4719788, 0.64486706, -0.30498302, 0.5180423, 12.40406608581543, 12.442643165588379, 5.907897472381592, -107.13114929199219, 93.12005615234375, -144.6209259033203, 
504, 2521714652, 0.500931, 0.6373579, -0.28329137, 0.5124346, 10.859589576721191, 2.192917823791504, 5.096731185913086, -84.88726806640625, 129.96823120117188, -200.40615844726562, 
505, 2521731319, 0.5247715, 0.6320036, -0.25720674, 0.50895107, 7.219878673553467, -7.978068828582764, -0.15795497596263885, -35.4116325378418, 136.79393005371094, -198.55223083496094, 
506, 2521747986, 0.5403007, 0.62969875, -0.23215602, 0.5076004, 2.2823293209075928, -12.929479598999023, -3.041560411453247, 11.877214431762695, 116.96900177001953, -162.79666137695312, 
507, 2521764653, 0.5463329, 0.63208556, -0.20692849, 0.5090862, -0.2850205600261688, -5.302350044250488, -3.3966689109802246, 75.57270050048828, 98.42576599121094, -127.53158569335938, 
508, 2521781320, 0.5455647, 0.63921654, -0.18074982, 0.51097065, 2.407586097717285, 3.0294413566589355, -2.456801414489746, 126.8340835571289, 77.51136779785156, -113.16741943359375, 
509, 2521797987, 0.5460565, 0.64665574, -0.15904242, 0.5082952, 8.389741897583008, 2.8441712856292725, -1.9821346998214722, 101.04854583740234, 41.22907638549805, -115.3982162475586, 
510, 2521814654, 0.54522574, 0.65601563, -0.1398822, 0.50279754, 14.965384483337402, 0.654126763343811, -2.7978928089141846, 102.13426971435547, 11.010946273803711, -112.16975402832031, 
511, 2521831321, 0.5442212, 0.66350305, -0.121572, 0.4988057, 13.421964645385742, 2.2400784492492676, -3.431262493133545, 94.39805603027344, 20.99570083618164, -100.39240264892578, 
512, 2521847988, 0.54630286, 0.6661844, -0.11039883, 0.49554402, 10.0760498046875, 4.328184604644775, -1.1695961952209473, 38.41368103027344, 16.731796264648438, -71.75061798095703, 
513, 2521864655, 0.5523138, 0.6629027, -0.110219344, 0.49331644, 7.302325248718262, 4.788232803344727, 0.4997633993625641, -38.659271240234375, 3.506757974624634, -26.41081428527832, 
514, 2521881322, 0.559219, 0.65672445, -0.12129502, 0.49119717, 5.908048629760742, 2.869596242904663, -0.6438852548599243, -91.86062622070312, -28.254653930664062, 24.444242477416992, 
515, 2521897989, 0.56033736, 0.65300953, -0.14052735, 0.48974743, 7.447782516479492, 0.5281340479850769, -2.5358824729919434, -83.2566909790039, -69.72523498535156, 81.31651306152344, 
516, 2521914656, 0.55644363, 0.65059847, -0.16267969, 0.49053812, 8.399443626403809, -0.8892541527748108, -0.39978593587875366, -63.38737869262695, -80.09588623046875, 118.62418365478516, 
517, 2521931323, 0.5534718, 0.64528054, -0.18532126, 0.49288762, 7.197998046875, -2.1616971492767334, 3.9833486080169678, -78.66280364990234, -64.20272064208984, 126.83409881591797, 
518, 2521947990, 0.5452378, 0.64259696, -0.20692463, 0.4969581, 6.514692306518555, -1.9500229358673096, 3.3914074897766113, -39.51244354248047, -68.26298522949219, 143.17921447753906, 
519, 2521964657, 0.5306101, 0.643639, -0.22860616, 0.5019175, 8.251296997070312, 2.061112642288208, 2.3068976402282715, 3.808772325515747, -86.45372772216797, 163.3443145751953, 
520, 2521981324, 0.5141571, 0.6456474, -0.24945174, 0.50651336, 14.195551872253418, 5.114716529846191, 3.141989231109619, 17.65160369873047, -91.26701354980469, 163.06886291503906, 
521, 2521997991, 0.49381003, 0.6523851, -0.26170895, 0.5119119, 17.27390480041504, 7.356046676635742, 3.187246084213257, 83.0339584350586, -80.49565887451172, 133.20814514160156, 
522, 2522014658, 0.4703289, 0.66426855, -0.26431713, 0.5173728, 13.060595512390137, 10.465601921081543, 1.6775035858154297, 148.6709747314453, -71.24317169189453, 91.91197967529297, 
523, 2522031325, 0.4502353, 0.6746141, -0.262037, 0.5229921, 9.324926376342773, 11.366613388061523, 0.16451093554496765, 145.85311889648438, -43.121429443359375, 60.91722106933594, 
524, 2522047992, 0.43892723, 0.6803644, -0.26182282, 0.5252581, 5.951408386230469, 7.31785249710083, 2.745079278945923, 77.47283172607422, -32.707210540771484, 36.90117645263672, 
525, 2522064659, 0.4307764, 0.6832635, -0.2654871, 0.52640235, 6.214053153991699, 0.6876166462898254, 5.280905246734619, 38.03657531738281, -33.72570037841797, 45.4615364074707, 
526, 2522081326, 0.43061194, 0.67664635, -0.27328464, 0.5310732, 8.03736400604248, 0.6980502605438232, -0.529894232749939, -36.17820739746094, 19.545324325561523, 63.77378463745117, 
527, 2522097993, 0.42111215, 0.67722434, -0.27730587, 0.5358485, 10.109298706054688, 9.253655433654785, -6.159382343292236, 42.535377502441406, -12.599828720092773, 67.05779266357422, 
528, 2522114660, 0.4319459, 0.6712495, -0.2877512, 0.5291939, 19.373355865478516, 10.895452499389648, -0.8628127574920654, -116.61013793945312, -21.44484519958496, 1.532720685005188, 
529, 2522131327, 0.44359863, 0.66412663, -0.29556814, 0.5242096, 16.280790328979492, 0.36536216735839844, -1.966003656387329, -110.92774963378906, -0.14123456180095673, -6.288882255554199, 
530, 2522147994, 0.44893935, 0.66142005, -0.29964727, 0.52075773, 11.010311126708984, -3.4317781925201416, -2.6771910190582275, -52.04771423339844, -10.473483085632324, -4.9699506759643555, 
531, 2522164661, 0.453441, 0.65940195, -0.30463132, 0.51650757, 11.259261131286621, -3.8615312576293945, -3.6655690670013428, -51.00563430786133, -21.064273834228516, -1.8187899589538574, 
532, 2522181328, 0.4513944, 0.66006535, -0.30756035, 0.51571655, 16.760408401489258, -1.4987304210662842, -1.9333090782165527, 1.5699410438537598, -22.17055320739746, 17.195138931274414, 
533, 2522197995, 0.4471937, 0.65999186, -0.3116181, 0.51703286, 18.210237503051758, -0.23514693975448608, -2.1451547145843506, 9.490290641784668, -18.042381286621094, 37.97803497314453, 
534, 2522214662, 0.44270054, 0.6596222, -0.3161797, 0.5185992, 14.405718803405762, 0.0674324706196785, -2.494462728500366, 8.652453422546387, -18.017610549926758, 42.6405143737793, 
535, 2522231329, 0.43709168, 0.6599565, -0.32125652, 0.5198101, 14.618145942687988, 1.22860586643219, -2.3134117126464844, 13.230578422546387, -26.115293502807617, 46.29939651489258, 
536, 2522247996, 0.43247584, 0.659158, -0.3271035, 0.52103615, 13.689041137695312, 2.4105610847473145, -2.1681180000305176, 2.569267988204956, -22.10796546936035, 48.766334533691406, 
537, 2522264663, 0.42978904, 0.6567887, -0.33399636, 0.52187777, 12.01627254486084, 2.838411808013916, -2.08048415184021, -15.47885799407959, -16.981046676635742, 48.979000091552734, 
538, 2522281330, 0.42829892, 0.65328723, -0.3421862, 0.52219194, 11.766827583312988, 2.762761354446411, -1.2378523349761963, -30.060571670532227, -16.36484146118164, 51.58124923706055, 
539, 2522297997, 0.42706636, 0.6491281, -0.3505286, 0.52285457, 11.44741153717041, 1.727368950843811, -0.07167335599660873, -32.875877380371094, -12.275795936584473, 53.918617248535156, 
540, 2522314664, 0.42464545, 0.6457459, -0.35729057, 0.52443504, 10.319424629211426, 0.2818719744682312, 0.3281756341457367, -17.41179084777832, -9.20516300201416, 51.95747756958008, 
541, 2522331331, 0.42063054, 0.64352274, -0.36191833, 0.5272226, 9.535720825195312, 0.02353491447865963, 0.2938874363899231, 3.710171937942505, -5.72334098815918, 48.888118743896484, 
542, 2522347998, 0.41577527, 0.6421964, -0.365086, 0.53049695, 9.297526359558105, 0.7074105143547058, 0.13159170746803284, 16.501798629760742, -4.7047319412231445, 44.63750076293945, 
543, 2522364665, 0.410478, 0.64102954, -0.36686444, 0.5347892, 8.455946922302246, 1.4820396900177002, -0.36518874764442444, 26.55915069580078, 2.05853009223938, 42.616783142089844, 
544, 2522381332, 0.40538344, 0.6395736, -0.36840785, 0.5393383, 7.201619625091553, 2.1031653881073, -0.5389716029167175, 26.40777587890625, 5.419790744781494, 42.29090118408203, 
545, 2522397999, 0.40085354, 0.6382366, -0.36980075, 0.54333955, 7.020875930786133, 2.3641910552978516, -0.07943020761013031, 23.388879776000977, 4.418304920196533, 37.73031234741211, 
546, 2522414666, 0.39714912, 0.63721615, -0.37030926, 0.54689974, 7.464985370635986, 2.3315703868865967, -0.0915345549583435, 22.85915756225586, 5.8273210525512695, 28.762426376342773, 
547, 2522431333, 0.39425403, 0.63627285, -0.369734, 0.5504703, 7.986297130584717, 2.5568323135375977, -0.507046103477478, 23.67989730834961, 10.593241691589355, 20.818727493286133, 
548, 2522448000, 0.39178446, 0.6354534, -0.36814559, 0.5542318, 8.488429069519043, 2.8452701568603516, -0.8294802904129028, 26.393768310546875, 14.787930488586426, 15.015640258789062, 
549, 2522464667, 0.39008477, 0.63436526, -0.36510953, 0.5586679, 8.79140567779541, 3.6409919261932373, -0.7237074375152588, 29.418380737304688, 24.612668991088867, 8.295485496520996, 
550, 2522481334, 0.3907456, 0.63248277, -0.36079183, 0.5631277, 9.40073013305664, 4.934305667877197, 0.013298770412802696, 22.090402603149414, 37.126182556152344, -4.278873443603516, 
551, 2522498001, 0.39542538, 0.62936383, -0.35538518, 0.56678164, 9.736495018005371, 5.5460100173950195, 0.7842902541160583, 3.5076022148132324, 51.298362731933594, -23.6197566986084, 
552, 2522514668, 0.40435454, 0.62563646, -0.34932873, 0.5683713, 10.363482475280762, 5.184174537658691, 1.3105469942092896, -19.034870147705078, 56.873687744140625, -47.060115814208984, 
553, 2522531335, 0.41667867, 0.6217693, -0.34297404, 0.5675833, 11.397612571716309, 3.9772589206695557, 1.2931885719299316, -38.551273345947266, 56.15909194946289, -67.8373031616211, 
554, 2522548002, 0.4304414, 0.6183063, -0.3364457, 0.5649973, 11.563858985900879, 2.1873679161071777, 0.4825618863105774, -47.0175666809082, 50.77345657348633, -80.27137756347656, 
555, 2522564669, 0.44371274, 0.6158319, -0.3298307, 0.56132156, 11.523486137390137, 0.5670803189277649, -0.3377583622932434, -44.34746170043945, 41.41182327270508, -84.23358917236328, 
556, 2522581336, 0.45499402, 0.6148322, -0.32294828, 0.55737454, 11.427583694458008, -0.7219688296318054, -1.0135974884033203, -30.943500518798828, 30.886812210083008, -81.87522888183594, 
557, 2522598003, 0.46346873, 0.61560404, -0.31569463, 0.5536833, 11.282779693603516, -1.5003862380981445, -1.5571836233139038, -11.078365325927734, 20.170005798339844, -75.86016082763672, 
558, 2522614670, 0.46973062, 0.61766654, -0.3085045, 0.5501511, 11.29781723022461, -1.3477861881256104, -1.2828128337860107, 2.022573947906494, 10.906275749206543, -69.50265502929688, 
559, 2522631337, 0.47510383, 0.61965644, -0.30202895, 0.54688287, 11.73536205291748, -0.4167521893978119, -0.08483301103115082, 3.638981342315674, 8.161017417907715, -62.14358901977539, 
560, 2522648004, 0.48018116, 0.6209423, -0.29655612, 0.5439774, 11.521418571472168, 1.1075506210327148, 0.3581995964050293, -0.5154482126235962, 8.462366104125977, -54.1482048034668, 
561, 2522664671, 0.48575053, 0.6214201, -0.29312444, 0.54033464, 10.714189529418945, 2.2740466594696045, 0.013809438794851303, -14.291013717651367, 2.629096031188965, -48.083194732666016, 
562, 2522681338, 0.49200502, 0.620836, -0.29225126, 0.53580123, 10.084160804748535, 2.45166277885437, -0.04236682504415512, -32.47624206542969, -4.454757213592529, -40.5433349609375, 
563, 2522698005, 0.49942988, 0.61865985, -0.29449505, 0.53019094, 9.512160301208496, 1.9133226871490479, 0.2705448269844055, -56.15861892700195, -11.30401611328125, -31.99673843383789, 
564, 2522714672, 0.5076164, 0.61500937, -0.2992162, 0.5239836, 9.145042419433594, 1.1875460147857666, 0.11300013214349747, -75.29277038574219, -15.539206504821777, -23.320764541625977, 
565, 2522731339, 0.51583123, 0.6104136, -0.3057469, 0.51752514, 8.846334457397461, 0.7264034748077393, -0.2592662572860718, -85.254638671875, -19.34310531616211, -14.716262817382812, 
566, 2522748006, 0.52368593, 0.6050387, -0.31356412, 0.5112327, 8.524349212646484, 0.5541255474090576, -0.37340548634529114, -90.80907440185547, -21.191396713256836, -5.833382606506348, 
567, 2522764673, 0.53082114, 0.5990568, -0.32336813, 0.5047704, 8.372245788574219, 0.7637460231781006, -0.18043304979801178, -97.32772064208984, -28.44306182861328, 5.633839130401611, 
568, 2522781340, 0.537043, 0.59268177, -0.33512935, 0.49799764, 8.599766731262207, 0.5950778722763062, -0.4132688343524933, -102.48490142822266, -37.51338195800781, 16.58778190612793, 
569, 2522798007, 0.54171777, 0.5866831, -0.3466733, 0.4921, 8.890795707702637, -0.38778525590896606, -1.0638117790222168, -92.09127044677734, -37.98834228515625, 23.341259002685547, 
570, 2522814674, 0.542154, 0.5836919, -0.357155, 0.48766106, 8.681852340698242, -1.0736318826675415, -1.4434165954589844, -56.80535125732422, -48.41314697265625, 31.630979537963867, 
571, 2522831341, 0.54003155, 0.5818207, -0.36973238, 0.4828547, 8.606112480163574, -0.3017049729824066, -0.5015304088592529, -50.14421081542969, -67.68256378173828, 44.463279724121094, 
572, 2522848008, 0.5375394, 0.57829714, -0.38490197, 0.4779898, 8.783053398132324, 1.7450239658355713, 0.053654737770557404, -63.61884307861328, -72.9891586303711, 60.019134521484375, 
573, 2522864675, 0.539484, 0.5693833, -0.40296575, 0.47157004, 9.754404067993164, 3.7828495502471924, 1.618587851524353, -114.80451202392578, -60.39790725708008, 65.46316528320312, 
574, 2522881342, 0.5484016, 0.55483186, -0.42251882, 0.46140566, 10.684188842773438, 4.7884721755981445, 1.791066288948059, -178.23098754882812, -42.982566833496094, 50.43809509277344, 
575, 2522898009, 0.5588278, 0.5403475, -0.43985003, 0.4497423, 11.478110313415527, 3.3260128498077393, 1.8438236713409424, -181.0401153564453, -36.14960861206055, 31.35930824279785, 
576, 2522914676, 0.56784356, 0.52757114, -0.45330226, 0.44015855, 10.355695724487305, 0.0575525239109993, 1.9734370708465576, -150.99620056152344, -23.070831298828125, 24.151758193969727, 
577, 2522931343, 0.5755329, 0.5157962, -0.46486598, 0.43199065, 8.661474227905273, -2.7234625816345215, 0.8978902697563171, -132.07412719726562, -17.7211856842041, 23.702348709106445, 
578, 2522948010, 0.57831085, 0.50837916, -0.47392306, 0.42720518, 7.742944717407227, -3.9245121479034424, 0.09589846432209015, -79.14089965820312, -24.444963455200195, 28.811670303344727, 
579, 2522964677, 0.57700133, 0.5044931, -0.48137626, 0.42524502, 8.458663940429688, -3.410423994064331, -0.8958128690719604, -36.88316345214844, -31.872074127197266, 34.88490295410156, 
580, 2522981344, 0.5743933, 0.50152725, -0.4880971, 0.4246224, 9.265157699584961, -1.3055448532104492, -0.39490365982055664, -22.156890869140625, -31.30095100402832, 38.352928161621094, 
581, 2522998011, 0.57240605, 0.4976381, -0.49528793, 0.42355347, 9.765092849731445, 0.6656925678253174, 0.29613783955574036, -30.81209373474121, -29.908527374267578, 39.470340728759766, 
582, 2523014678, 0.571992, 0.4921029, -0.503123, 0.42133996, 9.844347953796387, 1.1737091541290283, 0.8736454844474792, -48.449806213378906, -26.208171844482422, 38.1905517578125, 
583, 2523031345, 0.57276773, 0.48548168, -0.5113495, 0.41805074, 10.110191345214844, 0.018838079646229744, 1.3566395044326782, -61.5992431640625, -24.127330780029297, 35.59657287597656, 
584, 2523048012, 0.57344985, 0.47928795, -0.51887333, 0.4149806, 10.909457206726074, -0.5648434162139893, 0.901185154914856, -56.80483627319336, -22.19255828857422, 32.87242889404297, 
585, 2523064679, 0.573473, 0.47466493, -0.5244543, 0.41324311, 11.815385818481445, 0.35509443283081055, 0.4913197457790375, -38.145076751708984, -16.978452682495117, 27.98641014099121, 
586, 2523081346, 0.57261264, 0.47271684, -0.5274811, 0.41281623, 12.083852767944336, 1.5542654991149902, -0.169205442070961, -12.719117164611816, -13.418153762817383, 17.67598533630371, 
587, 2523098013, 0.57053137, 0.47381914, -0.5286838, 0.41289574, 10.99266242980957, 1.3146058320999146, -0.6798042058944702, 10.26835823059082, -17.677833557128906, 6.151788234710693, 
588, 2523114680, 0.5676877, 0.47637945, -0.52923495, 0.41316316, 9.757054328918457, 0.5786858797073364, -1.4127999544143677, 20.995956420898438, -21.417997360229492, 1.6363046169281006, 
589, 2523131347, 0.5650592, 0.47855473, -0.5299536, 0.41333154, 9.024385452270508, 0.7331888675689697, -1.3552497625350952, 17.95158576965332, -20.511280059814453, 2.5861146450042725, 
590, 2523148014, 0.56324023, 0.47949582, -0.5317051, 0.4124729, 8.851428031921387, 0.9790133833885193, -0.16165177524089813, 3.812373399734497, -21.435739517211914, 4.192389965057373, 
591, 2523164681, 0.56203866, 0.4795356, -0.5340886, 0.4109835, 9.02319622039795, 0.9088544845581055, 0.43743211030960083, -5.814822196960449, -21.15261459350586, 5.3827033042907715, 
592, 2523181348, 0.5614633, 0.47885868, -0.53651303, 0.40939865, 9.402505874633789, 0.5774638652801514, 0.3710671067237854, -11.117043495178223, -17.308948516845703, 6.015414714813232, 
593, 2523198015, 0.5615444, 0.47712412, -0.53942215, 0.40748546, 9.992979049682617, 0.4072631597518921, 0.024945249781012535, -19.93780517578125, -14.868474960327148, 8.399532318115234, 
594, 2523214682, 0.56144243, 0.47512358, -0.54242754, 0.4059708, 10.625022888183594, 0.2508338689804077, -0.45277389883995056, -19.15251922607422, -13.87009048461914, 11.750487327575684, 
595, 2523231349, 0.560503, 0.4738224, -0.54431504, 0.40626335, 10.801189422607422, 0.44754818081855774, -1.1158993244171143, -3.860592842102051, -8.726984977722168, 14.802201271057129, 
596, 2523248016, 0.5582109, 0.47356585, -0.54563755, 0.407941, 10.503763198852539, 0.5955014228820801, -1.0554163455963135, 11.3406400680542, -10.012765884399414, 18.165220260620117, 
597, 2523264683, 0.55665666, 0.47245893, -0.54768485, 0.408604, 10.040974617004395, 0.36649227142333984, -0.8413481116294861, -0.17558814585208893, -10.942401885986328, 17.753337860107422, 
598, 2523281350, 0.55607396, 0.4704187, -0.55038226, 0.40812668, 9.838407516479492, 0.3890897333621979, -0.34959283471107483, -13.019716262817383, -10.851494789123535, 16.285335540771484, 
599, 2523298017, 0.55482477, 0.46884564, -0.5528692, 0.40827563, 9.838292121887207, 0.8498976826667786, -1.2467037439346313, -6.108178615570068, -11.856472969055176, 18.101661682128906, 
600, 2523314684, 0.553341, 0.46744508, -0.5552129, 0.4087146, 9.712189674377441, 1.7726820707321167, -1.4490294456481934, -3.1770687103271484, -11.745160102844238, 18.7523250579834, 
601, 2523331351, 0.55324876, 0.46476653, -0.55849475, 0.40742052, 9.962934494018555, 2.1816275119781494, -1.2353224754333496, -21.765867233276367, -11.970311164855957, 16.1573429107666, 
602, 2523348018, 0.55474997, 0.46091372, -0.5625373, 0.40418184, 10.119275093078613, 1.83535635471344, -1.1792415380477905, -40.96458435058594, -11.660236358642578, 11.26585578918457, 
603, 2523364685, 0.5570331, 0.456651, -0.5665719, 0.40022537, 9.839335441589355, 1.2327327728271484, -0.9715155959129333, -47.745113372802734, -9.729809761047363, 7.93054723739624, 
604, 2523381352, 0.55914277, 0.45229968, -0.5707316, 0.39629513, 9.68445873260498, 0.7584164142608643, -0.9373530745506287, -47.791099548339844, -10.55125617980957, 9.261204719543457, 
605, 2523398019, 0.56081825, 0.4481728, -0.5747154, 0.39284378, 9.647714614868164, 0.8277062177658081, -0.9810863733291626, -43.185367584228516, -10.693509101867676, 10.859460830688477, 
606, 2523414686, 0.5622557, 0.44411886, -0.578499, 0.38982815, 9.76405143737793, 0.7043546438217163, -0.9997435212135315, -39.933135986328125, -9.709632873535156, 12.290340423583984, 
607, 2523431353, 0.56269574, 0.440939, -0.5818539, 0.3878045, 9.91231632232666, 0.7958582639694214, -1.1909472942352295, -28.41849708557129, -11.327813148498535, 14.0204439163208, 
608, 2523448020, 0.5627488, 0.4381287, -0.5848719, 0.38637018, 9.951436042785645, 0.8897685408592224, -1.156580924987793, -22.546110153198242, -10.765421867370605, 14.838910102844238, 
609, 2523464687, 0.5631637, 0.43523198, -0.58750653, 0.38503993, 9.945735931396484, 1.0710159540176392, -0.7701351642608643, -22.543304443359375, -7.277393341064453, 13.483308792114258, 
610, 2523481354, 0.5640855, 0.43217766, -0.58996964, 0.3833613, 9.87488079071045, 1.3824915885925293, -0.7625585198402405, -25.638408660888672, -5.189518451690674, 10.929654121398926, 
611, 2523498021, 0.5655564, 0.42867574, -0.59273744, 0.38084853, 9.61467456817627, 1.530125617980957, -1.1373211145401, -33.20913314819336, -5.4407877922058105, 8.986323356628418, 
612, 2523514688, 0.5671423, 0.42462477, -0.59593713, 0.3780243, 9.539052963256836, 1.7158517837524414, -1.4776097536087036, -38.05973815917969, -6.125669956207275, 10.997776985168457, 
613, 2523531355, 0.5691647, 0.41923693, -0.600229, 0.3741884, 9.834424018859863, 1.8740450143814087, -1.3597086668014526, -51.56513595581055, -8.063857078552246, 14.6104736328125, 
614, 2523548022, 0.5719914, 0.41251427, -0.60530484, 0.36913973, 9.76736831665039, 1.67161226272583, -1.4082516431808472, -66.12307739257812, -7.8639326095581055, 15.584514617919922, 
615, 2523564689, 0.57554007, 0.40476972, -0.61083925, 0.3630298, 9.748198509216309, 1.4402406215667725, -1.4031059741973877, -77.75817108154297, -7.06860876083374, 15.150997161865234, 
616, 2523581356, 0.5794441, 0.39631882, -0.6166297, 0.3562918, 9.65964412689209, 1.2287266254425049, -1.464819312095642, -84.82049560546875, -6.563503742218018, 15.478255271911621, 
617, 2523598023, 0.5831785, 0.38774073, -0.62236345, 0.34960523, 9.79311466217041, 1.0274829864501953, -1.8588542938232422, -84.50823974609375, -6.592548847198486, 16.502422332763672, 
618, 2523614690, 0.5870711, 0.3789298, -0.6279527, 0.34268844, 9.526113510131836, 1.1129707098007202, -1.8500365018844604, -86.53656005859375, -5.376521587371826, 15.834171295166016, 
619, 2523631357, 0.5914893, 0.3697047, -0.6335564, 0.33476147, 9.792929649353027, 1.0489765405654907, -1.5534590482711792, -93.97594451904297, -4.8060808181762695, 12.362252235412598, 
620, 2523648024, 0.5967104, 0.36016998, -0.63870907, 0.32598338, 9.673691749572754, 1.1933741569519043, -1.3572615385055542, -99.92313385009766, -0.9152894616127014, 7.269583702087402, 
621, 2523664691, 0.6020772, 0.35076168, -0.6436824, 0.3164531, 9.644562721252441, 1.0866615772247314, -1.4816548824310303, -102.64613342285156, -1.6766694784164429, 2.8752284049987793, 
622, 2523681358, 0.6073035, 0.3417182, -0.64809626, 0.3072174, 9.600794792175293, 0.9191341400146484, -1.8271713256835938, -98.2955093383789, -0.056413888931274414, 1.459301233291626, 
623, 2523698025, 0.6125185, 0.33286107, -0.6517883, 0.2986585, 9.525240898132324, 0.6867125630378723, -2.430436611175537, -92.97391510009766, 4.11546516418457, 1.8046296834945679, 
624, 2523714692, 0.6166521, 0.32479426, -0.6554385, 0.29094568, 9.093304634094238, 1.0213576555252075, -2.7196943759918213, -83.27692413330078, -0.22306646406650543, 3.9610564708709717, 
625, 2523731359, 0.6203078, 0.3159299, -0.6601402, 0.282173, 9.615022659301758, 0.9569973349571228, -2.438852548599243, -92.47427368164062, -7.5882368087768555, 6.384525299072266, 
626, 2523748026, 0.6240085, 0.30605304, -0.6651613, 0.2729574, 10.069424629211426, 0.8588505387306213, -2.584554433822632, -99.52808380126953, -7.728148937225342, 9.715566635131836, 
627, 2523764693, 0.6281179, 0.2954557, -0.6698182, 0.2636618, 10.186659812927246, 1.0677134990692139, -2.4459075927734375, -103.17355346679688, -3.096282958984375, 11.154184341430664, 
628, 2523781360, 0.6329149, 0.28384024, -0.6742389, 0.2534867, 10.21762466430664, 1.164690375328064, -2.275630474090576, -112.58451080322266, 1.1640408039093018, 10.337091445922852, 
629, 2523798027, 0.63791263, 0.27150837, -0.67863804, 0.24248974, 9.901886940002441, 0.8484965562820435, -2.068567991256714, -119.87467193603516, 1.8458795547485352, 9.71471881866455, 
630, 2523814694, 0.6430364, 0.25915754, -0.68237627, 0.23174196, 9.419953346252441, 0.43617746233940125, -2.2592527866363525, -117.92816162109375, 5.837864875793457, 9.472447395324707, 
631, 2523831361, 0.64755774, 0.24769913, -0.68552935, 0.22217984, 9.449094772338867, 0.7219037413597107, -2.5200226306915283, -106.40607452392578, 6.301177501678467, 10.45859432220459, 
632, 2523848028, 0.65174073, 0.2363216, -0.68880093, 0.21198931, 9.591340065002441, 0.9285033941268921, -2.0582356452941895, -108.61669921875, 2.998239755630493, 8.017156600952148, 
633, 2523864695, 0.65608585, 0.22547871, -0.69130063, 0.20202525, 9.611526489257812, 1.0366286039352417, -1.786484956741333, -104.29661560058594, 6.820227146148682, 5.029894828796387, 
634, 2523881362, 0.66071886, 0.2155099, -0.69272745, 0.1927046, 9.662071228027344, 1.4268707036972046, -1.6245431900024414, -96.24471282958984, 12.817319869995117, 1.7339154481887817, 
635, 2523898029, 0.66563153, 0.20608488, -0.69356364, 0.18284771, 9.901700973510742, 1.9893372058868408, -1.2701245546340942, -95.9701919555664, 15.321816444396973, -4.514401435852051, 
636, 2523914696, 0.6716903, 0.19647785, -0.69361293, 0.17067488, 10.56893253326416, 1.8678162097930908, -1.3158273696899414, -108.47893524169922, 21.334686279296875, -16.77427864074707, 
637, 2523931363, 0.6782603, 0.18783346, -0.69250596, 0.15848449, 11.6665678024292, 2.350337505340576, -1.680808663368225, -103.46741485595703, 27.95937728881836, -23.580463409423828, 
638, 2523948030, 0.68602186, 0.1781362, -0.69035286, 0.14510162, 12.592070579528809, 2.276519775390625, -2.344886541366577, -114.4676513671875, 38.12043762207031, -26.74669075012207, 
639, 2523964697, 0.6941559, 0.1689013, -0.6872379, 0.13162069, 11.454042434692383, 2.2610321044921875, -2.3121652603149414, -112.26911163330078, 43.85024642944336, -30.925132751464844, 
640, 2523981364, 0.7019063, 0.16045117, -0.6841267, 0.11642065, 10.44678783416748, 3.006925106048584, -0.5206472277641296, -116.2204360961914, 39.32272720336914, -42.460914611816406, 
641, 2523998031, 0.7102171, 0.152403, -0.68017787, 0.09860599, 10.771903991699219, 3.7945504188537598, 0.5049149394035339, -126.533203125, 42.78732681274414, -58.30939483642578, 
642, 2524014698, 0.7189682, 0.14504984, -0.6751886, 0.0785213, 10.706413269042969, 4.199906349182129, -0.9684507846832275, -133.53709411621094, 47.05767059326172, -73.99604034423828, 
643, 2524031365, 0.72798496, 0.13801822, -0.6691204, 0.057155598, 10.864906311035156, 3.1826789379119873, -0.40240976214408875, -137.61680603027344, 52.165367126464844, -83.00104522705078, 
644, 2524048032, 0.7362076, 0.1316598, -0.66285, 0.035975058, 10.80392837524414, 0.7855710983276367, -0.8397985696792603, -132.5830078125, 49.42006301879883, -85.02385711669922, 
645, 2524064699, 0.7429906, 0.12591109, -0.65717536, 0.015230817, 9.826370239257812, -0.6133797764778137, -2.0622119903564453, -126.35702514648438, 40.08174133300781, -84.69717407226562, 
646, 2524081366, 0.7477318, 0.11811313, -0.65338385, -0.00603021, 9.465288162231445, -0.9023057818412781, -3.231239080429077, -137.5978546142578, 21.00572967529297, -76.24555969238281, 
