sep=,
DeviceTag:,Pelvis - 7,,,,,,,,,,,,,,,,,
FirmwareVersion:,3.0.0,,,,,,,,,,,,,,,,,
AppVersion:,2023.6.1,,,,,,,,,,,,,,,,,
StartTime:,2024-05-23 11:49:42.000 +0200,,,,,,,,,,,,,,,,,
 2024,,,,,,,,,,,,,,,,,,,

PacketCounter,SampleTimeFine,Quat_W,Quat_X,Quat_Y,Quat_Z,Acc_X,Acc_Y,Acc_Z,Gyr_X,Gyr_Y,Gyr_Z,
0, 2516929632, 0.23763247, -0.5181255, -0.1830716, -0.80097526, 0.0, 0.0, 0.0, 0.0, 0.0, 0.0, 
1, 2516946299, 0.23894586, -0.51734686, -0.18375866, -0.80093074, 9.16958236694336, 0.5865885019302368, 4.188965320587158, 8.000313758850098, -1.7934913635253906, 5.666792392730713, 
2, 2516962966, 0.24005511, -0.5153587, -0.18501155, -0.801592, 9.000870704650879, 0.5752352476119995, 4.028548717498779, 8.968321800231934, -2.0127360820770264, 4.69449520111084, 
3, 2516979633, 0.24084574, -0.51435244, -0.18671338, -0.80160666, 8.965753555297852, 0.6103009581565857, 4.079160690307617, 9.804975509643555, -6.2414469718933105, 3.572582721710205, 
4, 2516996300, 0.24163134, -0.5134799, -0.18831547, -0.8015546, 9.044708251953125, 0.5684462785720825, 4.214024066925049, 8.898578643798828, -5.698020935058594, 3.2383110523223877, 
5, 2517012967, 0.24241479, -0.51245767, -0.18914221, -0.8017777, 9.081282615661621, 0.6133627891540527, 4.10684061050415, 7.614382266998291, -2.983982801437378, 3.6602416038513184, 
6, 2517029634, 0.24361344, -0.51167405, -0.19009022, -0.80169094, 9.012395858764648, 0.6329749226570129, 4.126221656799316, 6.539390563964844, -2.4058525562286377, 4.067188739776611, 
7, 2517046301, 0.2448679, -0.51107824, -0.19108209, -0.8014527, 9.027430534362793, 0.6435596346855164, 4.115859508514404, 5.6559834480285645, -2.9199254512786865, 3.779161214828491, 
8, 2517062968, 0.24555717, -0.51067895, -0.19184054, -0.8013153, 9.009060859680176, 0.6283086538314819, 3.997040033340454, 6.106842517852783, -2.73315691947937, 3.102665424346924, 
9, 2517079635, 0.2461487, -0.5107591, -0.19272889, -0.80086935, 9.032953262329102, 0.634469747543335, 4.086681842803955, 6.082267761230469, -5.329850196838379, 2.8236920833587646, 
10, 2517096302, 0.24675755, -0.51079535, -0.1934903, -0.8004751, 9.088021278381348, 0.5972463488578796, 4.134677410125732, 4.917985439300537, -4.319019794464111, 2.6348047256469727, 
11, 2517112969, 0.24742335, -0.5106686, -0.19419295, -0.8001802, 9.020037651062012, 0.5623160600662231, 4.0705461502075195, 4.902878761291504, -2.7757890224456787, 2.241258382797241, 
12, 2517129636, 0.24785228, -0.5108148, -0.1948484, -0.7997948, 9.041473388671875, 0.5445180535316467, 4.098941326141357, 4.9700236320495605, -4.502495765686035, 1.7897709608078003, 
13, 2517146303, 0.24843627, -0.5108191, -0.19540504, -0.799475, 9.159562110900879, 0.5350939631462097, 4.023339748382568, 4.9877729415893555, -3.0266146659851074, 2.211214780807495, 
14, 2517162970, 0.24905072, -0.51087797, -0.19576164, -0.799159, 9.123174667358398, 0.5072615742683411, 4.05999755859375, 4.493063926696777, -2.4624948501586914, 3.0805740356445312, 
15, 2517179637, 0.24972384, -0.5109211, -0.19614632, -0.79882705, 9.071518898010254, 0.5039798617362976, 4.004568099975586, 4.886153697967529, -2.240675687789917, 3.0079233646392822, 
16, 2517196304, 0.25048956, -0.5110148, -0.19681092, -0.79836357, 9.030725479125977, 0.4912252426147461, 3.889758825302124, 6.351637363433838, -3.1839027404785156, 2.4242618083953857, 
17, 2517212971, 0.25117144, -0.51133513, -0.19755937, -0.7977591, 9.11368465423584, 0.524951159954071, 3.952482223510742, 7.168625354766846, -4.822367191314697, 2.447345495223999, 
18, 2517229638, 0.2517249, -0.5116302, -0.19808793, -0.7972644, 9.169204711914062, 0.605434000492096, 4.028253555297852, 6.488626003265381, -3.8649184703826904, 2.717616558074951, 
19, 2517246305, 0.25227374, -0.5118125, -0.19847652, -0.7968772, 9.143960952758789, 0.6221276521682739, 3.951666831970215, 6.111196994781494, -2.579608917236328, 3.1037793159484863, 
20, 2517262972, 0.2528691, -0.5120128, -0.19897191, -0.796436, 9.109051704406738, 0.5787752270698547, 3.8541979789733887, 6.2137451171875, -2.935715675354004, 2.907567262649536, 
21, 2517279639, 0.25326455, -0.512472, -0.1995882, -0.7958607, 9.11194133758545, 0.4820115864276886, 3.885303258895874, 6.263843059539795, -5.126990795135498, 2.1584208011627197, 
22, 2517296306, 0.25361788, -0.5128506, -0.20021617, -0.79534644, 9.196927070617676, 0.46859535574913025, 3.87033748626709, 7.485728740692139, -4.3971381187438965, 2.1062545776367188, 
23, 2517312973, 0.25421023, -0.5130614, -0.20085014, -0.7948614, 9.206931114196777, 0.5686489939689636, 3.913274049758911, 7.537415027618408, -3.0360918045043945, 2.549072265625, 
24, 2517329640, 0.25474888, -0.5132541, -0.20125371, -0.7944624, 9.238967895507812, 0.6113318800926208, 3.974520444869995, 5.981072902679443, -2.279402732849121, 2.9107367992401123, 
25, 2517346307, 0.2552139, -0.5130812, -0.20140707, -0.79438597, 9.167137145996094, 0.599646270275116, 3.893071174621582, 5.28556489944458, 1.2150025367736816, 2.696453809738159, 
26, 2517362974, 0.2557747, -0.5131078, -0.2018672, -0.79407156, 9.085121154785156, 0.6065059900283813, 3.8519020080566406, 5.969796180725098, -1.1873985528945923, 2.3183724880218506, 
27, 2517379641, 0.256067, -0.5134072, -0.20228888, -0.7936764, 9.141398429870605, 0.6579300165176392, 3.90679931640625, 5.772181510925293, -3.1666650772094727, 2.1217563152313232, 
28, 2517396308, 0.25622797, -0.51356465, -0.20247723, -0.79347444, 9.207720756530762, 0.6917719841003418, 3.999495029449463, 4.352148532867432, -1.473037600517273, 1.9060332775115967, 
29, 2517412975, 0.2564262, -0.5134755, -0.20250702, -0.79346037, 9.204557418823242, 0.6909311413764954, 4.087026596069336, 2.7484090328216553, 0.7514765858650208, 1.630990982055664, 
30, 2517429642, 0.25658152, -0.51314837, -0.20244205, -0.79363835, 9.131556510925293, 0.6633984446525574, 3.992830276489258, 2.1526002883911133, 2.7375686168670654, 1.0921704769134521, 
31, 2517446309, 0.2567067, -0.51293993, -0.2024615, -0.7937279, 9.11091136932373, 0.7572288513183594, 3.9345173835754395, 2.524266242980957, 1.5522384643554688, 1.0365651845932007, 
32, 2517462976, 0.25677145, -0.51301885, -0.20241256, -0.79366815, 9.23541259765625, 0.8558183908462524, 4.036840915679932, 1.762525200843811, -0.5022009611129761, 1.7521647214889526, 
33, 2517479643, 0.25681987, -0.512895, -0.2020575, -0.79382306, 9.21738052368164, 0.7542146444320679, 4.10171365737915, 0.1748770922422409, 1.8583741188049316, 2.2372758388519287, 
34, 2517496310, 0.25700942, -0.5128059, -0.20186111, -0.79386944, 9.050529479980469, 0.7470501065254211, 4.047011852264404, 1.3382445573806763, 1.1327282190322876, 2.6163439750671387, 
35, 2517512977, 0.25696373, -0.5129656, -0.20147674, -0.79387844, 8.9760103225708, 0.8698078393936157, 4.1587910652160645, -0.6799083352088928, -0.38515737652778625, 2.5485405921936035, 
36, 2517529644, 0.2566734, -0.51298517, -0.20078686, -0.79413444, 8.928616523742676, 0.8743332624435425, 4.191357135772705, -3.3279545307159424, 1.3575630187988281, 1.7462869882583618, 
37, 2517546311, 0.2563059, -0.5130163, -0.20020431, -0.7943801, 8.898609161376953, 0.8913741111755371, 4.0706257820129395, -3.3385703563690186, 0.8463332056999207, 0.9300099015235901, 
38, 2517562978, 0.2557321, -0.513164, -0.1997243, -0.7945906, 8.91280460357666, 0.8322296142578125, 4.235333442687988, -3.431685447692871, -0.4091436564922333, -0.15402835607528687, 
39, 2517579645, 0.25506973, -0.5131108, -0.19932702, -0.79493755, 8.91301155090332, 0.7161025404930115, 4.153195858001709, -3.3336596488952637, 0.8042260408401489, -1.4866893291473389, 
40, 2517596312, 0.25429022, -0.5132122, -0.19907257, -0.7951854, 8.911524772644043, 0.653353214263916, 4.080296516418457, -2.718768835067749, -0.8269636034965515, -2.0803208351135254, 
41, 2517612979, 0.25357303, -0.51347286, -0.19885102, -0.7953016, 8.980545043945312, 0.6233125925064087, 4.139056205749512, -2.3656914234161377, -2.1536693572998047, -1.408429503440857, 
42, 2517629646, 0.2530193, -0.51364297, -0.19852288, -0.79545015, 9.043022155761719, 0.6035830974578857, 4.200667858123779, -2.40960431098938, -1.1704107522964478, -0.4171028137207031, 
43, 2517646313, 0.25263396, -0.5136581, -0.19813506, -0.79565966, 9.093310356140137, 0.5903297662734985, 4.0823845863342285, -1.9859763383865356, 0.1913524568080902, 0.34541285037994385, 
44, 2517662980, 0.25239304, -0.51375127, -0.19788077, -0.79573905, 9.044978141784668, 0.5835942625999451, 4.0507378578186035, -0.7663449048995972, -0.7270933389663696, 0.9321615099906921, 
45, 2517679647, 0.2521963, -0.51388824, -0.19772303, -0.7957522, 9.008978843688965, 0.6650511622428894, 4.122438430786133, 0.18109461665153503, -1.283574104309082, 1.0789862871170044, 
46, 2517696314, 0.25193813, -0.5139328, -0.19754675, -0.795849, 8.910642623901367, 0.7028804421424866, 4.136605262756348, 0.16668745875358582, -0.5275256037712097, 0.6390881538391113, 
47, 2517712981, 0.25169817, -0.51412195, -0.19758815, -0.79579246, 8.889840126037598, 0.6915148496627808, 4.0772528648376465, 0.9416061639785767, -2.2613580226898193, 0.24642620980739594, 
48, 2517729648, 0.251476, -0.5144854, -0.19774787, -0.7955882, 8.978570938110352, 0.6840128302574158, 4.100716590881348, 1.8111639022827148, -3.9089395999908447, 0.5274551510810852, 
49, 2517746315, 0.25140157, -0.5146591, -0.19778089, -0.7954911, 9.041905403137207, 0.687839925289154, 4.182204723358154, 1.3304133415222168, -2.1065807342529297, 1.123795747756958, 
50, 2517762982, 0.2513021, -0.5148086, -0.1976733, -0.7954524, 9.015541076660156, 0.6949397325515747, 4.147983074188232, 0.8317084908485413, -1.5509707927703857, 1.5156699419021606, 
51, 2517779649, 0.2512647, -0.5150404, -0.19770959, -0.79530525, 9.03437328338623, 0.6719235181808472, 4.062343120574951, 1.5694438219070435, -2.5768232345581055, 1.524980068206787, 
52, 2517796316, 0.2512458, -0.5153382, -0.19789825, -0.79507136, 9.123085975646973, 0.6870598196983337, 4.084273338317871, 2.7770254611968994, -3.4585471153259277, 1.4480974674224854, 
53, 2517812983, 0.251301, -0.5155765, -0.1980564, -0.7948602, 9.160497665405273, 0.7424148321151733, 4.19570255279541, 2.9220826625823975, -2.892608642578125, 1.8259612321853638, 
54, 2517829650, 0.25135392, -0.5156546, -0.1979821, -0.79481107, 9.117945671081543, 0.7513675689697266, 4.188895225524902, 1.6202082633972168, -1.0595589876174927, 2.1122794151306152, 
55, 2517846317, 0.2513943, -0.5156404, -0.19784112, -0.7948427, 9.006072044372559, 0.6923078894615173, 4.098758220672607, 1.3933180570602417, -0.17424960434436798, 2.0783939361572266, 
56, 2517862984, 0.25147086, -0.51575124, -0.19795401, -0.7947185, 8.922097206115723, 0.6608603000640869, 4.089427471160889, 2.8104047775268555, -1.8098639249801636, 1.774307131767273, 
57, 2517879651, 0.25154406, -0.5160201, -0.19820859, -0.7944573, 8.969512939453125, 0.6658152341842651, 4.15632438659668, 3.5570926666259766, -3.4128992557525635, 1.7281274795532227, 
58, 2517896318, 0.2516774, -0.5162493, -0.1984242, -0.7942123, 9.041226387023926, 0.7199767827987671, 4.181668758392334, 3.418616533279419, -3.015242099761963, 2.028000831604004, 
59, 2517912985, 0.2518376, -0.51632726, -0.19844571, -0.7941053, 9.080838203430176, 0.7607694268226624, 4.178771495819092, 2.755593776702881, -1.3268085718154907, 2.516256093978882, 
60, 2517929652, 0.2520242, -0.51635534, -0.19839807, -0.7940398, 9.024210929870605, 0.7451385855674744, 4.115920066833496, 2.179717779159546, -0.7826281189918518, 2.6406054496765137, 
61, 2517946319, 0.25210837, -0.5164172, -0.19842002, -0.79396737, 9.022918701171875, 0.6669207215309143, 3.985488176345825, 2.256542921066284, -1.2519487142562866, 1.9459121227264404, 
62, 2517962986, 0.252243, -0.51657, -0.19872327, -0.79374933, 9.068075180053711, 0.648562490940094, 4.006586074829102, 3.965134382247925, -2.6740171909332275, 1.5746110677719116, 
63, 2517979653, 0.25246358, -0.5167098, -0.19900435, -0.7935179, 9.142077445983887, 0.6873993277549744, 4.129528999328613, 4.006390571594238, -2.495797634124756, 2.0431766510009766, 
64, 2517996320, 0.25267133, -0.51670706, -0.19904783, -0.79344255, 9.089483261108398, 0.6657852530479431, 4.09870719909668, 3.0102479457855225, -0.7526997923851013, 2.479194402694702, 
65, 2518012987, 0.2528851, -0.5167405, -0.19910613, -0.7933382, 9.001079559326172, 0.6620156168937683, 4.020388603210449, 3.157930850982666, -1.0688245296478271, 2.5852181911468506, 
66, 2518029654, 0.2530705, -0.51693606, -0.19933875, -0.79309297, 9.034804344177246, 0.6692614555358887, 4.022794246673584, 3.8316729068756104, -2.799724578857422, 2.2369751930236816, 
67, 2518046321, 0.2532704, -0.5171216, -0.19960044, -0.7928424, 9.086904525756836, 0.6972795128822327, 4.119150161743164, 3.992238759994507, -2.795414924621582, 2.173762798309326, 
68, 2518062988, 0.25349364, -0.5171805, -0.19976558, -0.7926912, 9.044046401977539, 0.6895862817764282, 4.139758110046387, 3.6184604167938232, -1.559474229812622, 2.2929515838623047, 
69, 2518079655, 0.25367254, -0.5172083, -0.19985466, -0.79259336, 8.983677864074707, 0.7014707326889038, 4.07395601272583, 3.0660324096679688, -1.1375178098678589, 2.2027437686920166, 
70, 2518096322, 0.25373256, -0.5174018, -0.20002355, -0.79240507, 8.978631019592285, 0.6900379061698914, 4.003270149230957, 2.911818027496338, -2.672409772872925, 1.658486247062683, 
71, 2518112989, 0.25374418, -0.51768416, -0.20035456, -0.7921332, 9.027018547058105, 0.6459749937057495, 4.091679096221924, 3.639648199081421, -3.7993240356445312, 1.1100480556488037, 
72, 2518129656, 0.2537719, -0.51778597, -0.20070595, -0.7919689, 9.003912925720215, 0.5905401706695557, 4.071782112121582, 4.0146565437316895, -2.4514429569244385, 0.7005138397216797, 
73, 2518146323, 0.25376347, -0.5178588, -0.2011222, -0.79181844, 8.953177452087402, 0.520480215549469, 4.068127155303955, 4.302505016326904, -2.4137022495269775, 0.20942865312099457, 
74, 2518162990, 0.25381958, -0.517989, -0.20172189, -0.7915627, 8.918329238891602, 0.47392603754997253, 4.05639123916626, 5.584254264831543, -3.3393073081970215, 0.15475834906101227, 
75, 2518179657, 0.25399306, -0.51823664, -0.20250307, -0.7911453, 8.96410846710205, 0.48384180665016174, 4.074921131134033, 6.882850170135498, -4.725402355194092, 0.5148921012878418, 
76, 2518196324, 0.2542772, -0.5185276, -0.2032815, -0.7906637, 9.087278366088867, 0.47948014736175537, 4.028548240661621, 7.3714776039123535, -5.036284446716309, 1.314367413520813, 
77, 2518212991, 0.25483438, -0.5186631, -0.20403798, -0.7902006, 9.160055160522461, 0.4767025411128998, 4.089365005493164, 8.392520904541016, -3.7129454612731934, 2.57098388671875, 
78, 2518229658, 0.25555333, -0.5187077, -0.20472907, -0.7897602, 9.152336120605469, 0.46106040477752686, 4.0383453369140625, 8.788646697998047, -2.7995965480804443, 3.5112390518188477, 
79, 2518246325, 0.25641865, -0.5187216, -0.20552282, -0.789264, 9.170701026916504, 0.42612186074256897, 3.932551145553589, 9.992632865905762, -2.8113598823547363, 3.9690349102020264, 
80, 2518262992, 0.2574104, -0.51886624, -0.20648588, -0.78859454, 9.213714599609375, 0.5367285013198853, 3.9927053451538086, 11.33151912689209, -4.25675630569458, 4.4961771965026855, 
81, 2518279659, 0.25853556, -0.51893395, -0.20725922, -0.7879788, 9.27155876159668, 0.7561815977096558, 4.124279975891113, 10.943018913269043, -3.1148197650909424, 5.7201385498046875, 
82, 2518296326, 0.2596307, -0.51886004, -0.2076358, -0.7875683, 9.219876289367676, 0.9344514012336731, 4.11325740814209, 8.574226379394531, -0.9698829054832458, 6.387784957885742, 
83, 2518312993, 0.26053795, -0.5188746, -0.20789526, -0.7871904, 9.079163551330566, 1.0034114122390747, 4.068188667297363, 7.036118030548096, -1.4060673713684082, 5.873198986053467, 
84, 2518329660, 0.26115322, -0.5190102, -0.2081655, -0.78682566, 8.98600959777832, 1.0084186792373657, 4.056490898132324, 5.873972415924072, -2.460714817047119, 4.462674140930176, 
85, 2518346327, 0.2614176, -0.5192143, -0.20834795, -0.78655493, 9.023201942443848, 0.9871037602424622, 4.135501861572266, 3.8301494121551514, -2.8600873947143555, 2.819216012954712, 
86, 2518362994, 0.2614491, -0.5192523, -0.2083373, -0.78652215, 9.067743301391602, 0.9953398108482361, 4.120299816131592, 2.0176658630371094, -1.114658236503601, 1.6574362516403198, 
87, 2518379661, 0.2612807, -0.51937234, -0.20814541, -0.7865497, 9.019465446472168, 0.9216139316558838, 4.121946334838867, 0.13929466903209686, -1.319700837135315, 1.2842592000961304, 
88, 2518396328, 0.2610327, -0.5195123, -0.20779106, -0.7866334, 9.03300952911377, 0.7930864691734314, 4.099444389343262, -1.348291039466858, -1.0816500186920166, 1.3011572360992432, 
89, 2518412995, 0.2607355, -0.51963854, -0.20740783, -0.78674954, 9.003433227539062, 0.6668509244918823, 4.049591064453125, -1.6146310567855835, -0.9247145652770996, 1.1068530082702637, 
90, 2518429662, 0.26046896, -0.5198524, -0.2071494, -0.78676486, 9.015768051147461, 0.6670292615890503, 4.096570014953613, -0.8952599167823792, -1.957316279411316, 1.109734296798706, 
91, 2518446329, 0.260184, -0.520023, -0.20681696, -0.78683364, 9.029022216796875, 0.7067235112190247, 4.123843193054199, -1.3989464044570923, -1.4478281736373901, 1.1015510559082031, 
92, 2518462996, 0.2598759, -0.52012414, -0.20645355, -0.78696424, 9.010583877563477, 0.7069354057312012, 4.02150297164917, -1.5813343524932861, -0.8477867245674133, 0.8938704133033752, 
93, 2518479663, 0.25954497, -0.52032983, -0.20627724, -0.7869836, 8.989266395568848, 0.6581196188926697, 3.981356143951416, -0.6900382041931152, -2.1910831928253174, 0.44895222783088684, 
94, 2518496330, 0.2592361, -0.5206461, -0.20626086, -0.7868804, 9.098648071289062, 0.5718215107917786, 4.055959224700928, 0.2504922151565552, -3.4913501739501953, 0.378632515668869, 
95, 2518512997, 0.25906575, -0.52076566, -0.20627382, -0.78685415, 9.126575469970703, 0.5437185764312744, 4.044388771057129, 1.1606779098510742, -2.0191197395324707, 0.6039218902587891, 
96, 2518529664, 0.2590572, -0.52080804, -0.20636892, -0.78680396, 9.111383438110352, 0.6143915057182312, 3.993441343307495, 2.3660950660705566, -1.6155083179473877, 1.113249659538269, 
97, 2518546331, 0.2591357, -0.5208402, -0.20643786, -0.7867387, 9.049099922180176, 0.6804928779602051, 4.073904037475586, 2.6409828662872314, -1.4482955932617188, 1.7131117582321167, 
98, 2518562998, 0.25925112, -0.52067226, -0.20636326, -0.78683126, 8.977851867675781, 0.7410417199134827, 4.013452529907227, 2.129606246948242, 0.4921480715274811, 1.865949273109436, 
99, 2518579665, 0.25934225, -0.5206746, -0.20643637, -0.78678066, 8.902597427368164, 0.7534545660018921, 3.905630588531494, 2.572558641433716, -1.2644476890563965, 1.6447385549545288, 
100, 2518596332, 0.25935844, -0.521047, -0.20674914, -0.7864465, 9.016261100769043, 0.7447449564933777, 3.992224931716919, 3.413250684738159, -4.817230224609375, 1.4501527547836304, 
101, 2518612999, 0.25935313, -0.52134943, -0.20698228, -0.7861865, 9.120285987854004, 0.7752270698547363, 4.042036056518555, 2.9743263721466064, -4.070518493652344, 1.4148584604263306, 
102, 2518629666, 0.25931156, -0.5214922, -0.20704307, -0.7860896, 9.16680908203125, 0.8130350708961487, 4.05355167388916, 2.004744291305542, -2.376685619354248, 1.3444105386734009, 
103, 2518646333, 0.25922284, -0.5215505, -0.20702963, -0.7860836, 9.163591384887695, 0.8076536655426025, 4.032079696655273, 1.43610417842865, -1.542723298072815, 1.078397274017334, 
104, 2518663000, 0.25910035, -0.52156055, -0.20699896, -0.7861254, 9.080178260803223, 0.814917802810669, 4.007144451141357, 1.2687698602676392, -1.1377289295196533, 0.8287436962127686, 
105, 2518679667, 0.2589067, -0.5217226, -0.20698898, -0.78608435, 9.016975402832031, 0.8106168508529663, 4.03524923324585, 0.9492194652557373, -2.4078948497772217, 0.7380556464195251, 
106, 2518696334, 0.2586812, -0.5219285, -0.20694605, -0.7860331, 9.05787181854248, 0.8046625256538391, 4.0462727546691895, 0.530938446521759, -2.689006805419922, 0.7525908350944519, 
107, 2518713001, 0.2584232, -0.5220681, -0.2068447, -0.786052, 9.074568748474121, 0.795954704284668, 4.064099311828613, 0.14756116271018982, -2.0349676609039307, 0.5912115573883057, 
108, 2518729668, 0.2581498, -0.5221888, -0.2067644, -0.7860829, 9.081514358520508, 0.7651435732841492, 4.042932510375977, 0.29372638463974, -1.9616187810897827, 0.4236467778682709, 
109, 2518746335, 0.25793365, -0.52231103, -0.20668246, -0.786094, 9.069181442260742, 0.7735898494720459, 4.057393550872803, 0.4168722927570343, -1.9792791604995728, 0.7449454069137573, 
110, 2518763002, 0.25772834, -0.52243304, -0.20657226, -0.7861093, 9.104058265686035, 0.7206442952156067, 4.0654072761535645, 0.32980191707611084, -1.911149263381958, 0.9193294644355774, 
111, 2518779669, 0.25752404, -0.52252686, -0.20648776, -0.78613627, 9.10368537902832, 0.7350406646728516, 4.014244079589844, 0.4940561354160309, -1.7789491415023804, 0.7724149823188782, 
112, 2518796336, 0.2573085, -0.5225749, -0.20646304, -0.7861813, 9.089516639709473, 0.7727112174034119, 4.047877788543701, 0.8711391091346741, -1.5998011827468872, 0.42143136262893677, 
113, 2518813003, 0.25711417, -0.5225437, -0.20641683, -0.7862776, 9.059877395629883, 0.794931173324585, 4.061585903167725, 0.7844657301902771, -0.940658450126648, 0.3728184998035431, 
114, 2518829670, 0.25692415, -0.52251667, -0.2063721, -0.78636944, 9.061385154724121, 0.7401688098907471, 4.024297714233398, 0.8800651431083679, -0.9890023469924927, 0.4460195302963257, 
115, 2518846337, 0.25679782, -0.52249205, -0.2063704, -0.7864277, 9.068367004394531, 0.7253073453903198, 4.032941818237305, 1.4139745235443115, -1.1210741996765137, 0.7168353796005249, 
116, 2518863004, 0.2567214, -0.5224819, -0.20637871, -0.78645706, 9.05768871307373, 0.7415778636932373, 4.0489501953125, 1.6137346029281616, -1.2675853967666626, 1.0078532695770264, 
117, 2518879671, 0.25666162, -0.5224782, -0.2063536, -0.78648573, 9.023134231567383, 0.7145075798034668, 4.065744400024414, 1.508286952972412, -1.2370805740356445, 1.2450268268585205, 
118, 2518896338, 0.2566297, -0.52249384, -0.20634975, -0.7864868, 9.014053344726562, 0.7254253625869751, 4.011553764343262, 1.7112356424331665, -1.4581501483917236, 1.39381742477417, 
119, 2518913005, 0.2566073, -0.5225853, -0.20641458, -0.78641623, 9.026042938232422, 0.7807016372680664, 4.04744291305542, 2.113368034362793, -2.2457025051116943, 1.4494740962982178, 
120, 2518929672, 0.25658244, -0.52262837, -0.20643663, -0.78638977, 9.063580513000488, 0.8035187125205994, 4.094522476196289, 1.8923879861831665, -1.771540880203247, 1.4515550136566162, 
121, 2518946339, 0.25650546, -0.52257556, -0.20637852, -0.7864654, 9.055474281311035, 0.8024600744247437, 4.090249061584473, 1.3066511154174805, -0.8359728455543518, 1.1566886901855469, 
122, 2518963006, 0.25638992, -0.5225872, -0.20639637, -0.7864906, 9.084966659545898, 0.795160174369812, 4.0467352867126465, 1.6463844776153564, -1.5672860145568848, 0.9109798073768616, 
123, 2518979673, 0.2562827, -0.5226495, -0.20649076, -0.7864593, 9.076509475708008, 0.8173089623451233, 4.083799839019775, 1.9866106510162354, -2.1877150535583496, 0.8250491619110107, 
124, 2518996340, 0.25618538, -0.52259934, -0.2064965, -0.78652304, 9.0343656539917, 0.8348197937011719, 4.048445701599121, 1.5480058193206787, -1.0878161191940308, 0.8576539754867554, 
125, 2519013007, 0.25601888, -0.5226001, -0.20641631, -0.78659755, 8.9890775680542, 0.7993729710578918, 4.0556416511535645, 0.8329122066497803, -1.2816530466079712, 0.9001456499099731, 
126, 2519029674, 0.25587866, -0.522642, -0.20638968, -0.7866225, 9.042450904846191, 0.7259438633918762, 4.055184364318848, 1.1870975494384766, -1.7583951950073242, 0.9946179986000061, 
127, 2519046341, 0.25583088, -0.52267075, -0.20645134, -0.7866027, 9.060951232910156, 0.70548015832901, 4.027132987976074, 1.9896330833435059, -1.8951798677444458, 1.204296350479126, 
128, 2519063008, 0.25579092, -0.5227281, -0.20650497, -0.78656346, 9.085493087768555, 0.7726702690124512, 4.024496555328369, 2.089266300201416, -2.0997612476348877, 1.4072002172470093, 
129, 2519079675, 0.25576958, -0.5227417, -0.20647258, -0.78656995, 9.113826751708984, 0.8274533152580261, 4.051314830780029, 1.6800780296325684, -1.5358463525772095, 1.6739436388015747, 
130, 2519096342, 0.25573567, -0.52281433, -0.20650135, -0.7865251, 9.121760368347168, 0.8017323017120361, 4.0296711921691895, 1.8589568138122559, -2.1837069988250732, 1.541321039199829, 
131, 2519113009, 0.25570193, -0.52267414, -0.20640974, -0.7866532, 9.050758361816406, 0.7506425380706787, 4.0629963874816895, 1.3556991815567017, -0.21045954525470734, 1.3859095573425293, 
132, 2519129676, 0.2556721, -0.5225499, -0.20637809, -0.7867538, 8.98837947845459, 0.7255010008811951, 3.9559385776519775, 1.7817540168762207, -0.5083736777305603, 1.2994667291641235, 
133, 2519146343, 0.25564596, -0.5225558, -0.20646076, -0.78673667, 9.04417896270752, 0.7110242247581482, 3.9392197132110596, 2.372023820877075, -1.8405029773712158, 1.3139889240264893, 
134, 2519163010, 0.25570756, -0.5225167, -0.20651093, -0.7867294, 9.20163345336914, 0.6723098754882812, 4.052428245544434, 2.6023848056793213, -1.384955644607544, 1.837576985359192, 
135, 2519179677, 0.25589496, -0.5222342, -0.20644544, -0.7868733, 9.287374496459961, 0.590938925743103, 4.08668851852417, 2.616144895553589, 0.8425681591033936, 2.3125834465026855, 
136, 2519196344, 0.25623542, -0.5217861, -0.20651425, -0.7870417, 9.171850204467773, 0.5920815467834473, 3.9740395545959473, 4.091090679168701, 1.792607069015503, 2.3531668186187744, 
137, 2519213011, 0.2566263, -0.52141255, -0.20673388, -0.78710407, 8.986897468566895, 0.692132294178009, 3.937528133392334, 5.128379821777344, 0.8101682066917419, 2.3842477798461914, 
138, 2519229678, 0.25699612, -0.52124447, -0.20701805, -0.7870203, 8.880615234375, 0.8432576656341553, 3.936089038848877, 5.373826503753662, -0.9684481620788574, 2.6423723697662354, 
139, 2519246345, 0.2572859, -0.5212569, -0.20731959, -0.78683805, 8.871700286865234, 0.9093995094299316, 3.926821231842041, 5.031474590301514, -2.450988531112671, 2.604978322982788, 
140, 2519263012, 0.25752652, -0.52145064, -0.20773207, -0.7865219, 8.92805004119873, 0.9077060222625732, 3.9578452110290527, 5.1691813468933105, -4.197122097015381, 2.3918166160583496, 
141, 2519279679, 0.257738, -0.5217432, -0.20817856, -0.78614056, 9.068524360656738, 0.8796051144599915, 3.974177122116089, 5.23948860168457, -5.072987079620361, 2.4148807525634766, 
142, 2519296346, 0.25798136, -0.52190465, -0.20850883, -0.7858659, 9.077553749084473, 0.8462714552879333, 4.107865333557129, 4.672602653503418, -3.7464284896850586, 2.5880484580993652, 
143, 2519313013, 0.25821337, -0.5219939, -0.20874254, -0.7856686, 9.08201789855957, 0.8339976072311401, 4.094593524932861, 4.325197696685791, -2.9273011684417725, 2.7220215797424316, 
144, 2519329680, 0.25844592, -0.5220066, -0.20895784, -0.7855262, 9.04253101348877, 0.8546400666236877, 4.052414417266846, 4.1460185050964355, -2.3089277744293213, 2.540024757385254, 
145, 2519346347, 0.25858966, -0.5221071, -0.2092277, -0.78534025, 9.014211654663086, 0.9042021632194519, 4.072998046875, 4.067617416381836, -3.1765832901000977, 2.095426321029663, 
146, 2519363014, 0.25867572, -0.5221902, -0.20947018, -0.78519213, 9.022401809692383, 0.8957540392875671, 4.155463218688965, 3.8180980682373047, -2.9888036251068115, 1.855947494506836, 
147, 2519379681, 0.25879246, -0.5222628, -0.20966189, -0.785054, 8.97547435760498, 0.8933073878288269, 4.167592525482178, 3.5440611839294434, -2.7916817665100098, 2.1402676105499268, 
148, 2519396348, 0.2588349, -0.522467, -0.20984343, -0.7848558, 8.99295711517334, 0.8453909754753113, 4.118639945983887, 3.2342700958251953, -3.819911003112793, 2.1487650871276855, 
149, 2519413015, 0.25886685, -0.522714, -0.21008049, -0.78461725, 9.100014686584473, 0.8190550804138184, 4.136086940765381, 3.4082565307617188, -4.333970069885254, 2.0078437328338623, 
150, 2519429682, 0.25894636, -0.5227756, -0.21027826, -0.7844971, 9.104618072509766, 0.8587205410003662, 4.15736722946167, 3.5620219707489014, -2.7855920791625977, 1.9487037658691406, 
151, 2519446349, 0.25902897, -0.52273476, -0.21036375, -0.7844742, 9.004915237426758, 0.8562538623809814, 4.146055698394775, 2.9966607093811035, -1.7007794380187988, 2.0527942180633545, 
152, 2519463016, 0.25904503, -0.52282524, -0.21043287, -0.78439003, 9.03125, 0.8662816882133484, 4.063014030456543, 2.513758420944214, -2.7185513973236084, 2.058671712875366, 
153, 2519479683, 0.25908646, -0.5228583, -0.21047755, -0.7843421, 9.138566970825195, 0.8327552080154419, 4.127116680145264, 2.5469274520874023, -2.213430881500244, 2.15651273727417, 
154, 2519496350, 0.2591619, -0.5226813, -0.21047482, -0.784436, 9.139227867126465, 0.7738128900527954, 4.154120445251465, 2.715855360031128, -0.4466150403022766, 2.01481032371521, 
155, 2519513017, 0.25927773, -0.522526, -0.21063957, -0.78445685, 9.094033241271973, 0.7769256234169006, 4.036427974700928, 3.6800966262817383, -1.094321846961975, 1.7377575635910034, 
156, 2519529684, 0.2593996, -0.5225051, -0.21088022, -0.784366, 9.124430656433105, 0.8253656625747681, 4.098394393920898, 4.128370761871338, -2.3526101112365723, 1.9334261417388916, 
157, 2519546351, 0.25953832, -0.52235174, -0.2109279, -0.7844094, 9.07938003540039, 0.8285834193229675, 4.178376197814941, 3.212947130203247, -0.801927387714386, 2.3048105239868164, 
158, 2519563018, 0.25969765, -0.5221667, -0.21087538, -0.78449386, 8.986711502075195, 0.8465027809143066, 4.1047492027282715, 2.80881667137146, -0.29113319516181946, 2.690255641937256, 
159, 2519579685, 0.25980753, -0.5220563, -0.21086259, -0.78453463, 8.950982093811035, 0.8691770434379578, 4.082918643951416, 2.694866180419922, -1.0166128873825073, 2.4452059268951416, 
160, 2519596352, 0.25984502, -0.52204233, -0.21095188, -0.7845073, 9.048076629638672, 0.9524911046028137, 4.075573921203613, 2.984813928604126, -2.0802438259124756, 1.9895942211151123, 
161, 2519613019, 0.25983855, -0.52199626, -0.2109296, -0.78454614, 9.107823371887207, 1.020275354385376, 4.126461029052734, 2.1830599308013916, -1.548831820487976, 2.003476619720459, 
162, 2519629686, 0.25973633, -0.52191114, -0.21072502, -0.7846917, 9.068902015686035, 0.9665965437889099, 4.154144763946533, 0.6232338547706604, -0.7937439680099487, 1.8543850183486938, 
163, 2519646353, 0.25951838, -0.5217771, -0.21043041, -0.78493184, 8.97333812713623, 0.8869938254356384, 4.061084270477295, -0.015937501564621925, -0.19552093744277954, 1.4526625871658325, 
164, 2519663020, 0.25924015, -0.5217496, -0.21025582, -0.7850889, 8.877995491027832, 0.8486753106117249, 4.021388053894043, 0.17475545406341553, -1.3961420059204102, 0.9434053897857666, 
165, 2519679687, 0.25887102, -0.52183515, -0.21013203, -0.78518695, 8.947807312011719, 0.839552104473114, 4.041639804840088, 0.1563655138015747, -2.44441819190979, 0.6059067249298096, 
166, 2519696354, 0.25848207, -0.52189875, -0.20994236, -0.78532344, 9.072892189025879, 0.8519265055656433, 4.084959506988525, -0.459152489900589, -2.1233632564544678, 0.5733786821365356, 
167, 2519713021, 0.25812033, -0.52182484, -0.20967834, -0.78556216, 9.18197250366211, 0.835090160369873, 4.0797953605651855, -0.6759639978408813, -0.8571353554725647, 0.6097230911254883, 
168, 2519729688, 0.25783005, -0.5216466, -0.20943967, -0.7858393, 9.167023658752441, 0.8009629845619202, 4.014360427856445, -0.18306036293506622, -0.10980803519487381, 0.6803244948387146, 
169, 2519746355, 0.25751486, -0.52156013, -0.20927097, -0.786045, 9.105117797851562, 0.7913417816162109, 4.000030994415283, 0.23312678933143616, -1.014506220817566, 0.6325055956840515, 
170, 2519763022, 0.25720888, -0.52148604, -0.20921782, -0.78620857, 9.094022750854492, 0.7741685509681702, 4.027396202087402, 0.866669774055481, -1.4335877895355225, 0.33746016025543213, 
171, 2519779689, 0.2569371, -0.52129513, -0.20908646, -0.78645885, 9.062292098999023, 0.7958078384399414, 4.034286975860596, 0.7899852395057678, -0.30200573801994324, 0.540901780128479, 
172, 2519796356, 0.25672817, -0.5210958, -0.20890044, -0.7867086, 9.005875587463379, 0.8027414083480835, 4.061037063598633, 0.5950726270675659, -0.0897020772099495, 1.0133150815963745, 
173, 2519813023, 0.2565022, -0.52101845, -0.20871791, -0.78688204, 8.985581398010254, 0.7754480838775635, 4.077614784240723, 0.6268451809883118, -1.0519968271255493, 1.2947860956192017, 
174, 2519829690, 0.25630915, -0.5209953, -0.20864762, -0.7869788, 9.021007537841797, 0.8262956738471985, 4.039074420928955, 1.2070496082305908, -1.7926775217056274, 1.2216871976852417, 
175, 2519846357, 0.25604358, -0.5210964, -0.20862822, -0.78700346, 9.017280578613281, 0.8680276870727539, 4.049863338470459, 1.133976697921753, -2.9238624572753906, 0.9686211347579956, 
176, 2519863024, 0.2557239, -0.52120394, -0.2086168, -0.78703916, 9.061104774475098, 0.9166752696037292, 4.070998191833496, 1.028349757194519, -3.013173818588257, 0.6710270643234253, 
177, 2519879691, 0.2553966, -0.52103204, -0.20840065, -0.7873166, 9.074400901794434, 0.9039435982704163, 4.094717979431152, 0.04495028778910637, -0.29580745100975037, 0.5506346225738525, 
178, 2519896358, 0.25500417, -0.5209056, -0.20817268, -0.78758764, 9.000091552734375, 0.8155609965324402, 4.0796051025390625, -0.41673779487609863, -0.6517854928970337, 0.2881172001361847, 
179, 2519913025, 0.25460228, -0.5208862, -0.20802812, -0.78776884, 8.99026870727539, 0.8061940670013428, 4.04949951171875, 0.14955256879329681, -1.7101536989212036, 0.3357056975364685, 
180, 2519929692, 0.2542125, -0.5210089, -0.20795724, -0.7878322, 8.942194938659668, 0.8127955198287964, 4.032666206359863, 0.4542156457901001, -3.0257885456085205, 0.5257262587547302, 
181, 2519946359, 0.2538106, -0.52122474, -0.20784366, -0.787849, 8.989700317382812, 0.8293152451515198, 4.090961933135986, 0.23979893326759338, -3.6367027759552, 0.8913347721099854, 
182, 2519963026, 0.25346908, -0.5212864, -0.20761375, -0.7879787, 9.010594367980957, 0.8221997618675232, 4.123259544372559, -0.0675727128982544, -2.1193294525146484, 1.2203171253204346, 
183, 2519979693, 0.25312728, -0.52130336, -0.2074246, -0.7881272, 9.007479667663574, 0.7724688053131104, 4.070680141448975, 0.2705341577529907, -1.88866126537323, 1.0045557022094727, 
184, 2519996360, 0.25281647, -0.5213817, -0.20738848, -0.7881848, 9.023459434509277, 0.7904176115989685, 4.089502811431885, 1.0865803956985474, -2.788742780685425, 0.8110133409500122, 
185, 2520013027, 0.2525107, -0.521561, -0.20744152, -0.7881501, 9.032161712646484, 0.8142973184585571, 4.102708339691162, 1.4738057851791382, -3.8275809288024902, 0.7950565814971924, 
186, 2520029694, 0.2521842, -0.5218076, -0.2074845, -0.78808016, 8.955141067504883, 0.8811286687850952, 4.125636100769043, 1.3362146615982056, -4.336633682250977, 0.8990955948829651, 
187, 2520046361, 0.25177327, -0.5221503, -0.2074881, -0.7879837, 8.844371795654297, 0.8956644535064697, 4.141253471374512, 0.679786741733551, -5.016561508178711, 0.7654739618301392, 
188, 2520063028, 0.25123248, -0.52268267, -0.20764384, -0.7877622, 8.713346481323242, 0.8318169713020325, 4.158419132232666, 1.0634140968322754, -6.94699239730835, 0.07703021913766861, 
189, 2520079695, 0.2504697, -0.52364147, -0.20816326, -0.787231, 8.70594596862793, 0.7936165928840637, 4.185269832611084, 1.838288426399231, -11.338845252990723, -1.3320852518081665, 
190, 2520096362, 0.2494532, -0.5250829, -0.20923696, -0.7863085, 8.765504837036133, 0.8217973113059998, 4.1444830894470215, 3.759334087371826, -16.69019317626953, -3.3033056259155273, 
191, 2520113029, 0.24817505, -0.5272857, -0.21111885, -0.7847342, 8.962102890014648, 0.9071259498596191, 4.216561794281006, 6.749180793762207, -24.94264793395996, -5.4599809646606445, 
192, 2520129696, 0.24659656, -0.53029686, -0.21354473, -0.78254336, 9.341188430786133, 0.8864537477493286, 4.290934085845947, 8.256628036499023, -32.9094352722168, -6.786356449127197, 
193, 2520146363, 0.24504304, -0.5337295, -0.21641842, -0.7799038, 9.836130142211914, 0.8852176666259766, 4.306012153625488, 10.762413024902344, -37.54684066772461, -6.9072771072387695, 
194, 2520163030, 0.24385568, -0.53656334, -0.21908352, -0.77758384, 9.879365921020508, 0.8985678553581238, 4.392621040344238, 11.627959251403809, -32.270172119140625, -5.595905780792236, 
195, 2520179697, 0.24317606, -0.5385533, -0.2212041, -0.77581877, 9.46916389465332, 1.0142894983291626, 4.32603645324707, 11.015626907348633, -24.068397521972656, -3.151695489883423, 
196, 2520196364, 0.2430342, -0.53968096, -0.22240803, -0.77473456, 8.745810508728027, 1.3437143564224243, 3.8381259441375732, 8.718071937561035, -14.613053321838379, 0.7201530337333679, 
197, 2520213031, 0.2431032, -0.5411467, -0.22274593, -0.7735926, 8.023929595947266, 1.8324310779571533, 3.172196865081787, 4.310583591461182, -14.891950607299805, 5.651512145996094, 
198, 2520229698, 0.24280213, -0.54386216, -0.22219378, -0.77193975, 7.87222957611084, 2.382004499435425, 2.767751455307007, -2.929375410079956, -22.514564514160156, 9.864982604980469, 
199, 2520246365, 0.24147266, -0.5478453, -0.22049816, -0.77002424, 8.182427406311035, 2.9287447929382324, 2.461479663848877, -14.791019439697266, -29.905601501464844, 11.046881675720215, 
200, 2520263032, 0.23881836, -0.5522724, -0.21766254, -0.7684948, 8.798216819763184, 3.0051822662353516, 2.301630973815918, -26.993873596191406, -30.892454147338867, 8.492557525634766, 
201, 2520279699, 0.23471932, -0.5571046, -0.21449718, -0.7671587, 9.671181678771973, 2.53875994682312, 2.09791898727417, -34.980979919433594, -33.8819580078125, 2.543656587600708, 
202, 2520296366, 0.22983305, -0.5613824, -0.21145819, -0.76636297, 10.570795059204102, 1.6195389032363892, 2.320189952850342, -37.286773681640625, -30.21292495727539, -3.746483087539673, 
203, 2520313033, 0.22508731, -0.56414145, -0.20851734, -0.7665514, 10.790299415588379, 0.7091158628463745, 2.4401750564575195, -35.37013244628906, -18.328828811645508, -7.177097320556641, 
204, 2520329700, 0.22127803, -0.56546074, -0.20582446, -0.7674154, 10.238826751708984, -0.030754869803786278, 2.50502872467041, -29.001615524291992, -7.109756946563721, -6.2980875968933105, 
205, 2520346367, 0.21882123, -0.56602794, -0.20365348, -0.76828057, 9.642797470092773, -0.33954110741615295, 2.4598464965820312, -20.012096405029297, -2.0000152587890625, -2.3672122955322266, 
206, 2520363034, 0.2177535, -0.5664118, -0.20181249, -0.76878655, 9.187981605529785, -0.14357471466064453, 2.486860752105713, -12.084745407104492, -0.9567757844924927, 3.8987228870391846, 
207, 2520379701, 0.21787398, -0.5670621, -0.1999734, -0.7687539, 8.875829696655273, 0.355947881937027, 2.5088913440704346, -7.159368515014648, -2.8059113025665283, 11.276568412780762, 
208, 2520396368, 0.21863289, -0.5684649, -0.19794792, -0.768026, 8.72127914428711, 0.7445683479309082, 2.553318977355957, -5.810876846313477, -8.329171180725098, 17.433378219604492, 
209, 2520413035, 0.21964529, -0.5706291, -0.19573024, -0.76669973, 8.820844650268555, 0.941339910030365, 2.6574795246124268, -6.122986793518066, -14.05456829071045, 21.46684455871582, 
210, 2520429702, 0.22057243, -0.5730221, -0.19327453, -0.7652702, 9.179542541503906, 1.0025739669799805, 2.697441339492798, -7.95418643951416, -15.429862022399902, 22.409120559692383, 
211, 2520446369, 0.22142921, -0.5749666, -0.19097963, -0.7641397, 9.556805610656738, 0.9032174348831177, 2.6814510822296143, -7.081721305847168, -12.235494613647461, 20.373323440551758, 
212, 2520463036, 0.22205772, -0.576492, -0.18908113, -0.7632796, 9.742948532104492, 0.8780128955841064, 2.715304136276245, -5.5862531661987305, -9.866844177246094, 16.66484260559082, 
213, 2520479703, 0.22228906, -0.5778617, -0.18757243, -0.76254845, 9.886000633239746, 0.9607942700386047, 2.822788715362549, -4.920550346374512, -9.644113540649414, 12.681405067443848, 
214, 2520496370, 0.22207314, -0.5792298, -0.18613286, -0.76192576, 9.983105659484863, 0.962286114692688, 2.910921096801758, -6.700440883636475, -9.894551277160645, 9.849902153015137, 
215, 2520513037, 0.2213961, -0.5805378, -0.18467674, -0.7614817, 10.043476104736328, 0.7162683010101318, 2.972317695617676, -8.631512641906738, -9.433178901672363, 7.203187465667725, 
216, 2520529704, 0.22053912, -0.58156765, -0.18378381, -0.76116043, 10.052987098693848, 0.48974528908729553, 3.0419018268585205, -6.066780090332031, -8.576608657836914, 3.4974608421325684, 
217, 2520546371, 0.21969205, -0.5820529, -0.18337764, -0.7611324, 9.872077941894531, 0.4619249403476715, 3.003967523574829, -3.1287708282470703, -5.2870635986328125, 0.43973806500434875, 
218, 2520563038, 0.21895342, -0.581944, -0.18334007, -0.7614376, 9.42518138885498, 0.5969105958938599, 2.875150203704834, -0.1963469535112381, -1.2660998106002808, -1.6957143545150757, 
219, 2520579705, 0.21820243, -0.58185494, -0.18374063, -0.7616247, 9.17646312713623, 0.7317295670509338, 3.0256268978118896, 1.9346171617507935, -2.5248682498931885, -3.364222288131714, 
220, 2520596372, 0.2174532, -0.5816271, -0.18445566, -0.76184016, 8.862030982971191, 0.7944527864456177, 2.9694817066192627, 3.900974750518799, -2.160111665725708, -4.777409553527832, 
221, 2520613039, 0.21664745, -0.58152133, -0.18558507, -0.76187605, 8.452112197875977, 0.5527794361114502, 2.910433053970337, 5.950202941894531, -4.215569972991943, -6.2733073234558105, 
222, 2520629706, 0.21576148, -0.5819666, -0.18726698, -0.76137584, 8.490663528442383, 0.19908201694488525, 2.9878993034362793, 8.385138511657715, -10.180492401123047, -7.398068428039551, 
223, 2520646373, 0.21501397, -0.58248335, -0.18919677, -0.7607148, 8.890667915344238, -0.2794730067253113, 3.225503921508789, 10.3094482421875, -11.399711608886719, -7.3614420890808105, 
224, 2520663040, 0.21465899, -0.5827392, -0.19150649, -0.7600407, 9.396015167236328, -0.5272790789604187, 3.4410457611083984, 14.253399848937988, -10.157867431640625, -7.198880195617676, 
225, 2520679707, 0.2147311, -0.5828124, -0.1943377, -0.75924516, 9.912044525146484, -0.37444230914115906, 3.5435128211975098, 19.26552963256836, -9.913426399230957, -7.135250091552734, 
226, 2520696374, 0.21524312, -0.5825091, -0.19728333, -0.75857294, 10.106759071350098, -0.06769870221614838, 3.513378620147705, 21.941261291503906, -7.057670593261719, -6.050577640533447, 
227, 2520713041, 0.21600749, -0.5818801, -0.20004307, -0.75811553, 10.062461853027344, 0.07204607129096985, 3.4345123767852783, 22.29718017578125, -3.8925483226776123, -4.749371528625488, 
228, 2520729708, 0.2170195, -0.5811279, -0.20255367, -0.75773686, 10.066641807556152, 0.26251986622810364, 3.248426675796509, 21.943880081176758, -2.2452518939971924, -2.8025851249694824, 
229, 2520746375, 0.21833561, -0.580401, -0.20453247, -0.7573842, 9.988069534301758, 0.47928857803344727, 2.9613263607025146, 20.48882293701172, -1.056864857673645, 0.9331361651420593, 
230, 2520763042, 0.2198312, -0.5800926, -0.20606315, -0.7567727, 9.978730201721191, 0.6017285585403442, 2.882002115249634, 18.463207244873047, -3.3510286808013916, 4.590134143829346, 
231, 2520779709, 0.221264, -0.5802577, -0.20718588, -0.75592154, 10.266021728515625, 0.5291937589645386, 2.9492955207824707, 15.791085243225098, -6.235981464385986, 6.941504001617432, 
232, 2520796376, 0.22270271, -0.5802604, -0.20785466, -0.7553132, 10.328448295593262, 0.33832940459251404, 3.0070035457611084, 13.490022659301758, -3.717545747756958, 8.208512306213379, 
233, 2520813043, 0.22424385, -0.57997984, -0.20841858, -0.7549171, 10.28010082244873, 0.23489463329315186, 3.1481354236602783, 13.651175498962402, -1.0880666971206665, 8.457903861999512, 
234, 2520829710, 0.22594799, -0.5793991, -0.20907383, -0.7546738, 10.392093658447266, 0.34531861543655396, 3.4106154441833496, 14.756067276000977, 1.146246314048767, 8.188887596130371, 
235, 2520846377, 0.22776255, -0.57801753, -0.20944366, -0.7550851, 10.051726341247559, 0.530310869216919, 3.399068832397461, 14.094171524047852, 8.49385929107666, 7.74334192276001, 
236, 2520863044, 0.22931714, -0.5763035, -0.20950407, -0.7559076, 9.574219703674316, 0.6268937587738037, 3.3039259910583496, 11.439935684204102, 11.94498062133789, 6.521524429321289, 
237, 2520879711, 0.23055652, -0.57464445, -0.20966887, -0.7567473, 9.486616134643555, 0.6424068808555603, 3.4016382694244385, 10.630987167358398, 11.087150573730469, 4.537683963775635, 
238, 2520896378, 0.23162799, -0.5723811, -0.20967862, -0.75813156, 9.328849792480469, 0.6232386231422424, 3.3059844970703125, 9.28713321685791, 16.36050033569336, 2.5447213649749756, 
239, 2520913045, 0.23224023, -0.57047474, -0.20978115, -0.75935173, 9.132718086242676, 0.46814367175102234, 3.176814556121826, 7.791766166687012, 13.035791397094727, 0.6219472885131836, 
240, 2520929712, 0.23285092, -0.5685818, -0.21009044, -0.7604981, 9.303088188171387, 0.5063036680221558, 3.2457754611968994, 8.842867851257324, 12.325721740722656, -0.08361911028623581, 
241, 2520946379, 0.23357645, -0.5669262, -0.20984054, -0.7615799, 9.09759521484375, 0.4009336531162262, 2.975719690322876, 6.119927883148193, 11.885184288024902, 3.1655781269073486, 
242, 2520963046, 0.2342312, -0.5660338, -0.20915404, -0.76223105, 9.167624473571777, 0.16488458216190338, 2.8856935501098633, 3.082822561264038, 6.813544273376465, 6.326326847076416, 
243, 2520979713, 0.23490272, -0.5657314, -0.20812012, -0.7625319, 9.126919746398926, 0.0069952234625816345, 2.8490145206451416, 0.7852471470832825, 2.9360997676849365, 9.134234428405762, 
244, 2520996380, 0.23573379, -0.5660946, -0.20735897, -0.7622131, 9.303617477416992, -0.07155915349721909, 2.825763463973999, 2.566906213760376, -3.1801578998565674, 10.813009262084961, 
245, 2521013047, 0.2367718, -0.56611854, -0.20689842, -0.7619989, 9.520245552062988, 0.10120061784982681, 2.782209634780884, 5.3161163330078125, -1.1864575147628784, 10.035847663879395, 
246, 2521029714, 0.23784615, -0.56598085, -0.20691638, -0.7617616, 9.624788284301758, 0.3086235821247101, 2.8385162353515625, 8.262348175048828, -1.146194577217102, 8.153122901916504, 
247, 2521046381, 0.23873611, -0.56575143, -0.20706291, -0.7616138, 9.622601509094238, 0.5441939234733582, 2.8229293823242188, 8.351471900939941, -0.7739328742027283, 6.433772087097168, 
248, 2521063048, 0.23927367, -0.5655063, -0.20702212, -0.76163834, 9.476040840148926, 0.5648332238197327, 2.800143003463745, 5.548505783081055, -0.21507628262043, 4.946363925933838, 
249, 2521079715, 0.2394134, -0.5652886, -0.20687759, -0.7617951, 9.372467994689941, 0.42062047123908997, 2.863569498062134, 3.3638956546783447, -0.22168433666229248, 3.1335349082946777, 
250, 2521096382, 0.23939888, -0.5650503, -0.20684241, -0.76198584, 9.382896423339844, 0.2725007236003876, 2.9817280769348145, 3.3602712154388428, -0.3704685568809509, 1.8217674493789673, 
251, 2521113049, 0.23942496, -0.5647348, -0.20688383, -0.7622003, 9.350229263305664, 0.2840062379837036, 3.0282886028289795, 3.894923210144043, 0.05513133481144905, 1.5442278385162354, 
252, 2521129716, 0.23931542, -0.5645917, -0.20680393, -0.76236254, 9.279781341552734, 0.2813311219215393, 2.878993511199951, 2.540203332901001, -1.0407911539077759, 1.6307605504989624, 
253, 2521146383, 0.23900366, -0.5648691, -0.20672558, -0.76227605, 9.170442581176758, 0.33807727694511414, 2.7011234760284424, 1.5164512395858765, -4.489041805267334, 1.5877442359924316, 
254, 2521163050, 0.23865213, -0.5655203, -0.20683298, -0.7618741, 9.200308799743652, 0.31742212176322937, 2.6506431102752686, 2.1869661808013916, -8.021316528320312, 1.7026429176330566, 
255, 2521179717, 0.23831849, -0.56630707, -0.20700963, -0.76134604, 9.466567993164062, 0.19801244139671326, 2.533815860748291, 2.3981690406799316, -9.304373741149902, 1.8587783575057983, 
256, 2521196384, 0.23804812, -0.5671984, -0.20721018, -0.7607122, 9.650646209716797, 0.10566022992134094, 2.5105714797973633, 2.793898105621338, -10.189855575561523, 2.413395881652832, 
257, 2521213051, 0.23794782, -0.56805044, -0.20739266, -0.7600578, 9.699130058288574, 0.18395759165287018, 2.635335683822632, 3.5525147914886475, -9.765345573425293, 3.357038974761963, 
258, 2521229718, 0.2380029, -0.5687701, -0.20758592, -0.7594496, 9.77660083770752, 0.28942573070526123, 2.9411165714263916, 4.179814338684082, -8.68126106262207, 3.787376642227173, 
259, 2521246385, 0.23785272, -0.5691899, -0.20749682, -0.7592062, 9.666768074035645, 0.4909798502922058, 3.1607673168182373, 2.088043689727783, -5.50633430480957, 2.845360279083252, 
260, 2521263052, 0.23726709, -0.56948906, -0.20740137, -0.75919133, 9.294929504394531, 0.746123194694519, 3.441330909729004, 0.06128479167819023, -4.60539436340332, 6.083017215132713E-4, 
261, 2521279719, 0.23625816, -0.5694215, -0.20724626, -0.75959885, 8.825478553771973, 0.8102888464927673, 3.463787317276001, -1.9188460111618042, -1.5635467767715454, -3.1801438331604004, 
262, 2521296386, 0.23483391, -0.56949174, -0.20687109, -0.76009005, 8.466991424560547, 1.034238338470459, 3.0714831352233887, -4.973430633544922, -2.212137460708618, -4.396517276763916, 
263, 2521313053, 0.23305412, -0.5708897, -0.20646526, -0.7596993, 8.94364070892334, 1.3351683616638184, 2.8838510513305664, -7.398867607116699, -13.072572708129883, -2.8003602027893066, 
264, 2521329720, 0.2312578, -0.5728397, -0.20570175, -0.7589871, 9.872624397277832, 1.3217229843139648, 2.7641916275024414, -9.751694679260254, -16.67006492614746, -0.15901023149490356, 
265, 2521346387, 0.2294477, -0.5742686, -0.20407099, -0.7588968, 10.307493209838867, 0.8000961542129517, 2.6627798080444336, -14.430436134338379, -10.136526107788086, 1.4648945331573486, 
266, 2521363054, 0.22747204, -0.5756423, -0.20232725, -0.75891775, 10.413850784301758, 0.2002195119857788, 2.720362663269043, -15.88918399810791, -9.456789016723633, 0.7516567707061768, 
267, 2521379721, 0.22560278, -0.57646513, -0.20112042, -0.75917196, 10.464820861816406, -0.19317938387393951, 2.8428752422332764, -12.08067798614502, -6.337039947509766, -1.9591869115829468, 
268, 2521396388, 0.2240189, -0.57650065, -0.20061046, -0.75974864, 10.154337882995605, -0.06556327641010284, 2.9119067192077637, -6.368093013763428, -1.6165393590927124, -4.808778762817383, 
269, 2521413055, 0.22271994, -0.576316, -0.20053382, -0.7602909, 9.890583038330078, 0.3152959942817688, 2.948975086212158, -2.716047525405884, -0.8780801892280579, -5.351850986480713, 
270, 2521429722, 0.22162426, -0.5760759, -0.20021033, -0.76087797, 9.74983024597168, 0.7082580924034119, 2.958834648132324, -2.970407485961914, 0.26105108857154846, -3.4073221683502197, 
271, 2521446389, 0.22076419, -0.575825, -0.19938481, -0.76153433, 9.624347686767578, 0.7601136565208435, 2.9332776069641113, -4.933722972869873, 1.671209454536438, -0.3538650870323181, 
272, 2521463056, 0.22009255, -0.57549495, -0.19832541, -0.7622545, 9.358248710632324, 0.609730064868927, 2.9134633541107178, -5.244187831878662, 2.957735300064087, 1.401033878326416, 
273, 2521479723, 0.21955138, -0.57548016, -0.19741859, -0.7626571, 9.20761775970459, 0.5101480484008789, 2.9181067943573, -4.147945880889893, -0.0164241474121809, 2.344651222229004, 
274, 2521496390, 0.21928395, -0.57549804, -0.196919, -0.7628498, 9.187670707702637, 0.5463774800300598, 2.9619479179382324, -0.7331763505935669, -1.269211769104004, 2.5183303356170654, 
275, 2521513057, 0.2191995, -0.5752027, -0.19694404, -0.7630902, 9.225537300109863, 0.6162711381912231, 3.028268337249756, 3.3605077266693115, 0.02659238502383232, 0.9686275720596313, 
276, 2521529724, 0.21909799, -0.5746235, -0.19741406, -0.7634341, 9.478137969970703, 0.5730223655700684, 3.0959360599517822, 5.655643463134766, 1.2118523120880127, -1.4897948503494263, 
277, 2521546391, 0.21915254, -0.5732484, -0.19792591, -0.76431924, 9.539430618286133, 0.5689212679862976, 3.1337366104125977, 7.120691299438477, 7.682980060577393, -2.677635908126831, 
278, 2521563058, 0.21924895, -0.5718662, -0.19807132, -0.765289, 9.170934677124023, 0.7088249325752258, 2.970062732696533, 5.168669700622559, 8.655416488647461, -1.1673310995101929, 
279, 2521579725, 0.21924871, -0.57128364, -0.19799031, -0.7657446, 9.119455337524414, 0.8273906111717224, 2.9055685997009277, 3.1242496967315674, 2.636904239654541, 1.0980165004730225, 
280, 2521596392, 0.2191932, -0.5713476, -0.19787496, -0.7657428, 9.170036315917969, 0.9506866335868835, 2.8722124099731445, 2.424299716949463, -2.584526300430298, 2.5396335124969482, 
281, 2521613059, 0.2188877, -0.57186574, -0.19777022, -0.76547045, 9.3840913772583, 0.9218416810035706, 2.9304721355438232, 1.328012228012085, -6.3833136558532715, 2.2641055583953857, 
282, 2521629726, 0.21849273, -0.5721923, -0.19775926, -0.76534194, 9.735955238342285, 0.7413370609283447, 3.0421335697174072, 1.3120746612548828, -5.08383321762085, 0.8833053112030029, 
283, 2521646393, 0.21804543, -0.57196397, -0.19764045, -0.76567096, 9.961631774902344, 0.7552381753921509, 2.955458879470825, 0.8987368941307068, -0.26376599073410034, -0.3598904609680176, 
284, 2521663060, 0.21762213, -0.5711593, -0.19720286, -0.7665043, 9.920743942260742, 0.9339021444320679, 2.9585726261138916, -0.5795706510543823, 5.266829490661621, -0.534594714641571, 
285, 2521679727, 0.21695505, -0.5700059, -0.19625244, -0.76779485, 9.641901016235352, 0.9908257126808167, 2.881747007369995, -4.299938201904297, 9.346467971801758, -0.9338905811309814, 
286, 2521696394, 0.21614501, -0.5689235, -0.19542067, -0.7690373, 9.38547134399414, 0.8326972723007202, 2.7158665657043457, -4.247137546539307, 8.422489166259766, -1.9589110612869263, 
287, 2521713061, 0.21535456, -0.56831264, -0.19511686, -0.7697875, 9.334606170654297, 0.7012652158737183, 2.7283287048339844, -1.5540376901626587, 3.2503089904785156, -2.5856659412384033, 
288, 2521729728, 0.2147532, -0.56804216, -0.19537528, -0.77008945, 9.33178424835205, 0.6495791077613831, 2.937837839126587, 2.281912326812744, -0.8656003475189209, -2.6489741802215576, 
289, 2521746395, 0.21441905, -0.5678433, -0.19617146, -0.77012694, 9.504941940307617, 0.5684452056884766, 3.103908061981201, 6.416494846343994, -2.7073588371276855, -2.848881721496582, 
290, 2521763062, 0.2143713, -0.5672896, -0.19695416, -0.77034825, 9.596128463745117, 0.7085891366004944, 3.2612030506134033, 7.696610927581787, 0.29652470350265503, -2.044956684112549, 
291, 2521779729, 0.21469915, -0.5659684, -0.19717275, -0.7711726, 9.449461936950684, 0.9181099534034729, 3.2687156200408936, 6.379786968231201, 8.044715881347656, 0.18882329761981964, 
292, 2521796396, 0.21515025, -0.56436884, -0.19683765, -0.77230394, 9.270418167114258, 1.0003330707550049, 3.2689685821533203, 4.153005599975586, 11.711701393127441, 2.2564098834991455, 
293, 2521813063, 0.21551542, -0.5629929, -0.19630702, -0.77334064, 9.25118637084961, 0.9574864506721497, 3.1977550983428955, 2.447204828262329, 10.316439628601074, 2.9793856143951416, 
294, 2521829730, 0.2157294, -0.5619476, -0.19610849, -0.77409136, 9.127774238586426, 0.8957307934761047, 3.0878608226776123, 3.5160229206085205, 6.752355098724365, 1.7728347778320312, 
295, 2521846397, 0.21581382, -0.5613819, -0.19660968, -0.7743509, 9.093320846557617, 0.9049010872840881, 3.1020936965942383, 6.547580718994141, 1.0835199356079102, -0.2791464328765869, 
296, 2521863064, 0.21579318, -0.5610078, -0.19755387, -0.77438754, 9.22266674041748, 0.9481210112571716, 3.262660264968872, 8.501208305358887, -1.5929564237594604, -1.9543261528015137, 
297, 2521879731, 0.21566738, -0.5605115, -0.19848484, -0.774544, 9.354376792907715, 0.9725307822227478, 3.3448092937469482, 8.181536674499512, -0.5931006073951721, -2.75199556350708, 
298, 2521896398, 0.21553569, -0.5598372, -0.19910559, -0.77490896, 9.437178611755371, 1.0290817022323608, 3.463803768157959, 6.513125419616699, 1.6123390197753906, -2.1200919151306152, 
299, 2521913065, 0.21547116, -0.5590564, -0.19930218, -0.77543986, 9.398194313049316, 1.0475420951843262, 3.4355108737945557, 4.423165798187256, 3.5330734252929688, -0.515468418598175, 
300, 2521929732, 0.21543476, -0.55831194, -0.19907227, -0.7760451, 9.33533000946045, 1.003104329109192, 3.375143527984619, 2.1698246002197266, 4.297023296356201, 1.248599648475647, 
301, 2521946399, 0.21541628, -0.5577405, -0.19874083, -0.776546, 9.246170043945312, 0.9624565243721008, 3.296403169631958, 1.5695589780807495, 3.1433568000793457, 2.1327054500579834, 
302, 2521963066, 0.2152988, -0.5575539, -0.19864629, -0.7767366, 9.275102615356445, 0.9401792883872986, 3.3455071449279785, 2.129164457321167, -0.6005921363830566, 1.6270017623901367, 
303, 2521979733, 0.21508794, -0.55735874, -0.1987417, -0.77691066, 9.459905624389648, 0.9171485900878906, 3.4714598655700684, 2.7874557971954346, -1.0308918952941895, 0.40784379839897156, 
304, 2521996400, 0.21487637, -0.5567486, -0.19870518, -0.77741605, 9.420698165893555, 0.8835410475730896, 3.534107208251953, 2.4067230224609375, 2.6583163738250732, -0.08548879623413086, 
305, 2522013067, 0.21463698, -0.5561539, -0.19845225, -0.7779721, 9.340804100036621, 0.8976556062698364, 3.471205234527588, 1.0109845399856567, 3.043121337890625, 0.5313610434532166, 
306, 2522029734, 0.21433721, -0.5556332, -0.19793725, -0.7785577, 9.318653106689453, 0.9537554979324341, 3.3903331756591797, -0.650120735168457, 3.069336175918579, 1.3135727643966675, 
307, 2522046401, 0.21393564, -0.555295, -0.19734499, -0.7790597, 9.24949836730957, 0.9827430248260498, 3.3776626586914062, -1.7187914848327637, 1.738660454750061, 1.4041074514389038, 
308, 2522063068, 0.21344928, -0.5550492, -0.19679794, -0.7795068, 9.273987770080566, 0.9817039966583252, 3.425692081451416, -2.1067023277282715, 0.8325279951095581, 0.9047815203666687, 
309, 2522079735, 0.21290249, -0.5547533, -0.19625261, -0.7800041, 9.28501033782959, 0.9624485969543457, 3.3693809509277344, -2.088773250579834, 1.2229807376861572, 0.5199889540672302, 
310, 2522096402, 0.21229361, -0.5545112, -0.19580309, -0.7804552, 9.308167457580566, 0.8833693265914917, 3.2904863357543945, -1.8769561052322388, 0.5307078957557678, -0.04906752333045006, 
311, 2522113069, 0.2116751, -0.55430007, -0.19547506, -0.7808552, 9.311348915100098, 0.8516249656677246, 3.3114867210388184, -1.3465107679367065, -0.026227403432130814, -0.4839903712272644, 
312, 2522129736, 0.21100266, -0.5542127, -0.19525875, -0.7811532, 9.289817810058594, 0.8518466353416443, 3.3224635124206543, -0.986818790435791, -1.3104864358901978, -0.881896436214447, 
313, 2522146403, 0.21034886, -0.55416036, -0.1950001, -0.78143126, 9.271965026855469, 0.870127260684967, 3.3441202640533447, -1.196868658065796, -1.4869580268859863, -0.5534904599189758, 
314, 2522163070, 0.2097402, -0.5542914, -0.19474353, -0.7815658, 9.245366096496582, 0.8476566076278687, 3.3651845455169678, -1.0139492750167847, -2.954636573791504, 0.15908050537109375, 
315, 2522179737, 0.20922437, -0.5544199, -0.19445422, -0.7816852, 9.27033519744873, 0.8581767082214355, 3.407747268676758, -0.7345402240753174, -2.8204896450042725, 0.8275976181030273, 
316, 2522196404, 0.20873086, -0.55447614, -0.19407992, -0.7818701, 9.153002738952637, 0.91060870885849, 3.277299404144287, -1.059245228767395, -2.02785325050354, 1.0915746688842773, 
317, 2522213071, 0.20808153, -0.5549839, -0.1936907, -0.7817793, 9.076142311096191, 0.9537080526351929, 3.179274797439575, -2.0763766765594482, -5.696591377258301, 1.2874479293823242, 
318, 2522229738, 0.20723903, -0.55605143, -0.19329487, -0.7813426, 9.125019073486328, 1.0481934547424316, 3.1193413734436035, -3.304462194442749, -10.278380393981934, 1.474197268486023, 
319, 2522246405, 0.2062656, -0.55746263, -0.19278415, -0.7807204, 9.24620532989502, 1.0485963821411133, 3.086620807647705, -4.71494197845459, -12.842227935791016, 1.9147233963012695, 
320, 2522263072, 0.20529072, -0.5588148, -0.19225171, -0.78014183, 9.392553329467773, 0.9203760623931885, 3.1709964275360107, -4.646350860595703, -12.311609268188477, 1.907974362373352, 
321, 2522279739, 0.2044391, -0.56001776, -0.19166742, -0.77964634, 9.499415397644043, 0.7352531552314758, 3.1785151958465576, -4.585020542144775, -10.969193458557129, 2.3699886798858643, 
322, 2522296406, 0.20384355, -0.56096494, -0.19097166, -0.77929217, 9.512846946716309, 0.6075897812843323, 3.1884512901306152, -3.776305675506592, -8.538515090942383, 3.713292121887207, 
323, 2522313073, 0.20372905, -0.5616693, -0.19021341, -0.779, 9.370823860168457, 0.5748693346977234, 3.15474271774292, -2.223612070083618, -6.293817043304443, 6.036198139190674, 
324, 2522329740, 0.2041337, -0.5624073, -0.18940306, -0.77855915, 9.173734664916992, 0.7217841744422913, 3.167097568511963, -0.45945996046066284, -6.303537368774414, 9.225415229797363, 
325, 2522346407, 0.20494159, -0.56317496, -0.18807907, -0.7781126, 9.03970718383789, 0.8096250891685486, 3.116297960281372, -1.443392038345337, -5.224968910217285, 13.494526863098145, 
326, 2522363074, 0.20617452, -0.56412727, -0.18632305, -0.77751935, 8.945673942565918, 0.8262932896614075, 3.147463798522949, -2.4882898330688477, -5.645738124847412, 17.78364372253418, 
327, 2522379741, 0.20761791, -0.5654122, -0.18430564, -0.77668226, 9.089340209960938, 0.9795661568641663, 3.2061123847961426, -3.1990060806274414, -7.73451042175293, 20.70673179626465, 
328, 2522396408, 0.20903417, -0.5669012, -0.1821634, -0.77572197, 9.358595848083496, 1.1023640632629395, 3.1913809776306152, -4.214693546295166, -9.172680854797363, 21.454076766967773, 
329, 2522413075, 0.21009938, -0.5686197, -0.18039902, -0.77458775, 9.782307624816895, 0.9419311285018921, 3.2445807456970215, -3.2566540241241455, -12.043721199035645, 18.79842185974121, 
330, 2522429742, 0.21080147, -0.56963533, -0.17898858, -0.77397776, 9.902002334594727, 0.6450307369232178, 3.231837034225464, -2.691704750061035, -7.227525234222412, 13.772529602050781, 
331, 2522446409, 0.21113391, -0.5702548, -0.17813066, -0.77362895, 9.673002243041992, 0.5219386219978333, 3.0816853046417236, -1.0100563764572144, -5.354625225067139, 8.756204605102539, 
332, 2522463076, 0.21120848, -0.57067853, -0.17769511, -0.77339613, 9.538106918334961, 0.6542445421218872, 2.887462854385376, 0.20884598791599274, -4.791131973266602, 5.2675981521606445, 
333, 2522479743, 0.21111128, -0.571017, -0.1777615, -0.77315766, 9.409444808959961, 0.7265024781227112, 2.699795722961426, 2.4057435989379883, -5.287025451660156, 2.3165345191955566, 
334, 2522496410, 0.2107832, -0.57125974, -0.17826101, -0.77295274, 9.384439468383789, 0.765898585319519, 2.5856359004974365, 4.007728576660156, -5.539783954620361, -0.7354430556297302, 
335, 2522513077, 0.21032263, -0.57134646, -0.1789981, -0.7728438, 9.310356140136719, 0.6767915487289429, 2.410848379135132, 4.648353099822998, -4.832271575927734, -2.76322603225708, 
336, 2522529744, 0.2097934, -0.5718635, -0.18005063, -0.77236044, 9.368762969970703, 0.6497829556465149, 2.242245674133301, 6.156520843505859, -9.098095893859863, -3.207031726837158, 
337, 2522546411, 0.20949975, -0.5728498, -0.18133622, -0.77140796, 9.944252967834473, 0.712322473526001, 2.151944398880005, 8.079511642456055, -13.459484100341797, -1.6604855060577393, 
338, 2522563078, 0.20965809, -0.5736513, -0.18220149, -0.7705652, 10.631136894226074, 0.815433144569397, 2.356657028198242, 7.667186260223389, -10.851224899291992, 1.9766422510147095, 
339, 2522579745, 0.21030638, -0.5737489, -0.18234083, -0.77028275, 10.860212326049805, 0.8087047934532166, 2.3462705612182617, 6.232807636260986, -3.21628999710083, 5.8049468994140625, 
340, 2522596412, 0.21120016, -0.5734167, -0.18209617, -0.77034336, 10.664510726928711, 0.684822142124176, 2.4014782905578613, 5.397449016571045, 1.3063441514968872, 7.603036403656006, 
341, 2522613079, 0.21227597, -0.57253253, -0.18176022, -0.77078456, 10.288976669311523, 0.45188236236572266, 2.461338758468628, 5.5582075119018555, 6.098519802093506, 7.5623626708984375, 
342, 2522629746, 0.2135181, -0.57124823, -0.18166406, -0.7714167, 9.910707473754883, 0.23671768605709076, 2.522279977798462, 8.084108352661133, 8.859892845153809, 6.802793979644775, 
343, 2522646413, 0.21498117, -0.5695293, -0.18190138, -0.7722251, 9.853657722473145, 0.10794369876384735, 2.6377997398376465, 11.332451820373535, 11.667619705200195, 5.9223527908325195, 
344, 2522663080, 0.21671984, -0.5673746, -0.18223546, -0.7732459, 9.7303466796875, 0.21615611016750336, 2.6712563037872314, 13.029353141784668, 15.019731521606445, 6.052533149719238, 
345, 2522679747, 0.21878025, -0.5646315, -0.18240893, -0.7746314, 9.51891803741455, 0.35140082240104675, 2.6017603874206543, 13.68175983428955, 20.22056770324707, 7.050449371337891, 
346, 2522696414, 0.22108142, -0.5617713, -0.18256588, -0.77601916, 9.340315818786621, 0.5838416218757629, 2.6396052837371826, 15.056300163269043, 21.209125518798828, 8.371686935424805, 
347, 2522713081, 0.22334582, -0.5589801, -0.18274021, -0.7773443, 9.148877143859863, 0.6751182079315186, 2.578686237335205, 14.91030502319336, 20.538286209106445, 8.276905059814453, 
348, 2522729748, 0.22536814, -0.55655026, -0.18309903, -0.7784188, 8.98465347290039, 0.6532207727432251, 2.457296371459961, 14.701168060302734, 17.072330474853516, 7.118436336517334, 
349, 2522746415, 0.22719207, -0.55475885, -0.18393962, -0.77896893, 8.993868827819824, 0.5260438323020935, 2.3320775032043457, 16.10697364807129, 10.66954231262207, 5.8097310066223145, 
350, 2522763082, 0.22898312, -0.55347145, -0.1853029, -0.7790372, 9.189549446105957, 0.37355831265449524, 2.2210376262664795, 18.546066284179688, 5.297622203826904, 5.015127182006836, 
351, 2522779749, 0.23085497, -0.5522522, -0.18679023, -0.77899486, 9.611034393310547, 0.27372071146965027, 2.1710026264190674, 20.030658721923828, 4.466093063354492, 5.413034915924072, 
352, 2522796416, 0.23305994, -0.5506893, -0.18826106, -0.77909064, 9.943647384643555, 0.2654903531074524, 2.1942238807678223, 21.261873245239258, 7.308393955230713, 6.480640411376953, 
353, 2522813083, 0.23566961, -0.5487044, -0.18967792, -0.7793624, 10.062439918518066, 0.45228347182273865, 2.1821584701538086, 23.043825149536133, 10.884641647338867, 8.055341720581055, 
354, 2522829750, 0.238617, -0.54636276, -0.1911324, -0.77975535, 9.893518447875977, 0.7234305143356323, 2.1339004039764404, 24.81558609008789, 13.66790771484375, 9.017843246459961, 
355, 2522846417, 0.24158886, -0.54407144, -0.19257924, -0.7800863, 9.748634338378906, 1.0198290348052979, 2.2098753452301025, 24.82219123840332, 13.247352600097656, 9.339917182922363, 
356, 2522863084, 0.24435532, -0.5419579, -0.19382127, -0.7803881, 9.595086097717285, 1.0544419288635254, 2.3128275871276855, 22.84994125366211, 12.295188903808594, 9.364999771118164, 
357, 2522879751, 0.24680886, -0.5398438, -0.19479997, -0.7808374, 9.458971977233887, 0.9866871237754822, 2.3501484394073486, 20.026460647583008, 12.903576850891113, 8.41883659362793, 
358, 2522896418, 0.24878207, -0.5379875, -0.19575258, -0.7812543, 9.494242668151855, 1.000499963760376, 2.3864219188690186, 17.876604080200195, 10.838134765625, 6.420166969299316, 
359, 2522913085, 0.25012645, -0.5363976, -0.19685502, -0.78164095, 9.656888008117676, 1.3191198110580444, 2.496580123901367, 15.833942413330078, 8.219701766967773, 2.873018264770508, 
360, 2522929752, 0.2507766, -0.53467995, -0.19802849, -0.78231287, 9.580829620361328, 1.6227381229400635, 2.570157766342163, 13.554790496826172, 8.930349349975586, -1.7339493036270142, 
361, 2522946419, 0.2506013, -0.53289735, -0.1993375, -0.7832523, 9.387894630432129, 1.6182403564453125, 2.3914098739624023, 10.882575988769531, 8.930183410644531, -7.236253261566162, 
362, 2522963086, 0.2496201, -0.53123415, -0.2009821, -0.7842745, 9.330655097961426, 1.4507901668548584, 2.2547361850738525, 9.607051849365234, 6.9514360427856445, -12.676630020141602, 
363, 2522979753, 0.2481093, -0.52959895, -0.20308185, -0.785318, 9.288844108581543, 1.3195092678070068, 2.14115834236145, 9.965916633605957, 5.39911413192749, -17.204801559448242, 
364, 2522996420, 0.24632972, -0.5279906, -0.20566276, -0.78628904, 9.124467849731445, 1.4080681800842285, 1.6995240449905396, 11.714759826660156, 3.8415541648864746, -20.197734832763672, 
365, 2523013087, 0.244316, -0.5265469, -0.20867223, -0.78709215, 8.788407325744629, 1.6607600450515747, 1.2801215648651123, 13.09280776977539, 1.333771824836731, -22.504547119140625, 
366, 2523029754, 0.2420146, -0.5256173, -0.21163265, -0.7876339, 8.570777893066406, 2.188053846359253, 1.3449070453643799, 11.270073890686035, -2.6694700717926025, -22.696340560913086, 
367, 2523046421, 0.23928012, -0.5262071, -0.21450217, -0.78729916, 8.655219078063965, 3.1860194206237793, 3.209811210632324, 7.988018035888672, -14.485952377319336, -21.001890182495117, 
368, 2523063088, 0.23605663, -0.5280892, -0.217998, -0.78605086, 9.971765518188477, 2.9688398838043213, 6.103997230529785, 8.860574722290039, -26.524459838867188, -22.443275451660156, 
369, 2523079755, 0.23207226, -0.5301169, -0.22173035, -0.78482753, 11.87293529510498, 0.2518075704574585, 6.043257713317871, 7.072834014892578, -28.793212890625, -27.216562271118164, 
370, 2523096422, 0.22904561, -0.5298273, -0.22488494, -0.78501475, 12.169828414916992, -1.0990915298461914, 5.386997699737549, 9.049324989318848, -8.792474746704102, -25.7459659576416, 
371, 2523113089, 0.22804871, -0.5278858, -0.22717649, -0.7859526, 9.676244735717773, 0.11642139405012131, 4.962640762329102, 13.234295845031738, 7.3394975662231445, -15.45278263092041, 
372, 2523129756, 0.22765997, -0.52569324, -0.22799306, -0.78729725, 8.81326675415039, 2.5925960540771484, 4.740774154663086, 7.2815070152282715, 13.411194801330566, -7.853559970855713, 
373, 2523146423, 0.2260672, -0.5229809, -0.22704236, -0.7898332, 8.3062162399292, 4.318154335021973, 3.9275436401367188, -7.689479827880859, 21.380094528198242, -10.623383522033691, 
374, 2523163090, 0.22137092, -0.5215692, -0.22561306, -0.7925019, 7.728015422821045, 3.56628680229187, 3.336789131164551, -23.5927734375, 10.69096565246582, -23.813261032104492, 
375, 2523179757, 0.21460216, -0.52172804, -0.22512011, -0.7943971, 7.582330226898193, 1.0376406908035278, 3.9262187480926514, -27.130001068115234, -5.287016868591309, -34.796539306640625, 
376, 2523196424, 0.20826711, -0.5232615, -0.22610512, -0.79479474, 8.755583763122559, -0.8458670973777771, 4.0204925537109375, -17.239498138427734, -19.701433181762695, -33.417762756347656, 
377, 2523213091, 0.20456079, -0.52421886, -0.22785598, -0.79462653, 10.810667037963867, -1.2259776592254639, 3.6979947090148926, -1.9171600341796875, -15.616477966308594, -21.974103927612305, 
378, 2523229758, 0.20372298, -0.5233312, -0.22882503, -0.7951483, 10.77069091796875, -0.39208462834358215, 3.7018930912017822, 5.691220283508301, 2.557044744491577, -7.416793346405029, 
379, 2523246425, 0.2042565, -0.5227758, -0.2276521, -0.79571307, 9.325575828552246, 0.9777888655662537, 3.3919715881347656, -1.6087660789489746, 6.059402942657471, 8.196002960205078, 
380, 2523263092, 0.20500231, -0.5236119, -0.22458522, -0.7958431, 9.028292655944824, 2.201796531677246, 3.0341596603393555, -12.471500396728516, -0.12675748765468597, 18.94002342224121, 
381, 2523279759, 0.20515692, -0.52426976, -0.21984003, -0.7966946, 9.005301475524902, 2.5427370071411133, 2.802116632461548, -24.73979949951172, 4.882668972015381, 20.43296241760254, 
382, 2523296426, 0.20423496, -0.52456594, -0.21460663, -0.79816216, 8.37486457824707, 1.8199362754821777, 2.4726600646972656, -31.684736251831055, 8.153287887573242, 14.920140266418457, 
383, 2523313093, 0.20262782, -0.5248845, -0.20980169, -0.79963845, 8.059423446655273, 0.7852155566215515, 2.3083856105804443, -31.823131561279297, 6.45753812789917, 9.662250518798828, 
384, 2523329760, 0.20115107, -0.5251688, -0.20604506, -0.8008006, 8.084465026855469, 0.01021226029843092, 2.2272675037384033, -25.172395706176758, 4.23638916015625, 6.939265251159668, 
385, 2523346427, 0.20004284, -0.52558845, -0.2032748, -0.8015108, 7.967064380645752, -0.2755226194858551, 1.9301066398620605, -17.957237243652344, 1.027121901512146, 6.194581031799316, 
386, 2523363094, 0.19926704, -0.5264281, -0.20134057, -0.80164105, 7.768962383270264, -0.2230231612920761, 1.6708091497421265, -11.822312355041504, -4.03723669052124, 6.393408298492432, 
387, 2523379761, 0.1989135, -0.52748775, -0.20016107, -0.8013275, 7.5674638748168945, -0.23189207911491394, 1.4146569967269897, -5.950235366821289, -7.298617362976074, 6.813045024871826, 
388, 2523396428, 0.1991397, -0.52841806, -0.19957742, -0.80080384, 7.544271945953369, -0.3135022222995758, 1.103965401649475, -0.1059405505657196, -7.336740970611572, 7.9186296463012695, 
389, 2523413095, 0.20007382, -0.5289699, -0.19978324, -0.80015504, 7.511569976806641, -0.4932485818862915, 0.7305520176887512, 7.481166839599609, -5.785560131072998, 8.55631160736084, 
390, 2523429762, 0.20155545, -0.5298003, -0.20100603, -0.7989268, 7.721175670623779, -0.4606333374977112, 0.6371331810951233, 15.450231552124023, -10.0329008102417, 8.998126029968262, 
391, 2523446429, 0.20335488, -0.5311758, -0.2029921, -0.79705304, 8.282750129699707, -0.2718140780925751, 0.8194572925567627, 20.93918228149414, -15.95101261138916, 9.571785926818848, 
392, 2523463096, 0.20533016, -0.5329747, -0.205225, -0.7947706, 9.059601783752441, -0.2758728563785553, 1.289736270904541, 22.887619018554688, -19.81953239440918, 10.747692108154297, 
393, 2523479763, 0.20757346, -0.53468424, -0.20726354, -0.7925075, 9.638531684875488, -0.3951989710330963, 1.844698429107666, 22.894227981567383, -18.569679260253906, 12.72494888305664, 
394, 2523496430, 0.2103313, -0.5357519, -0.20946541, -0.7904778, 9.67618465423584, -0.4692651033401489, 2.2588536739349365, 26.16612434387207, -13.693375587463379, 13.599153518676758, 
395, 2523513097, 0.21320152, -0.5364727, -0.21170872, -0.7886201, 9.488292694091797, -0.6384335160255432, 2.5076498985290527, 27.04039764404297, -11.054409980773926, 13.257822036743164, 
396, 2523529764, 0.2159255, -0.5372648, -0.2137965, -0.78677434, 9.528328895568848, -0.6001958847045898, 2.271151542663574, 25.5611572265625, -11.36694622039795, 13.08841323852539, 
397, 2523546431, 0.21869695, -0.53851974, -0.21601689, -0.7845412, 9.951899528503418, -0.10650935769081116, 2.467226266860962, 26.395414352416992, -15.406695365905762, 14.087016105651855, 
398, 2523563098, 0.22221233, -0.5391501, -0.21743725, -0.78272605, 10.005867958068848, 0.3762798011302948, 3.3003432750701904, 25.109285354614258, -8.172754287719727, 19.45503044128418, 
399, 2523579765, 0.22791526, -0.5375828, -0.2178725, -0.78204286, 8.957589149475098, -0.1924980729818344, 4.006598949432373, 29.579124450683594, 12.620293617248535, 29.843515396118164, 
400, 2523596432, 0.23663263, -0.5339163, -0.21759626, -0.7820425, 7.336535930633545, -1.6358588933944702, 4.3189496994018555, 39.14549255371094, 32.031639099121094, 44.435237884521484, 
401, 2523613099, 0.24939196, -0.52736795, -0.21684529, -0.78272945, 4.401480197906494, -2.711886167526245, 3.7544326782226562, 54.38490676879883, 56.758148193359375, 62.15361404418945, 
402, 2523629766, 0.2648327, -0.52015823, -0.2149976, -0.78299135, 0.9836767315864563, -1.9201791286468506, 3.3632311820983887, 60.7162971496582, 64.65666198730469, 80.53379821777344, 
403, 2523646433, 0.28037912, -0.5150779, -0.21193905, -0.7817698, -1.6229509115219116, 0.37791672348976135, 3.431436061859131, 52.20825958251953, 50.1298828125, 90.95098114013672, 
404, 2523663100, 0.29278907, -0.5151991, -0.21021616, -0.7775947, -1.3439106941223145, 2.331483840942383, 3.170927047729492, 42.55850601196289, 4.4778642654418945, 82.64524841308594, 
405, 2523679767, 0.30078903, -0.5207006, -0.21139348, -0.7705257, 1.961610198020935, 4.253317356109619, 2.748599052429199, 35.77781295776367, -46.82443618774414, 62.44416427612305, 
406, 2523696434, 0.30326298, -0.5289922, -0.21593814, -0.762607, 10.268861770629883, 4.974157333374023, 2.726207733154297, 29.265670776367188, -79.68081665039062, 27.009653091430664, 
407, 2523713101, 0.29852042, -0.5355489, -0.22168626, -0.75824034, 18.703794479370117, 3.2967307567596436, 6.718833923339844, 7.638128757476807, -70.8646240234375, -25.091583251953125, 
408, 2523729768, 0.29662997, -0.53748727, -0.21975483, -0.75817275, 21.691619873046875, 6.205441474914551, 5.393098831176758, -18.98711585998535, -10.84769344329834, 2.2510268688201904, 
409, 2523746435, 0.30052632, -0.53639376, -0.21344092, -0.7592158, 16.981388092041016, 8.780200958251953, -0.2283613234758377, -15.97911548614502, 26.78235626220703, 41.879764556884766, 
410, 2523763102, 0.29929623, -0.5352015, -0.2105224, -0.7613551, 10.497885704040527, -0.29106953740119934, 0.3371397852897644, -18.621055603027344, 16.920846939086914, 0.35418596863746643, 
411, 2523779769, 0.29429036, -0.5344041, -0.20894639, -0.764295, 10.60289478302002, -6.835448265075684, -1.031883716583252, -27.457910537719727, 9.631513595581055, -25.435791015625, 
412, 2523796436, 0.29372326, -0.53364825, -0.21431941, -0.7635531, 9.273038864135742, -7.046880722045898, -1.9483860731124878, 30.61762046813965, -11.709580421447754, -20.271371841430664, 
413, 2523813103, 0.2960075, -0.53721154, -0.22298658, -0.7576678, 11.331063270568848, 0.5841923356056213, 1.0534254312515259, 57.274757385253906, -55.60822677612305, -0.7825431227684021, 
414, 2523829770, 0.30124825, -0.5398438, -0.22873724, -0.7519956, 13.573351860046387, 7.102128982543945, 2.5609476566314697, 54.569217681884766, -39.45194625854492, 23.530248641967773, 
415, 2523846437, 0.30424207, -0.5410637, -0.22854733, -0.74996865, 12.781668663024902, 11.466322898864746, 3.958134889602661, 12.671395301818848, -9.812708854675293, 24.316537857055664, 
416, 2523863104, 0.30096722, -0.5398066, -0.22177231, -0.7542179, 8.401067733764648, 10.553689002990723, 4.072998046875, -49.349159240722656, 30.22995376586914, -0.31472617387771606, 
417, 2523879771, 0.29171425, -0.5376502, -0.21304362, -0.7618711, 3.7367424964904785, 7.587746620178223, 3.9064624309539795, -85.06694793701172, 42.413475036621094, -32.27629089355469, 
418, 2523896438, 0.27773723, -0.5350048, -0.20446767, -0.771249, 1.3710510730743408, 3.5026607513427734, 2.6562209129333496, -103.33690643310547, 44.047115325927734, -61.620567321777344, 
419, 2523913105, 0.26108515, -0.5320877, -0.1980747, -0.7806944, 0.18863824009895325, -0.6315606832504272, 1.9211032390594482, -101.21353149414062, 37.732181549072266, -84.2841796875, 
420, 2523929772, 0.24352716, -0.53165907, -0.1965945, -0.7870094, -0.13997133076190948, -3.520585775375366, 2.4734389781951904, -78.36271667480469, 2.801096200942993, -98.1265869140625, 
421, 2523946439, 0.22737497, -0.5380081, -0.20188297, -0.7861878, 1.5227254629135132, -6.043866157531738, 5.192075729370117, -38.268733978271484, -69.46562957763672, -94.21744537353516, 
422, 2523963106, 0.21512736, -0.5461477, -0.21052022, -0.78174436, 6.331233978271484, -7.714151382446289, 7.181446552276611, -3.435626983642578, -92.45389556884766, -77.46710205078125, 
423, 2523979773, 0.20645721, -0.5524681, -0.2190227, -0.77729255, 14.363689422607422, -6.578541278839111, 9.875931739807129, 12.048501968383789, -77.42399597167969, -60.50595474243164, 
424, 2523996440, 0.20386069, -0.5532665, -0.22928232, -0.7744461, 32.07057189941406, -3.0251150131225586, 6.748134613037109, 49.992069244384766, -35.256996154785156, -45.467411041259766, 
425, 2524013107, 0.20788908, -0.5337959, -0.2282009, -0.78725386, 17.09027862548828, 0.0661119744181633, 1.0824604034423828, 18.56627655029297, 158.62428283691406, -21.0804386138916, 
426, 2524029774, 0.20917459, -0.5358259, -0.2274912, -0.7857382, 13.598766326904297, 7.461422443389893, 0.7585948705673218, 2.2523913383483887, -15.087276458740234, 16.870994567871094, 
427, 2524046441, 0.20947246, -0.5360405, -0.22622989, -0.78587675, 14.411208152770996, 12.337885856628418, 2.179483652114868, -4.38305139541626, 0.13341017067432404, 8.447205543518066, 
428, 2524063108, 0.19871037, -0.547035, -0.21952584, -0.7829913, 12.140363693237305, 6.205848217010498, 0.14157794415950775, -85.43749237060547, -78.58007049560547, -9.94533634185791, 
429, 2524079775, 0.18661061, -0.55662113, -0.21368627, -0.78082496, 18.16932487487793, -2.385152816772461, 1.0695229768753052, -84.99951934814453, -71.43714904785156, -23.421751022338867, 
430, 2524096442, 0.17970695, -0.5603521, -0.21156384, -0.7803536, 19.15134620666504, -8.333417892456055, 1.5150012969970703, -40.11332702636719, -30.578590393066406, -20.61252212524414, 
431, 2524113109, 0.1826058, -0.5543536, -0.21005322, -0.7843628, 14.757719993591309, -10.233047485351562, 0.6969452500343323, 6.483017921447754, 52.45723342895508, 9.736082077026367, 
432, 2524129776, 0.19249673, -0.5500105, -0.21160871, -0.7846371, 7.568676948547363, -8.58592700958252, 1.7114641666412354, 53.03940963745117, 35.60431671142578, 42.61259841918945, 
433, 2524146443, 0.20700473, -0.5466857, -0.21561472, -0.78217286, 5.034368515014648, -5.119462966918945, 2.567436456680298, 86.41303253173828, 23.23317527770996, 63.18265151977539, 
434, 2524163110, 0.22374597, -0.54270023, -0.21940182, -0.7792798, 2.2833869457244873, -1.3765968084335327, 1.5178526639938354, 95.24948120117188, 28.767101287841797, 75.53997802734375, 
435, 2524179777, 0.24027537, -0.5405272, -0.22285402, -0.77487683, 0.8974267244338989, 2.1199519634246826, 0.7627629041671753, 92.17227935791016, 13.589812278747559, 80.67786407470703, 
436, 2524196444, 0.2550342, -0.5398561, -0.22420469, -0.77022403, 0.5103952884674072, 4.345549583435059, 1.8559002876281738, 72.29314422607422, 5.3992180824279785, 81.80030822753906, 
437, 2524213111, 0.26707953, -0.54096174, -0.22306822, -0.76568264, 0.9493662118911743, 5.223193168640137, 3.8622262477874756, 45.74745559692383, -3.455761432647705, 79.27876281738281, 
438, 2524229778, 0.27570602, -0.54258215, -0.22061501, -0.7621811, 2.1691582202911377, 4.677112579345703, 4.658874034881592, 23.538715362548828, -5.188241481781006, 65.14752197265625, 
439, 2524246445, 0.28085855, -0.5448574, -0.21960263, -0.7589623, 4.315986633300781, 3.952481746673584, 3.999722480773926, 16.43862533569336, -15.63496208190918, 42.10530090332031, 
440, 2524263112, 0.2825723, -0.54802316, -0.22040765, -0.75580686, 9.016528129577637, 3.119035482406616, 5.058225631713867, 11.207003593444824, -28.79104995727539, 18.641185760498047, 
441, 2524279779, 0.27968952, -0.54969245, -0.22116905, -0.75544435, 14.839832305908203, 2.195237159729004, 6.419192790985107, -7.676991939544678, -17.4097843170166, -12.72406005859375, 
442, 2524296446, 0.27601826, -0.5484898, -0.21956569, -0.75813174, 15.839868545532227, 5.46333122253418, 4.611545085906982, -22.06324577331543, 12.350857734680176, -18.082611083984375, 
443, 2524313113, 0.27406445, -0.5474685, -0.2185043, -0.7598836, 11.894866943359375, 6.935212135314941, 0.5064083933830261, -11.718033790588379, 9.44696044921875, -9.041030883789062, 
444, 2524329780, 0.2689063, -0.55147624, -0.22086746, -0.75814307, 12.060370445251465, 1.3001997470855713, 1.2877084016799927, -10.149635314941406, -41.18473815917969, -24.42583656311035, 
445, 2524346447, 0.26305792, -0.55388546, -0.22136793, -0.7582927, 12.879095077514648, -2.5058341026306152, 0.008253123611211777, -22.393596649169922, -23.251422882080078, -26.8696346282959, 
446, 2524363114, 0.26006982, -0.5573478, -0.22315058, -0.75626147, 11.518241882324219, -0.6022226810455322, -0.40119633078575134, -3.388185739517212, -34.94987869262695, -11.347113609313965, 
447, 2524379781, 0.26007995, -0.56102574, -0.22647962, -0.7525395, 10.940629959106445, 3.8314714431762695, 1.601608395576477, 18.354352951049805, -40.651432037353516, 1.6489441394805908, 
448, 2524396448, 0.26023, -0.56323016, -0.22892842, -0.7500962, 10.103321075439453, 5.733959197998047, 3.564387798309326, 14.97140121459961, -26.281063079833984, 1.2398762702941895, 
449, 2524413115, 0.257256, -0.5622471, -0.22756365, -0.7522714, 8.0877685546875, 4.955753326416016, 4.699584484100342, -18.380205154418945, 9.933061599731445, -13.29776382446289, 
450, 2524429782, 0.2504177, -0.55689806, -0.22233643, -0.7600802, 4.862329483032227, 4.27134895324707, 3.4189577102661133, -54.40940856933594, 55.029823303222656, -35.074851989746094, 
451, 2524446449, 0.23991023, -0.5486767, -0.21547791, -0.77134055, 0.8941093683242798, 3.1943776607513428, 1.5682575702667236, -77.34288787841797, 80.41058349609375, -58.27777099609375, 
452, 2524463116, 0.22661059, -0.5432339, -0.21160963, -0.78023463, -2.2053534984588623, 1.2671931982040405, 2.930830717086792, -73.1192626953125, 47.63991928100586, -76.29877471923828, 
453, 2524479783, 0.21229048, -0.5448521, -0.21409023, -0.7824544, -0.585899293422699, -1.3043222427368164, 5.01466703414917, -44.16459274291992, -26.619735717773438, -84.7950439453125, 
454, 2524496450, 0.19818288, -0.55254036, -0.22093788, -0.7788512, 3.899858236312866, -2.9576003551483154, 5.870922088623047, -20.138389587402344, -87.24623107910156, -82.60179138183594, 
455, 2524513117, 0.18562746, -0.5662121, -0.22781596, -0.77009505, 19.961496353149414, -5.302037715911865, 7.026482582092285, -14.359740257263184, -136.63095092773438, -58.35344696044922, 
456, 2524529784, 0.18496759, -0.56492174, -0.23344526, -0.7695154, 30.93027687072754, -8.048979759216309, 7.654372215270996, 31.672626495361328, -5.365986347198486, -24.509973526000977, 
457, 2524546451, 0.19036701, -0.55497694, -0.23433124, -0.7751451, 12.656307220458984, -5.930135726928711, 2.4562602043151855, 31.198816299438477, 80.31050872802734, 3.9742984771728516, 
458, 2524563118, 0.1988046, -0.5524369, -0.23415558, -0.77489454, 14.090456008911133, 1.4330766201019287, 2.3359360694885254, 36.943389892578125, 24.708959579467773, 43.71632766723633, 
459, 2524579785, 0.20614257, -0.5525314, -0.23176062, -0.7736287, 14.81958293914795, 9.000614166259766, 1.2959964275360107, 18.97402000427246, 8.109018325805664, 51.90533447265625, 
460, 2524596452, 0.20512524, -0.5591068, -0.22757468, -0.770411, 12.845797538757324, 9.703027725219727, 1.1069555282592773, -28.405241012573242, -44.50363540649414, 27.46947479248047, 
461, 2524613119, 0.19650115, -0.56733537, -0.22250062, -0.76812226, 13.938996315002441, 2.279066562652588, 1.6819679737091064, -66.17102813720703, -60.299102783203125, -8.00492000579834, 
462, 2524629786, 0.18678106, -0.57259876, -0.22019602, -0.7673054, 16.372568130493164, -4.364536285400391, 1.277806043624878, -54.06761932373047, -44.2870979309082, -31.113571166992188, 
463, 2524646453, 0.1828205, -0.5731544, -0.22007003, -0.7678804, 16.805816650390625, -7.965415954589844, 1.0567562580108643, -15.941450119018555, -8.002853393554688, -18.323284149169922, 
464, 2524663120, 0.18860207, -0.56881285, -0.22168028, -0.7692458, 11.987544059753418, -8.37751293182373, 0.9166551828384399, 36.605167388916016, 33.57282638549805, 17.701082229614258, 
465, 2524679787, 0.20113261, -0.56473476, -0.2260208, -0.76781183, 7.448450088500977, -6.042143821716309, 1.104827880859375, 81.40000915527344, 28.007413864135742, 46.59075927734375, 
466, 2524696454, 0.21784647, -0.55965835, -0.22994527, -0.76580083, 4.791650295257568, -2.805982828140259, 1.0954909324645996, 97.75765228271484, 38.117584228515625, 69.42814636230469, 
467, 2524713121, 0.23554038, -0.55454487, -0.2319528, -0.7636744, 1.9096728563308716, 0.15145322680473328, 1.607331395149231, 91.69255828857422, 42.2791748046875, 82.02555084228516, 
468, 2524729788, 0.25171235, -0.5521117, -0.23386827, -0.7596836, 0.5807843804359436, 3.9585351943969727, 1.6766550540924072, 84.04463195800781, 18.790538787841797, 81.68000793457031, 
469, 2524746455, 0.2632824, -0.55553293, -0.2367417, -0.75234234, 1.5762615203857422, 6.822398662567139, 3.1974830627441406, 66.81946563720703, -33.59815216064453, 69.27977752685547, 
470, 2524763122, 0.2706187, -0.56005794, -0.23833509, -0.7458532, 5.054292678833008, 8.175678253173828, 5.125568866729736, 40.61541748046875, -40.67107009887695, 52.62833786010742, 
471, 2524779789, 0.2741332, -0.563083, -0.23808199, -0.74236476, 9.4606351852417, 7.111422061920166, 5.4030046463012695, 14.275535583496094, -24.30950927734375, 32.22240447998047, 
472, 2524796456, 0.27522185, -0.5624288, -0.23599717, -0.7431231, 14.422834396362305, 4.000558376312256, 5.060036659240723, -4.5043110847473145, 10.348577499389648, 13.008089065551758, 
473, 2524813123, 0.27594477, -0.5594857, -0.2312901, -0.7465489, 13.5897798538208, 1.5623304843902588, 3.781724691390991, -19.325958251953125, 36.707313537597656, 12.569092750549316, 
474, 2524829790, 0.27707905, -0.5563135, -0.22628257, -0.75002575, 10.089104652404785, 1.0047045946121216, 1.5126091241836548, -18.936717987060547, 39.30324935913086, 15.389915466308594, 
475, 2524846457, 0.27692062, -0.5555181, -0.22451758, -0.7512034, 9.311405181884766, 1.0632483959197998, 1.517773151397705, -8.115470886230469, 10.084993362426758, 4.40764045715332, 
476, 2524863124, 0.2747283, -0.55603373, -0.22512217, -0.7514459, 10.444968223571777, 1.511798620223999, 1.8752955198287964, -4.7004523277282715, -7.891016006469727, -11.333467483520508, 
477, 2524879791, 0.27145687, -0.55770516, -0.22615148, -0.75108725, 11.186532020568848, 2.705904245376587, 1.1209275722503662, -7.8885817527771, -18.61524200439453, -15.591299057006836, 
478, 2524896458, 0.26792338, -0.5618332, -0.22696845, -0.74903005, 12.786824226379395, 4.17188024520874, 1.5432627201080322, -11.942060470581055, -37.79332733154297, -9.106974601745605, 
479, 2524913125, 0.2648304, -0.56550115, -0.2257439, -0.74773884, 12.96915054321289, 4.022307872772217, 2.420070171356201, -21.1134033203125, -27.988943099975586, -1.0261324644088745, 
480, 2524929792, 0.26179558, -0.5665362, -0.22319768, -0.7487874, 11.380491256713867, 3.1769652366638184, 3.954873561859131, -26.531234741210938, -2.8452646732330322, -3.8849387168884277, 
481, 2524946459, 0.2577018, -0.56415063, -0.2201961, -0.7528862, 9.067608833312988, 3.04590106010437, 5.2940897941589355, -31.534120559692383, 25.8237247467041, -18.26425552368164, 
482, 2524963126, 0.25118965, -0.55867356, -0.21546344, -0.76050204, 5.375401496887207, 2.4057939052581787, 4.908143043518066, -49.73408508300781, 54.828948974609375, -34.94540023803711, 
483, 2524979793, 0.24190852, -0.55101985, -0.20947763, -0.7706988, 1.9192636013031006, 1.9565370082855225, 2.3013837337493896, -67.00016784667969, 74.13099670410156, -52.26755905151367, 
484, 2524996460, 0.23075756, -0.54345465, -0.20564546, -0.78046024, -0.7591198682785034, 0.7151675820350647, 0.9801068305969238, -62.20329666137695, 65.70441436767578, -69.46469116210938, 
485, 2525013127, 0.21895573, -0.5422745, -0.20823243, -0.7839874, -2.4261462688446045, -0.4096067547798157, 4.0507612228393555, -31.505962371826172, -2.984575033187866, -78.01773071289062, 
486, 2525029794, 0.20802732, -0.55106664, -0.21717219, -0.77838695, 1.6458197832107544, -1.016023874282837, 4.470156192779541, 4.067134380340576, -99.15718841552734, -68.9851303100586, 
487, 2525046461, 0.19680323, -0.5664018, -0.22517605, -0.76795393, 9.944049835205078, -1.7864073514938354, 3.9560728073120117, -4.175495624542236, -151.65011596679688, -50.358680725097656, 
488, 2525063128, 0.18872829, -0.5791547, -0.22699718, -0.75989074, 29.770795822143555, -2.6883842945098877, 5.561781883239746, -24.70330047607422, -115.55268859863281, -16.901395797729492, 
489, 2525079795, 0.18957719, -0.5690547, -0.22164193, -0.7688382, 18.854846954345703, -2.442490339279175, 3.967897891998291, -23.5394287109375, 94.85295867919922, 0.4593600630760193, 
490, 2525096462, 0.19095482, -0.56362605, -0.22082908, -0.7727202, 9.483617782592773, -1.0666154623031616, 1.7288825511932373, 4.183141708374023, 45.23613739013672, -0.8704283237457275, 
491, 2525113129, 0.19145112, -0.56245863, -0.22194672, -0.7731278, 12.090811729431152, 0.9243865609169006, 1.8554248809814453, 10.710094451904297, 5.27480936050415, -2.036229372024536, 
492, 2525129796, 0.18918292, -0.56484663, -0.2230711, -0.7716201, 13.83962631225586, 1.6605173349380493, 0.44859182834625244, -1.7014108896255493, -25.235647201538086, -8.82115650177002, 
493, 2525146463, 0.186891, -0.5706816, -0.22484165, -0.7673596, 13.857397079467773, 0.8364757299423218, 1.0005860328674316, 1.3689303398132324, -55.03928756713867, -2.5927374362945557, 
494, 2525163130, 0.18605554, -0.57555825, -0.22615832, -0.76352376, 13.715587615966797, -1.4203928709030151, 1.6849323511123657, 5.262372970581055, -45.443572998046875, 4.8285932540893555, 
495, 2525179797, 0.18870659, -0.5766037, -0.22846556, -0.76139456, 13.17463493347168, -4.806161880493164, 1.9209932088851929, 26.513235092163086, -14.399312973022461, 11.02420711517334, 
496, 2525196464, 0.19620965, -0.5738667, -0.23170207, -0.76058745, 10.484369277954102, -8.154558181762695, 2.217712879180908, 53.461334228515625, 17.075794219970703, 24.99072265625, 
497, 2525213131, 0.20918636, -0.570044, -0.2356953, -0.75877464, 6.570697784423828, -7.082754611968994, 1.495834231376648, 82.1104736328125, 26.48533821105957, 50.12503433227539, 
498, 2525229798, 0.22728927, -0.56345165, -0.23888719, -0.7574924, 2.8589634895324707, -2.2250421047210693, -0.06166079640388489, 101.17292022705078, 52.4678955078125, 74.65367126464844, 
499, 2525246465, 0.24645811, -0.5582388, -0.24119136, -0.7546221, 0.11766672134399414, 2.923783779144287, -0.1502307951450348, 101.14134979248047, 42.26801681518555, 88.36273956298828, 
500, 2525263132, 0.26279336, -0.5583802, -0.2430113, -0.74839604, -0.006274561397731304, 6.32318115234375, 1.8862208127975464, 84.23250579833984, -2.277123212814331, 90.12873077392578, 
501, 2525279799, 0.2740207, -0.5651454, -0.24357289, -0.73905057, 1.8372488021850586, 6.562577247619629, 4.807828426361084, 51.36692810058594, -54.628265380859375, 85.47116088867188, 
502, 2525296466, 0.28030178, -0.57373846, -0.24296796, -0.7302206, 6.82208251953125, 6.648405075073242, 5.6989545822143555, 21.890430450439453, -68.05855560302734, 67.05105590820312, 
503, 2525313133, 0.2822424, -0.5795015, -0.24400169, -0.72455543, 14.825621604919434, 5.793019771575928, 5.217380523681641, 13.14318561553955, -51.826412200927734, 28.057214736938477, 
504, 2525329800, 0.28124323, -0.578838, -0.24431968, -0.72536665, 17.425207138061523, 2.925250768661499, 6.440374374389648, -0.5420993566513062, 2.424421787261963, -7.010191440582275, 
505, 2525346467, 0.28089586, -0.57709247, -0.24239556, -0.7275343, 13.354989051818848, 2.2381234169006348, 4.961724281311035, -9.321340560913086, 18.6145076751709, 0.754410445690155, 
506, 2525363134, 0.28170252, -0.5770057, -0.24065238, -0.7278699, 11.564980506896973, 3.153484344482422, 3.3499855995178223, -3.9928369522094727, 4.5965094566345215, 12.134550094604492, 
507, 2525379801, 0.2816882, -0.577474, -0.24171492, -0.7271516, 12.003247261047363, 3.990319013595581, 3.1430087089538574, 7.453849792480469, -9.163261413574219, -0.10599179565906525, 
508, 2525396468, 0.2793874, -0.5785035, -0.2425313, -0.72694933, 11.800565719604492, 2.05499267578125, 1.0922291278839111, -4.807175159454346, -13.24477481842041, -10.579310417175293, 
509, 2525413135, 0.27656075, -0.58146185, -0.24258266, -0.72565144, 11.943748474121094, 0.5318609476089478, -0.28555041551589966, -12.603242874145508, -26.630287170410156, -4.822630405426025, 
510, 2525429802, 0.27568793, -0.58492225, -0.2419131, -0.7234225, 12.446160316467285, 0.6000622510910034, -0.7916864156723022, -7.791197776794434, -28.18645477294922, 10.414915084838867, 
511, 2525446469, 0.27718434, -0.5875346, -0.24075206, -0.7211175, 12.727945327758789, 2.1003987789154053, -0.2622227668762207, 1.0274566411972046, -19.356582641601562, 22.909961700439453, 
512, 2525463136, 0.2782523, -0.5897169, -0.2394071, -0.7193704, 12.390722274780273, 3.9033827781677246, 1.4196813106536865, -1.7240777015686035, -15.290064811706543, 19.77582550048828, 
513, 2525479803, 0.27692506, -0.5913725, -0.23652487, -0.71947706, 11.723670959472656, 4.173251628875732, 2.214866876602173, -21.09009552001953, -6.155467510223389, 9.79478931427002, 
514, 2525496470, 0.27308613, -0.59149075, -0.23036478, -0.7228381, 10.10584831237793, 2.876372814178467, 2.4912519454956055, -49.8907470703125, 16.834110260009766, 2.0518405437469482, 
515, 2525513137, 0.26769406, -0.59002155, -0.22329848, -0.7282529, 8.742388725280762, 1.09782874584198, 3.3494701385498047, -60.99091339111328, 32.306819915771484, -8.32204818725586, 
516, 2525529804, 0.26169142, -0.5869895, -0.21710041, -0.73473036, 7.153072357177734, -0.3045504689216614, 3.1457574367523193, -57.88239669799805, 41.880489349365234, -19.250289916992188, 
517, 2525546471, 0.2554921, -0.5836618, -0.21351786, -0.7405893, 4.352924346923828, -0.5916150212287903, 2.350841760635376, -44.006072998046875, 35.85213088989258, -30.141252517700195, 
518, 2525563138, 0.24848679, -0.5834851, -0.21400735, -0.7429672, 1.7080113887786865, -0.3709162771701813, 2.39296817779541, -26.929443359375, -2.5187671184539795, -39.8596305847168, 
519, 2525579805, 0.24009754, -0.58829, -0.21785769, -0.7408145, 1.6865687370300293, -0.12189558148384094, 4.107828617095947, -17.148897171020508, -53.94605255126953, -45.35173416137695, 
520, 2525596472, 0.23160179, -0.5954756, -0.22354127, -0.73607004, 4.477043628692627, -0.7554948925971985, 5.562113285064697, -8.277657508850098, -79.78923797607422, -45.471588134765625, 
521, 2525613139, 0.22341701, -0.60537577, -0.23159042, -0.727991, 8.886112213134766, -1.1832979917526245, 6.433075428009033, 5.788682460784912, -110.52861785888672, -44.117698669433594, 
522, 2525629806, 0.2153239, -0.6158307, -0.23924994, -0.71912986, 22.126169204711914, -1.4821410179138184, 6.981969356536865, 4.636919975280762, -115.87741088867188, -39.976348876953125, 
523, 2525646473, 0.21111158, -0.6134217, -0.23925158, -0.7224296, 25.072490692138672, -1.384849190711975, 6.135042190551758, -17.7382755279541, 16.897207260131836, -27.570932388305664, 
524, 2525663140, 0.21144386, -0.60727036, -0.23762675, -0.7280439, 12.191235542297363, 0.09549801796674728, 5.088804721832275, -5.017980098724365, 55.05029296875, -7.703577518463135, 
525, 2525679807, 0.21132107, -0.6063123, -0.2358059, -0.72946876, 12.988970756530762, 2.25154185295105, 3.5196471214294434, -8.599067687988281, 11.065949440002441, 5.3972015380859375, 
526, 2525696474, 0.2088973, -0.60785115, -0.23370506, -0.72956216, 15.404020309448242, 3.428196668624878, 3.6651358604431152, -21.067171096801758, -10.348108291625977, 1.0155839920043945, 
527, 2525713141, 0.20401666, -0.6100668, -0.2309477, -0.72997195, 16.901578903198242, 2.289551019668579, 4.316916465759277, -36.107933044433594, -15.436970710754395, -7.911032676696777, 
528, 2525729808, 0.19997017, -0.60982746, -0.22738831, -0.73240495, 16.412952423095703, 0.11599181592464447, 3.9184792041778564, -36.401405334472656, 7.799182891845703, -7.094926357269287, 
529, 2525746475, 0.19760281, -0.6076724, -0.22404024, -0.7358624, 15.414673805236816, -1.1083506345748901, 2.6836655139923096, -27.260786056518555, 24.061893463134766, -3.953619956970215, 
530, 2525763142, 0.19693387, -0.605429, -0.22105666, -0.7387873, 14.075446128845215, -1.1457051038742065, 2.224085807800293, -17.378210067749023, 24.407079696655273, 3.6662843227386475, 
531, 2525779809, 0.19839267, -0.60192746, -0.21761638, -0.74227154, 12.866055488586426, -0.9907181859016418, 1.8201395273208618, -9.987427711486816, 36.98415756225586, 13.67120361328125, 
532, 2525796476, 0.20091315, -0.598447, -0.21478581, -0.74522644, 11.446310043334961, -1.185681700706482, 1.5106112957000732, -1.721752643585205, 35.45269012451172, 17.29148292541504, 
533, 2525813143, 0.20403138, -0.5938615, -0.21257895, -0.7486722, 10.348466873168945, -1.314768671989441, 1.5973893404006958, 4.7427520751953125, 43.16889953613281, 15.452614784240723, 
534, 2525829810, 0.20771244, -0.5883868, -0.2111406, -0.75238043, 8.890527725219727, -0.8026217222213745, 1.8448759317398071, 11.844155311584473, 48.572715759277344, 13.513799667358398, 
535, 2525846477, 0.2116552, -0.5823085, -0.20992917, -0.7563393, 7.536862373352051, -0.03560497611761093, 1.9911760091781616, 14.590206146240234, 52.77130126953125, 12.703336715698242, 
536, 2525863144, 0.21511194, -0.57672733, -0.20859696, -0.76, 6.4348626136779785, 0.6079127192497253, 1.9780027866363525, 11.693931579589844, 48.46578598022461, 11.79827880859375, 
537, 2525879811, 0.21767296, -0.5715986, -0.20696872, -0.7635821, 5.684142112731934, 1.1215308904647827, 2.1308279037475586, 6.0420308113098145, 44.94428634643555, 9.060805320739746, 
538, 2525896478, 0.21957013, -0.5666264, -0.20584646, -0.7670403, 5.1575493812561035, 0.7922374606132507, 1.364553689956665, 6.06147575378418, 41.93251419067383, 4.015353202819824, 
539, 2525913145, 0.22093666, -0.56221956, -0.20603697, -0.76983434, 4.705958366394043, -0.17431838810443878, 0.6765929460525513, 10.99144458770752, 33.63505554199219, -2.09151029586792, 
540, 2525929812, 0.2214943, -0.5609549, -0.20887889, -0.7698308, 5.300447463989258, -1.1053276062011719, 1.0213011503219604, 21.03267478942871, 1.0252524614334106, -7.94415807723999, 
541, 2525946479, 0.22159636, -0.562056, -0.21361673, -0.76769525, 6.51414680480957, -1.2804944515228271, 2.5571200847625732, 28.822965621948242, -23.24545669555664, -11.022130012512207, 
542, 2525963146, 0.22120598, -0.56471056, -0.21784136, -0.76466674, 8.228363037109375, -0.29784029722213745, 4.137024402618408, 23.130016326904297, -34.84291458129883, -8.025527954101562, 
543, 2525979813, 0.2208358, -0.5686717, -0.22015476, -0.7611676, 9.911910057067871, 1.6627107858657837, 5.688433647155762, 11.920674324035645, -40.61591339111328, 2.176619529724121, 
544, 2525996480, 0.22086631, -0.5728059, -0.21865629, -0.75848603, 11.38119125366211, 3.4890220165252686, 6.851569652557373, -7.983191967010498, -31.962993621826172, 18.20140838623047, 
545, 2526013147, 0.22165766, -0.5752171, -0.21329446, -0.757957, 10.551321029663086, 3.829658031463623, 6.030705451965332, -25.746570587158203, -7.531671047210693, 31.55562400817871, 
546, 2526029814, 0.22269385, -0.5770026, -0.20777383, -0.7578296, 8.119583129882812, 1.8993390798568726, 4.881803035736084, -25.30756187438965, -2.1168951988220215, 31.94407844543457, 
547, 2526046481, 0.2238514, -0.57885593, -0.2039161, -0.7571226, 7.934830665588379, -0.3922412693500519, 4.800351619720459, -15.310282707214355, -7.164121627807617, 27.01449966430664, 
548, 2526063148, 0.2256913, -0.580153, -0.20156541, -0.75621253, 8.188922882080078, -1.5052882432937622, 4.118162155151367, -3.6811740398406982, -6.468481540679932, 24.06836700439453, 
549, 2526079815, 0.22817905, -0.5822978, -0.20116656, -0.7539203, 9.078557014465332, -0.9103918075561523, 4.056662559509277, 9.688759803771973, -18.5382137298584, 22.958538055419922, 
550, 2526096482, 0.23086919, -0.58494353, -0.20188923, -0.75085366, 10.261107444763184, 0.7541163563728333, 4.448365211486816, 16.549842834472656, -25.73025131225586, 21.398643493652344, 
551, 2526113149, 0.23319161, -0.58673286, -0.20246835, -0.74858046, 11.208423614501953, 2.729790210723877, 4.238064765930176, 14.470335006713867, -18.420305252075195, 17.6063232421875, 
552, 2526129816, 0.23425862, -0.58783764, -0.2017723, -0.7475681, 11.548649787902832, 4.176473617553711, 4.082275867462158, 2.282266616821289, -9.523272514343262, 13.370655059814453, 
553, 2526146483, 0.23312373, -0.5883573, -0.19966865, -0.7480786, 11.283123016357422, 4.000724792480469, 4.130530834197998, -14.844843864440918, -1.1542179584503174, 4.571691513061523, 
554, 2526163150, 0.22976366, -0.5877886, -0.1970515, -0.7502559, 10.544258117675781, 2.9633562564849854, 3.8805859088897705, -27.315153121948242, 8.93713092803955, -8.999210357666016, 
555, 2526179817, 0.22457907, -0.58695364, -0.19465856, -0.7530989, 10.148775100708008, 2.091374158859253, 3.7366347312927246, -33.64056396484375, 10.171502113342285, -20.603059768676758, 
556, 2526196484, 0.2184939, -0.5861717, -0.19268367, -0.75600016, 9.522082328796387, 1.678067684173584, 3.7007195949554443, -35.506813049316406, 8.266327857971191, -27.026426315307617, 
557, 2526213151, 0.21168247, -0.5857925, -0.19034562, -0.7588191, 9.083836555480957, 1.3867387771606445, 3.723541259765625, -40.08620834350586, 5.436585426330566, -28.470481872558594, 
558, 2526229818, 0.20472698, -0.58536977, -0.18745506, -0.76176775, 8.917434692382812, 1.2355183362960815, 3.6245155334472656, -44.367156982421875, 6.765909671783447, -27.444042205810547, 
559, 2526246485, 0.19777949, -0.58463204, -0.1840591, -0.7649907, 8.798800468444824, 1.1840317249298096, 3.3746140003204346, -46.94392013549805, 10.229262351989746, -26.178695678710938, 
560, 2526263152, 0.19061826, -0.583891, -0.18066834, -0.7681765, 8.739699363708496, 1.315590262413025, 3.232403039932251, -47.30781555175781, 9.83016300201416, -27.160804748535156, 
561, 2526279819, 0.18315983, -0.58322024, -0.1775777, -0.7712153, 8.838346481323242, 1.5481246709823608, 3.2470970153808594, -47.357845306396484, 8.074872970581055, -29.81700325012207, 
562, 2526296486, 0.17524678, -0.58232194, -0.17421778, -0.774492, 8.908726692199707, 1.7883923053741455, 3.3579623699188232, -50.58836364746094, 10.014970779418945, -31.721471786499023, 
563, 2526313153, 0.16687469, -0.58165133, -0.17026135, -0.77771825, 8.73129940032959, 2.0399365425109863, 3.4727718830108643, -56.30341339111328, 8.732749938964844, -31.596223831176758, 
564, 2526329820, 0.1578277, -0.5816631, -0.16564262, -0.7805902, 8.64588737487793, 2.1159608364105225, 3.2975192070007324, -62.15129852294922, 3.674940586090088, -31.117101669311523, 
565, 2526346487, 0.14816424, -0.5821302, -0.16052961, -0.7831999, 8.401165962219238, 2.264150857925415, 3.2800521850585938, -67.45331573486328, 0.013696658425033092, -31.644018173217773, 
566, 2526363154, 0.13796031, -0.5828654, -0.15497482, -0.78563213, 8.108363151550293, 2.373065948486328, 3.2189533710479736, -72.47125244140625, -2.3227968215942383, -32.43635177612305, 
567, 2526379821, 0.12692676, -0.58441156, -0.14897068, -0.7875029, 8.116010665893555, 2.1062769889831543, 3.291910409927368, -78.13931274414062, -9.39768123626709, -33.6419563293457, 
568, 2526396488, 0.11513789, -0.5870478, -0.14268768, -0.78851664, 8.356142044067383, 1.563716173171997, 3.367347478866577, -82.7257080078125, -19.278200149536133, -34.74418640136719, 
569, 2526413155, 0.10308865, -0.59053284, -0.13643248, -0.78868866, 9.06491470336914, 0.9576983451843262, 3.154057025909424, -83.47478485107422, -27.561994552612305, -34.78545379638672, 
570, 2526429822, 0.091093585, -0.5939698, -0.13053785, -0.7885822, 10.478517532348633, 0.6929385662078857, 2.927675247192383, -80.9062728881836, -28.631376266479492, -35.796119689941406, 
571, 2526446489, 0.0797089, -0.59623677, -0.12529822, -0.7889542, 11.731340408325195, 0.7471628785133362, 2.7271695137023926, -75.00128936767578, -20.231088638305664, -36.67116928100586, 
572, 2526463156, 0.06963418, -0.5954284, -0.11954476, -0.79140717, 11.667513847351074, 0.7628125548362732, 2.6381311416625977, -71.73210144042969, 6.47373104095459, -31.0342960357666, 
573, 2526479823, 0.061307143, -0.5931971, -0.11277748, -0.7947578, 10.461076736450195, 0.5566416382789612, 2.6313672065734863, -70.79653930664062, 19.76508903503418, -19.19471549987793, 
574, 2526496490, 0.0549331, -0.5905391, -0.10519184, -0.79823613, 9.423630714416504, 0.3406919240951538, 2.8130037784576416, -67.15950012207031, 24.493309020996094, -5.573526859283447, 
575, 2526513157, 0.050393414, -0.58852863, -0.09744449, -0.8009988, 8.622660636901855, 0.13295409083366394, 2.874279737472534, -60.824398040771484, 19.384531021118164, 5.702615737915039, 
576, 2526529824, 0.0468566, -0.5881707, -0.089918084, -0.80235547, 8.521353721618652, 0.03155181556940079, 3.1086158752441406, -54.397682189941406, 5.259491443634033, 12.164443969726562, 
577, 2526546491, 0.04383488, -0.5887921, -0.08314762, -0.80280066, 8.845094680786133, -0.061302244663238525, 3.473748207092285, -48.01205062866211, -3.7611680030822754, 12.790780067443848, 
578, 2526563158, 0.041123215, -0.58972657, -0.0778263, -0.80279183, 9.21413803100586, -0.21684524416923523, 3.695335865020752, -38.58631134033203, -7.587970733642578, 8.936135292053223, 
579, 2526579825, 0.03862145, -0.59092844, -0.074319966, -0.8023644, 9.794581413269043, -0.45880135893821716, 3.9264187812805176, -27.450469970703125, -11.155658721923828, 3.0194203853607178, 
580, 2526596492, 0.036439337, -0.59108305, -0.07238023, -0.80253, 10.341485023498535, -0.41672447323799133, 3.9971981048583984, -17.587491989135742, -3.2280616760253906, -2.309282064437866, 
581, 2526613159, 0.034840774, -0.58954793, -0.071508035, -0.8038074, 10.29691219329834, 0.08262564986944199, 3.9667677879333496, -9.486912727355957, 10.632793426513672, -4.5721516609191895, 
582, 2526629826, 0.033759203, -0.5869968, -0.07078817, -0.8057817, 9.612863540649414, 0.8827846646308899, 3.7204408645629883, -6.541031360626221, 19.295333862304688, -2.9702961444854736, 
583, 2526646493, 0.03298771, -0.58402383, -0.069519915, -0.80808127, 8.76029109954834, 1.6655371189117432, 3.670257568359375, -8.848207473754883, 23.195545196533203, 0.5229676365852356, 
584, 2526663160, 0.031870667, -0.5814112, -0.067054816, -0.8102155, 8.023553848266602, 2.0847907066345215, 3.720127582550049, -16.583520889282227, 20.653329849243164, 3.735474109649658, 
585, 2526679827, 0.029942812, -0.5797345, -0.06332688, -0.8117888, 7.9227399826049805, 1.885770559310913, 3.576704502105713, -26.69350814819336, 13.10190200805664, 4.876871585845947, 
586, 2526696494, 0.02699355, -0.5791565, -0.05863875, -0.8126564, 8.10536003112793, 1.422516107559204, 3.6037814617156982, -36.05202865600586, 3.907625913619995, 3.6345677375793457, 
587, 2526713161, 0.02315286, -0.5794346, -0.053782452, -0.8129126, 8.95801830291748, 0.8942322134971619, 3.925729513168335, -40.54702377319336, -3.643709182739258, -0.2499942183494568, 
588, 2526729828, 0.018568134, -0.5794679, -0.04924532, -0.813294, 9.978433609008789, 0.5295301675796509, 4.265023231506348, -41.70515060424805, -2.1027259826660156, -5.784088134765625, 
589, 2526746495, 0.013385948, -0.5785772, -0.045123786, -0.8142686, 10.747269630432129, 0.6340779662132263, 4.483098983764648, -41.803314208984375, 5.17387056350708, -11.162229537963867, 
590, 2526763162, 0.007708854, -0.5760507, -0.041055307, -0.8163461, 10.642755508422852, 0.7194033265113831, 4.500260829925537, -43.701072692871094, 18.5596923828125, -14.774725914001465, 
591, 2526779829, 0.0013522604, -0.57262224, -0.03631102, -0.8190137, 9.726316452026367, 0.8305273652076721, 4.191115379333496, -49.68711853027344, 25.828134536743164, -15.96776294708252, 
592, 2526796496, -0.0056511564, -0.56865907, -0.03100429, -0.8219694, 8.835651397705078, 0.7423925995826721, 3.9694268703460693, -55.85707092285156, 29.804250717163086, -17.687564849853516, 
593, 2526813163, -0.013369412, -0.56486696, -0.025165834, -0.82468975, 8.313478469848633, 0.7143926620483398, 3.893010377883911, -61.5359001159668, 27.748275756835938, -19.60116195678711, 
594, 2526829830, -0.02132125, -0.56181633, -0.0190042, -0.82676893, 8.190873146057129, 0.43932169675827026, 3.5840046405792236, -64.66336822509766, 20.966333389282227, -19.845109939575195, 
595, 2526846497, -0.02932904, -0.5599611, -0.012865753, -0.82789975, 8.294343948364258, -0.11013803631067276, 3.2400996685028076, -64.19461822509766, 10.518391609191895, -20.14373016357422, 
596, 2526863164, -0.037432794, -0.55944264, -0.006822705, -0.8279954, 8.624719619750977, -0.4809330999851227, 3.0904159545898438, -63.129730224609375, -1.036946177482605, -20.94033432006836, 
597, 2526879831, -0.045392208, -0.5594655, -0.0011809684, -0.8276089, 9.115174293518066, -0.634711503982544, 3.0524821281433105, -60.15457534790039, -5.852484226226807, -21.79454803466797, 
598, 2526896498, -0.052970797, -0.55964357, 0.0042849337, -0.82702774, 9.552251815795898, -0.4552825391292572, 3.147772789001465, -58.266563415527344, -7.428795337677002, -20.65579605102539, 
599, 2526913165, -0.060366318, -0.5591386, 0.010003529, -0.82681316, 9.888179779052734, -0.0737261101603508, 3.1566741466522217, -58.83182144165039, -2.203554153442383, -18.336055755615234, 
600, 2526929832, -0.06798437, -0.5583883, 0.016079418, -0.8266331, 9.726329803466797, 0.3773811459541321, 3.2972404956817627, -62.01076126098633, -0.7980523109436035, -18.295433044433594, 
601, 2526946499, -0.07642016, -0.5566007, 0.022470014, -0.8269528, 9.35015869140625, 0.6426213383674622, 3.1698243618011475, -67.3501968383789, 6.977324962615967, -21.390544891357422, 
602, 2526963166, -0.085844465, -0.55468285, 0.029102633, -0.8271099, 9.003741264343262, 0.7472594976425171, 3.2649152278900146, -72.12116241455078, 7.151427268981934, -25.950586318969727, 
603, 2526979833, -0.09598045, -0.55270404, 0.03562571, -0.8270652, 8.889009475708008, 0.4263562262058258, 3.233936071395874, -74.73886108398438, 6.939416408538818, -30.724414825439453, 
604, 2526996500, -0.10670729, -0.55096734, 0.04190716, -0.8266152, 8.83320140838623, 0.07258249074220657, 3.1605427265167236, -75.64178466796875, 4.342131614685059, -35.38176727294922, 
605, 2527013167, -0.11778619, -0.5498528, 0.048201483, -0.82550895, 8.9002103805542, 0.07293200492858887, 3.2850637435913086, -76.66627502441406, -1.5683958530426025, -37.95946502685547, 
606, 2527029834, -0.12908049, -0.548657, 0.05450267, -0.8242228, 9.015076637268066, 0.24363696575164795, 3.391014814376831, -77.78254699707031, -1.7056593894958496, -39.35026550292969, 
607, 2527046501, -0.14092746, -0.54744524, 0.061022893, -0.82262975, 9.087542533874512, 0.3683258295059204, 3.3295276165008545, -81.40597534179688, -2.7488489151000977, -42.01198959350586, 
608, 2527063168, -0.15355758, -0.5462622, 0.067965895, -0.8206086, 9.266134262084961, 0.5669269561767578, 3.356933116912842, -86.5275650024414, -4.572110176086426, -45.12387466430664, 
609, 2527079835, -0.1668169, -0.5448326, 0.07513196, -0.8183428, 9.410542488098145, 0.6747044324874878, 3.3418140411376953, -90.7466812133789, -4.028450965881348, -48.09123229980469, 
610, 2527096502, -0.18068635, -0.5429691, 0.08253051, -0.8159203, 9.276611328125, 0.623722493648529, 3.3996951580047607, -94.83953094482422, -2.101492404937744, -50.58290100097656, 
611, 2527113169, -0.19505759, -0.5408733, 0.0902904, -0.8131769, 9.217419624328613, 0.40276238322257996, 3.518259048461914, -99.48137664794922, -2.149231433868408, -52.4470100402832, 
612, 2527129836, -0.20959684, -0.5386132, 0.09825974, -0.8101299, 9.115803718566895, 0.18954312801361084, 3.4751343727111816, -102.3193588256836, -2.541347026824951, -53.20969772338867, 
613, 2527146503, -0.22426854, -0.5363947, 0.10644604, -0.8066311, 9.174062728881836, 0.047161832451820374, 3.432307004928589, -103.42269134521484, -4.614169120788574, -53.46141052246094, 
614, 2527163170, -0.23904279, -0.5340192, 0.114589654, -0.8028396, 9.126189231872559, 0.03517768159508705, 3.3867990970611572, -103.32720947265625, -4.625324726104736, -54.23074722290039, 
615, 2527179837, -0.25395358, -0.5314996, 0.122754514, -0.7987159, 8.953544616699219, 0.14566825330257416, 3.283489465713501, -104.2322998046875, -4.942252159118652, -55.25843048095703, 
616, 2527196504, -0.26902977, -0.52863157, 0.13096108, -0.79436827, 8.815001487731934, 0.2951035797595978, 3.141449451446533, -106.3706283569336, -3.7821643352508545, -56.35026550292969, 
617, 2527213171, -0.2841564, -0.5256112, 0.13917597, -0.7896949, 8.652986526489258, 0.436274915933609, 3.1865742206573486, -107.57860565185547, -4.099014759063721, -57.25364303588867, 
618, 2527229838, -0.29932082, -0.52282315, 0.14758863, -0.7843982, 8.593439102172852, 0.4824603796005249, 3.1007518768310547, -108.41303253173828, -7.909982204437256, -57.95920944213867, 
619, 2527246505, -0.31458178, -0.5207674, 0.15629402, -0.7780822, 8.785511016845703, 0.4558073878288269, 2.958559513092041, -110.33069610595703, -16.028257369995117, -60.48506164550781, 
620, 2527263172, -0.3302562, -0.5189031, 0.16489953, -0.77102435, 9.1060791015625, 0.3315351605415344, 2.9975173473358154, -112.2192153930664, -19.056306838989258, -65.12216186523438, 
621, 2527279839, -0.3464188, -0.5170883, 0.17325203, -0.76328087, 9.315073013305664, 0.1192733570933342, 2.7485790252685547, -112.76374816894531, -20.575679779052734, -70.00122833251953, 
622, 2527296506, -0.3626661, -0.5156806, 0.18097124, -0.7548486, 9.573225975036621, -0.09757380187511444, 2.4228835105895996, -109.51701354980469, -23.513830184936523, -74.79871368408203, 
623, 2527313173, -0.37870014, -0.51445705, 0.18809804, -0.74601555, 9.73301887512207, -0.06503154337406158, 2.3001315593719482, -105.93034362792969, -24.66149139404297, -77.11981964111328, 
624, 2527329840, -0.39407313, -0.5131467, 0.19534023, -0.73704076, 9.982460975646973, 0.10731096565723419, 2.499659776687622, -104.2503662109375, -25.80722999572754, -73.43899536132812, 
625, 2527346507, -0.40856692, -0.5111176, 0.20279716, -0.728495, 10.069109916687012, 0.0028971098363399506, 2.2274653911590576, -104.4583511352539, -22.46205711364746, -66.47003936767578, 
626, 2527363174, -0.42227373, -0.5087331, 0.21043126, -0.720135, 9.799161911010742, -0.3237151801586151, 2.104875087738037, -102.88338470458984, -21.54697036743164, -60.70989227294922, 
627, 2527379841, -0.4346626, -0.50692934, 0.21805988, -0.7117171, 9.605063438415527, -0.684214174747467, 2.406059980392456, -98.12866973876953, -26.644094467163086, -55.8436279296875, 
628, 2527396508, -0.44611946, -0.50555664, 0.22608848, -0.7030462, 9.476317405700684, -1.0941728353500366, 3.1443636417388916, -93.99365997314453, -31.98703384399414, -50.491355895996094, 
629, 2527413175, -0.4565344, -0.5044424, 0.23469342, -0.69428605, 9.653709411621094, -0.7792063355445862, 3.4862513542175293, -92.24628448486328, -36.88197326660156, -44.03825378417969, 
630, 2527429842, -0.465643, -0.5040747, 0.24492984, -0.684905, 9.931313514709473, 0.2503567934036255, 3.7891154289245605, -94.69048309326172, -49.869380950927734, -35.52461242675781, 
631, 2527446509, -0.47393826, -0.50397766, 0.2567581, -0.6748811, 10.67515754699707, 1.507868766784668, 3.654924154281616, -99.80509185791016, -59.84605026245117, -28.776735305786133, 
632, 2527463176, -0.48276228, -0.50281525, 0.26846626, -0.6648634, 11.47122573852539, 1.9797762632369995, 3.395017385482788, -105.65605926513672, -53.65877151489258, -30.141069412231445, 
633, 2527479843, -0.49327898, -0.49990627, 0.27974597, -0.6546082, 11.178889274597168, 0.8025344610214233, 3.5231387615203857, -114.10298156738281, -41.7348747253418, -36.292869567871094, 
634, 2527496510, -0.5046567, -0.495292, 0.29026982, -0.6447876, 10.837867736816406, -0.6825835704803467, 3.2581536769866943, -118.55062866210938, -28.316722869873047, -37.9880485534668, 
635, 2527513177, -0.51503915, -0.49060538, 0.29996598, -0.6356586, 10.214674949645996, -1.0663057565689087, 3.5118143558502197, -111.27738952636719, -24.83306121826172, -34.174774169921875, 
636, 2527529844, -0.5241378, -0.4857767, 0.30966043, -0.62722486, 9.664655685424805, -0.15972602367401123, 4.082052230834961, -105.40066528320312, -24.42879295349121, -25.61345672607422, 
637, 2527546511, -0.53215396, -0.48071045, 0.31998137, -0.6191459, 9.180082321166992, 0.9330950975418091, 4.151673316955566, -104.76774597167969, -26.791990280151367, -17.12775421142578, 
638, 2527563178, -0.54027766, -0.4746554, 0.33044225, -0.6112367, 8.704720497131348, 1.933207392692566, 3.935105085372925, -109.23103332519531, -22.315824508666992, -14.402917861938477, 
639, 2527579845, -0.5494388, -0.46765754, 0.34062412, -0.60281736, 8.350069046020508, 2.879932403564453, 3.682426691055298, -114.833251953125, -16.500158309936523, -18.9794864654541, 
640, 2527596512, -0.55980283, -0.46019104, 0.3504187, -0.5933397, 8.563886642456055, 3.198914051055908, 3.6594395637512207, -121.70279693603516, -13.704144477844238, -28.19756317138672, 
641, 2527613179, -0.57105696, -0.45282704, 0.35982764, -0.5825511, 9.22142219543457, 2.7137601375579834, 3.2931089401245117, -127.46440124511719, -14.780065536499023, -38.88031005859375, 
642, 2527629846, -0.5827178, -0.44627866, 0.36894128, -0.5702262, 9.924620628356934, 1.791292667388916, 2.9142115116119385, -126.58860778808594, -20.517738342285156, -48.93467712402344, 
643, 2527646513, -0.5936521, -0.44109195, 0.3777053, -0.557094, 10.41547966003418, 0.9910343885421753, 2.772810459136963, -119.26293182373047, -28.727380752563477, -53.72078323364258, 
644, 2527663180, -0.6042372, -0.43613625, 0.3855532, -0.5440875, 10.94680118560791, 0.7060611248016357, 2.9883346557617188, -113.64159393310547, -26.3964900970459, -55.30514907836914, 
