sep=,
DeviceTag:,R Forearm - 9,,,,,,,,,,,,,,,,,
FirmwareVersion:,3.0.0,,,,,,,,,,,,,,,,,
AppVersion:,2023.6.1,,,,,,,,,,,,,,,,,
StartTime:,2024-05-23 11:49:42.000 +0200,,,,,,,,,,,,,,,,,
 2024,,,,,,,,,,,,,,,,,,,

PacketCounter,SampleTimeFine,Quat_W,Quat_X,Quat_Y,Quat_Z,Acc_X,Acc_Y,Acc_Z,Gyr_X,Gyr_Y,Gyr_Z,
0, 2501200937, 0.61921513, -0.62202436, -0.41811657, -0.23417263, 0.0, 0.0, 0.0, 0.0, 0.0, 0.0, 
1, 2501217604, 0.61692554, -0.62537813, -0.41739234, -0.2325699, 8.162271499633789, -5.809134006500244, -1.6155083179473877, -18.98857879638672, -2.657846212387085, 8.042059898376465, 
2, 2501234271, 0.61277294, -0.62972, -0.41727945, -0.23203439, 7.992504119873047, -5.3864359855651855, -2.030907154083252, -16.399856567382812, -4.69048547744751, 7.048323154449463, 
3, 2501250938, 0.6063644, -0.63405466, -0.4201519, -0.23188268, 8.179550170898438, -5.081734657287598, -1.3269411325454712, -14.738518714904785, -4.812168598175049, 4.027247905731201, 
4, 2501267605, 0.6022125, -0.63531584, -0.42260054, -0.23478262, 7.939422607421875, -4.7983479499816895, -1.3142255544662476, -21.20241928100586, -0.8638153672218323, 1.544569969177246, 
5, 2501284272, 0.5986983, -0.63576204, -0.42469606, -0.23874788, 7.979734897613525, -5.011847972869873, -1.516892433166504, -27.315462112426758, 0.34041282534599304, -1.0926917791366577, 
6, 2501300939, 0.5955523, -0.6363129, -0.42620775, -0.24242683, 8.143362998962402, -5.475758075714111, -1.6693695783615112, -28.981815338134766, 1.8877577781677246, -2.588106870651245, 
7, 2501317606, 0.59313655, -0.6368767, -0.42733938, -0.24486385, 8.126625061035156, -5.489818572998047, -1.8588013648986816, -24.554948806762695, 1.1179903745651245, -3.2442524433135986, 
8, 2501334273, 0.5910194, -0.63762677, -0.4282266, -0.24647576, 8.256211280822754, -5.6919732093811035, -1.6370121240615845, -20.113924026489258, -0.3926176130771637, -3.4534800052642822, 
9, 2501350940, 0.58983856, -0.63801265, -0.42867446, -0.2475254, 8.430632591247559, -5.526889324188232, -1.3513820171356201, -15.712058067321777, 1.789259672164917, -2.5269761085510254, 
10, 2501367607, 0.58941287, -0.63763016, -0.42931142, -0.24841914, 7.820760250091553, -5.126046180725098, -2.3301591873168945, -8.421369552612305, 0.5436617732048035, -4.97177267074585, 
11, 2501384274, 0.5884472, -0.637617, -0.43058488, -0.2485381, 8.096802711486816, -5.343613147735596, -2.204746961593628, -5.976160526275635, -4.587030410766602, -5.284656524658203, 
12, 2501400941, 0.5880897, -0.6370565, -0.43207157, -0.24824151, 8.502808570861816, -5.1538496017456055, -1.5729670524597168, 0.9675263166427612, -3.0050361156463623, -5.703513145446777, 
13, 2501417608, 0.5873202, -0.6368361, -0.43303335, -0.2489517, 8.49330997467041, -4.254307270050049, -1.0917425155639648, -6.023018836975098, -0.1938241422176361, -6.487940788269043, 
14, 2501434275, 0.585128, -0.63792986, -0.43319824, -0.25101846, 8.341657638549805, -5.135448455810547, -1.751845121383667, -23.412628173828125, 0.14660097658634186, -4.386824131011963, 
15, 2501450942, 0.58339804, -0.63864225, -0.43356836, -0.25258923, 8.331327438354492, -5.684155464172363, -1.6899598836898804, -18.574865341186523, -0.3760461211204529, -4.057620048522949, 
16, 2501467609, 0.5828553, -0.63836944, -0.4339912, -0.25380316, 8.138198852539062, -5.306846618652344, -1.5323538780212402, -7.898983955383301, 2.5774643421173096, -5.459540367126465, 
17, 2501484276, 0.5816287, -0.63877827, -0.43397814, -0.25560433, 8.325579643249512, -4.790130138397217, -1.4802777767181396, -14.503575325012207, 2.242208242416382, -6.243396282196045, 
18, 2501500943, 0.5801651, -0.6395611, -0.43356493, -0.2576655, 8.519262313842773, -5.513915538787842, -1.5542558431625366, -19.314449310302734, 3.7982213497161865, -4.3167314529418945, 
19, 2501517610, 0.57948875, -0.6398073, -0.433415, -0.25882655, 8.362871170043945, -5.566293239593506, -2.034280776977539, -13.47262191772461, 3.615997076034546, -2.0717740058898926, 
20, 2501534277, 0.57876086, -0.64038527, -0.432875, -0.2599266, 8.375899314880371, -5.514850616455078, -1.6561957597732544, -11.588805198669434, 2.3476035594940186, -0.7571629881858826, 
21, 2501550944, 0.5794115, -0.639579, -0.43298897, -0.26027238, 8.05648422241211, -5.4360857009887695, -1.9478845596313477, 1.8203649520874023, 3.914088249206543, -2.3996410369873047, 
22, 2501567611, 0.57962894, -0.63906604, -0.43321002, -0.2606802, 8.092155456542969, -4.730658531188965, -1.8835948705673218, -0.30666086077690125, 1.8221194744110107, -3.674436092376709, 
23, 2501584278, 0.57963884, -0.6387636, -0.43323916, -0.2613501, 8.272637367248535, -5.108500003814697, -1.8539416790008545, -2.67557954788208, 2.811691999435425, -3.416170358657837, 
24, 2501600945, 0.5794141, -0.63865507, -0.43313697, -0.26228103, 8.283554077148438, -4.949888229370117, -1.9214584827423096, -5.589972496032715, 3.7016568183898926, -3.6932878494262695, 
25, 2501617612, 0.5790851, -0.6386665, -0.4330386, -0.2631413, 8.23167610168457, -5.210755348205566, -2.037386894226074, -6.463545322418213, 3.2016453742980957, -3.0951926708221436, 
26, 2501634279, 0.5789594, -0.6385518, -0.4329107, -0.26390547, 8.206987380981445, -5.175137519836426, -2.1338415145874023, -2.5236449241638184, 2.6299571990966797, -3.2167375087738037, 
27, 2501650946, 0.5790953, -0.6380509, -0.43326402, -0.26423874, 8.207330703735352, -5.180118560791016, -2.0635364055633545, 0.9009843468666077, 1.50459885597229, -4.035895824432373, 
28, 2501667613, 0.5795373, -0.63715094, -0.43391874, -0.26436692, 8.154094696044922, -5.135706424713135, -1.8152093887329102, 4.102290153503418, 1.8088524341583252, -5.043140888214111, 
29, 2501684280, 0.57972336, -0.6363972, -0.43440259, -0.26497915, 8.261587142944336, -4.835843563079834, -1.5946433544158936, 2.219001293182373, 2.646451711654663, -6.678396701812744, 
30, 2501700947, 0.5792494, -0.63619816, -0.43457285, -0.26621172, 8.350090980529785, -4.909587383270264, -1.4944584369659424, -5.189543724060059, 3.4462597370147705, -7.2415056228637695, 
31, 2501717614, 0.5785338, -0.63625634, -0.434278, -0.26810297, 8.362968444824219, -5.093635082244873, -1.399531364440918, -8.377022743225098, 5.798366546630859, -7.82451868057251, 
32, 2501734281, 0.57796973, -0.636057, -0.43418124, -0.26994282, 8.436415672302246, -5.1796956062316895, -1.535401701927185, -8.438005447387695, 6.8629584312438965, -8.522629737854004, 
33, 2501750948, 0.5775907, -0.6357239, -0.43419504, -0.27151206, 8.572163581848145, -5.3529887199401855, -1.7848166227340698, -6.1761980056762695, 5.9944047927856445, -8.032479286193848, 
34, 2501767615, 0.5775162, -0.6352259, -0.43441328, -0.2724855, 8.591726303100586, -5.3421454429626465, -1.9192978143692017, -2.2127201557159424, 3.9345147609710693, -6.537104606628418, 
35, 2501784282, 0.5776824, -0.63463736, -0.4346722, -0.27309132, 8.572683334350586, -5.071932315826416, -1.740936040878296, 0.4543757140636444, 3.1058919429779053, -5.165556907653809, 
36, 2501800949, 0.57772994, -0.634335, -0.43452597, -0.27392423, 8.525400161743164, -4.830568790435791, -1.673047423362732, -0.05760296806693077, 3.3322060108184814, -4.207206726074219, 
37, 2501817616, 0.5777965, -0.6340314, -0.4344492, -0.27460772, 8.50078010559082, -4.682864665985107, -1.7457561492919922, -1.1884421110153198, 3.51867938041687, -3.416273355484009, 
38, 2501834283, 0.5777076, -0.6339114, -0.4342934, -0.2753174, 8.549745559692383, -4.623659133911133, -1.8469611406326294, -3.1294755935668945, 3.3618531227111816, -2.743222951889038, 
39, 2501850950, 0.5776281, -0.63384116, -0.43415433, -0.27586523, 8.549431800842285, -4.719094276428223, -1.9318344593048096, -3.1343801021575928, 2.823230504989624, -1.8054648637771606, 
40, 2501867617, 0.5775839, -0.63387036, -0.4337261, -0.27656275, 8.602747917175293, -4.671682357788086, -1.7539204359054565, -1.4138338565826416, 2.9373602867126465, -1.3214359283447266, 
41, 2501884284, 0.57768613, -0.6337513, -0.4334331, -0.27708095, 8.565045356750488, -4.563635349273682, -1.6735601425170898, -1.6771577596664429, 3.684521198272705, -0.7953382730484009, 
42, 2501900951, 0.5777257, -0.63367605, -0.4331087, -0.27767769, 8.58815860748291, -4.488051414489746, -1.6574734449386597, -2.3789079189300537, 3.8665385246276855, -0.8754933476448059, 
43, 2501917618, 0.57754487, -0.633756, -0.43275803, -0.2784167, 8.635566711425781, -4.398589611053467, -1.7222801446914673, -3.7754015922546387, 3.2738730907440186, -1.3169410228729248, 
44, 2501934285, 0.5771086, -0.6339884, -0.4325184, -0.2791634, 8.648125648498535, -4.446586608886719, -1.809576153755188, -5.63014554977417, 2.026380777359009, -1.68258798122406, 
45, 2501950952, 0.5766222, -0.6342902, -0.43228048, -0.2798508, 8.636648178100586, -4.561317443847656, -1.8341498374938965, -5.571351528167725, 1.3147960901260376, -1.3257391452789307, 
46, 2501967619, 0.5762541, -0.63450444, -0.43202275, -0.28052047, 8.608564376831055, -4.506989479064941, -1.700911045074463, -4.311680793762207, 1.6650241613388062, -1.226502776145935, 
47, 2501984286, 0.57587063, -0.63466346, -0.4317928, -0.28130096, 8.519200325012207, -4.476929664611816, -1.6311839818954468, -4.528876304626465, 2.1620004177093506, -1.9070707559585571, 
48, 2502000953, 0.57543665, -0.6348018, -0.43160194, -0.28216878, 8.523950576782227, -4.583014488220215, -1.6367847919464111, -5.198021411895752, 2.4720165729522705, -2.4706013202667236, 
49, 2502017620, 0.57503486, -0.634906, -0.4313703, -0.2831058, 8.585522651672363, -4.674158096313477, -1.6325229406356812, -5.216116428375244, 3.0999629497528076, -2.589367628097534, 
50, 2502034287, 0.5747278, -0.6349661, -0.43107888, -0.2840375, 8.612811088562012, -4.859869003295898, -1.7058005332946777, -4.562249660491943, 3.571415901184082, -2.291491746902466, 
51, 2502050954, 0.57491267, -0.6345228, -0.4310348, -0.2847195, 8.5343599319458, -4.780677318572998, -1.6143258810043335, 0.09669435024261475, 4.342281341552734, -2.8041939735412598, 
52, 2502067621, 0.57510483, -0.6339451, -0.43116465, -0.28542122, 8.441423416137695, -4.672320365905762, -1.6573508977890015, 1.140655279159546, 3.906186103820801, -4.092922210693359, 
53, 2502084288, 0.57531774, -0.6333196, -0.4311864, -0.28634623, 8.519525527954102, -4.659261226654053, -1.6279571056365967, 2.5222043991088867, 4.362592697143555, -5.025301933288574, 
54, 2502100955, 0.5757822, -0.63234884, -0.4314344, -0.28718352, 8.617520332336426, -4.614609718322754, -1.4310191869735718, 3.750974655151367, 5.6015825271606445, -5.8062214851379395, 
55, 2502117622, 0.5758727, -0.6316473, -0.4314569, -0.28850886, 8.627097129821777, -4.369400978088379, -1.6059142351150513, -0.16420304775238037, 6.564914226531982, -6.830382823944092, 
56, 2502134289, 0.57583934, -0.6310856, -0.43136317, -0.28994146, 8.652287483215332, -4.670106887817383, -1.572892189025879, -1.7701964378356934, 6.835025310516357, -6.5494890213012695, 
57, 2502150956, 0.5758862, -0.6303983, -0.43139297, -0.29129618, 8.608240127563477, -4.561939239501953, -1.4980440139770508, -1.6013833284378052, 7.124463081359863, -6.778351783752441, 
58, 2502167623, 0.57562286, -0.629991, -0.4312892, -0.29284698, 8.519401550292969, -4.469785690307617, -1.5590581893920898, -4.474578380584717, 6.787143230438232, -6.849093914031982, 
59, 2502184290, 0.5752555, -0.6297453, -0.43103388, -0.2944692, 8.603436470031738, -4.7198638916015625, -1.4882452487945557, -5.736234664916992, 6.874752521514893, -6.274613857269287, 
60, 2502200957, 0.5750717, -0.6292907, -0.43089423, -0.29599988, 8.555685997009277, -4.5530853271484375, -1.540000557899475, -3.9442546367645264, 7.159398555755615, -6.629939079284668, 
61, 2502217624, 0.5747655, -0.6288698, -0.43080926, -0.2976087, 8.584236145019531, -4.4603095054626465, -1.696837306022644, -4.399341106414795, 6.682464599609375, -7.397718906402588, 
62, 2502234291, 0.574572, -0.6282998, -0.43076655, -0.29924345, 8.737792015075684, -4.530783176422119, -1.739158272743225, -2.5338141918182373, 6.8915791511535645, -8.035962104797363, 
63, 2502250958, 0.5746561, -0.6274251, -0.4309764, -0.300612, 8.770135879516602, -4.485907077789307, -1.7303228378295898, 0.08719205856323242, 6.803650379180908, -8.210601806640625, 
64, 2502267625, 0.5746272, -0.6266573, -0.4311868, -0.3019642, 8.749486923217773, -4.373266696929932, -1.7117685079574585, -0.49095720052719116, 6.060037136077881, -8.11217212677002, 
65, 2502284292, 0.5745016, -0.6259335, -0.43149555, -0.3032604, 8.706130027770996, -4.532313823699951, -1.704400897026062, -1.1418657302856445, 5.309366703033447, -8.298530578613281, 
66, 2502300959, 0.57452136, -0.6250572, -0.4318947, -0.3044602, 8.782315254211426, -4.600202560424805, -1.5958201885223389, 1.1036450862884521, 5.038564205169678, -8.56542682647705, 
67, 2502317626, 0.57468474, -0.62409276, -0.43227404, -0.30558935, 8.709939002990723, -4.592578887939453, -1.4897083044052124, 2.9650228023529053, 5.074562072753906, -8.304830551147461, 
68, 2502334293, 0.57492495, -0.6230542, -0.43275154, -0.3065794, 8.724315643310547, -4.64431095123291, -1.4661705493927002, 3.6242940425872803, 4.768721580505371, -8.164383888244629, 
69, 2502350960, 0.5752505, -0.62197894, -0.43318024, -0.30754507, 8.78442096710205, -4.575823783874512, -1.4241935014724731, 4.388821125030518, 5.053163051605225, -7.864471912384033, 
70, 2502367627, 0.57559955, -0.62092316, -0.43365794, -0.3083516, 8.83195972442627, -4.688877582550049, -1.5217535495758057, 4.516397476196289, 4.441211223602295, -7.281960964202881, 
71, 2502384294, 0.5761185, -0.61981654, -0.43417218, -0.30888417, 8.801599502563477, -4.7006449699401855, -1.5604560375213623, 6.646658897399902, 3.595224142074585, -6.229997634887695, 
72, 2502400961, 0.576689, -0.6187903, -0.4347069, -0.30912563, 8.808195114135742, -4.546840667724609, -1.50265634059906, 7.559967517852783, 2.2212042808532715, -4.867271423339844, 
73, 2502417628, 0.57708573, -0.6181157, -0.43509343, -0.3091907, 8.767287254333496, -4.547895431518555, -1.4536975622177124, 7.510855197906494, -0.12027725577354431, -3.169341564178467, 
74, 2502434295, 0.5774366, -0.6176067, -0.4355798, -0.30886754, 8.691105842590332, -4.464733600616455, -1.4283080101013184, 6.438514709472656, -1.8566008806228638, -1.4251163005828857, 
75, 2502450962, 0.57764626, -0.617332, -0.43605393, -0.3083555, 8.710922241210938, -4.386063575744629, -1.3486336469650269, 4.019881248474121, -2.8187925815582275, -0.015034656040370464, 
76, 2502467629, 0.57746947, -0.6175453, -0.4362662, -0.30795908, 8.758111953735352, -4.400842666625977, -1.344380259513855, -0.4327778220176697, -3.4905757904052734, 1.2711135149002075, 
77, 2502484296, 0.5770105, -0.6181437, -0.43622637, -0.30767545, 8.788126945495605, -4.521426677703857, -1.4198367595672607, -3.286839485168457, -4.047536373138428, 2.325575351715088, 
78, 2502500963, 0.57636786, -0.6190327, -0.43599436, -0.30742085, 8.743616104125977, -4.596174240112305, -1.4593642950057983, -4.951652526855469, -4.695666313171387, 3.3767342567443848, 
79, 2502517630, 0.5757055, -0.62002206, -0.43567976, -0.30711386, 8.73797607421875, -4.72569465637207, -1.4578243494033813, -5.505194664001465, -4.836958885192871, 4.176247596740723, 
80, 2502534297, 0.57524395, -0.62085205, -0.43547246, -0.3065958, 8.743870735168457, -4.764883041381836, -1.4356532096862793, -4.23826265335083, -4.6902241706848145, 4.641310691833496, 
81, 2502550964, 0.5748353, -0.6216336, -0.4352612, -0.30607843, 8.709921836853027, -4.74884557723999, -1.3716593980789185, -3.5048675537109375, -4.578295707702637, 4.533749103546143, 
82, 2502567631, 0.5745156, -0.62228185, -0.43509725, -0.30559385, 8.666232109069824, -4.787713527679443, -1.3221442699432373, -2.6261730194091797, -4.07080602645874, 3.965646743774414, 
83, 2502584298, 0.574389, -0.6226842, -0.43506524, -0.3050575, 8.682414054870605, -4.814595699310303, -1.2995185852050781, -0.5820485949516296, -3.636683464050293, 3.27461576461792, 
84, 2502600965, 0.57454956, -0.62281156, -0.43508652, -0.30446425, 8.625286102294922, -4.850504398345947, -1.3178685903549194, 2.4628214836120605, -2.9096803665161133, 2.937514543533325, 
85, 2502617632, 0.5749457, -0.6226598, -0.4352096, -0.30385008, 8.636652946472168, -4.656892776489258, -1.2985570430755615, 4.990513324737549, -2.198709487915039, 2.1826183795928955, 
86, 2502634299, 0.57545567, -0.62238497, -0.43543282, -0.30312708, 8.6890869140625, -4.6508636474609375, -1.3583087921142578, 6.503596305847168, -2.4880175590515137, 2.031810760498047, 
87, 2502650966, 0.57623446, -0.6218638, -0.43578842, -0.30220562, 8.717490196228027, -4.577987194061279, -1.4038697481155396, 9.454004287719727, -2.537489891052246, 2.0627517700195312, 
88, 2502667633, 0.57722664, -0.6211422, -0.4362869, -0.3010741, 8.746548652648926, -4.423213481903076, -1.4175937175750732, 11.615921020507812, -2.707404375076294, 2.206899881362915, 
89, 2502684300, 0.57821494, -0.6204006, -0.43686685, -0.29986364, 8.732746124267578, -4.257193565368652, -1.4594806432724, 12.780778884887695, -3.694289207458496, 1.9992456436157227, 
90, 2502700967, 0.57914096, -0.6196182, -0.43751124, -0.2987525, 8.748405456542969, -4.127197265625, -1.3672864437103271, 12.291727066040039, -3.515665292739868, 1.138811707496643, 
91, 2502717634, 0.5799197, -0.6189317, -0.4380661, -0.2978504, 8.856029510498047, -4.097446918487549, -1.2679802179336548, 10.483647346496582, -2.9251761436462402, 0.7052267789840698, 
92, 2502734301, 0.5805371, -0.6183895, -0.43850017, -0.2971345, 8.957859992980957, -4.1136345863342285, -1.2835466861724854, 8.583375930786133, -2.5265655517578125, 0.5952200889587402, 
93, 2502750968, 0.58109385, -0.6178673, -0.43900067, -0.2963923, 8.86711311340332, -4.115505695343018, -1.3082040548324585, 7.878345966339111, -2.857954978942871, 0.48432978987693787, 
94, 2502767635, 0.5815728, -0.6174704, -0.43944678, -0.29561818, 8.879759788513184, -4.165853500366211, -1.226023554801941, 7.2108025550842285, -3.364241600036621, 1.0709760189056396, 
95, 2502784302, 0.58200514, -0.6172267, -0.4397518, -0.2948216, 8.960290908813477, -4.128898620605469, -1.1667991876602173, 6.0858659744262695, -3.316652774810791, 2.1763815879821777, 
96, 2502800969, 0.5822136, -0.61719364, -0.43998325, -0.29413277, 8.86495304107666, -4.09537935256958, -1.160022497177124, 4.047184467315674, -3.8043696880340576, 2.2428464889526367, 
97, 2502817636, 0.5822531, -0.61726767, -0.44015417, -0.29364312, 8.752211570739746, -4.052030563354492, -1.0899550914764404, 2.5749025344848633, -3.670658588409424, 1.6577372550964355, 
98, 2502834303, 0.5820123, -0.61759514, -0.44016063, -0.29342252, 8.82818603515625, -4.089763164520264, -1.0577634572982788, -0.6505882143974304, -3.327115535736084, 1.4883092641830444, 
99, 2502850970, 0.58161193, -0.61806124, -0.44010213, -0.29332235, 8.835563659667969, -4.27213716506958, -1.078484296798706, -3.374652624130249, -2.8330211639404297, 1.5816675424575806, 
100, 2502867637, 0.581196, -0.61849254, -0.4400053, -0.29338327, 8.733752250671387, -4.406103134155273, -1.1333773136138916, -4.061137676239014, -1.9116041660308838, 1.008429765701294, 
101, 2502884304, 0.580774, -0.61889964, -0.43981826, -0.29364058, 8.717480659484863, -4.373485088348389, -1.1512119770050049, -4.101925373077393, -1.0537577867507935, 0.4183642864227295, 
102, 2502900971, 0.5803209, -0.61929804, -0.4395561, -0.29408908, 8.724872589111328, -4.409084796905518, -1.232162594795227, -4.879654407501221, -0.07581358402967453, -0.11979059129953384, 
103, 2502917638, 0.5798664, -0.6196448, -0.43931198, -0.2946186, 8.66641902923584, -4.493028163909912, -1.3801658153533936, -4.9359517097473145, 0.3171044588088989, -0.6587458252906799, 
104, 2502934305, 0.579536, -0.619785, -0.43922338, -0.2951061, 8.642084121704102, -4.473904132843018, -1.4103271961212158, -2.9773483276367188, 0.21960964798927307, -1.556791067123413, 
105, 2502950972, 0.57923377, -0.6198499, -0.4391297, -0.29570204, 8.683034896850586, -4.40613317489624, -1.3706233501434326, -2.6895766258239746, 0.8326752185821533, -2.173224449157715, 
106, 2502967639, 0.57882077, -0.6200487, -0.4389367, -0.2963796, 8.747483253479004, -4.449976921081543, -1.4026176929473877, -4.749709129333496, 1.2755573987960815, -1.7884324789047241, 
107, 2502984306, 0.57841045, -0.62028056, -0.43864194, -0.29713073, 8.764535903930664, -4.530086994171143, -1.399004578590393, -5.269044876098633, 1.9141844511032104, -1.5458674430847168, 
108, 2503000973, 0.5780442, -0.6204797, -0.43835342, -0.2978527, 8.718432426452637, -4.507059574127197, -1.428661584854126, -4.926027297973633, 1.993276596069336, -1.4581310749053955, 
109, 2503017640, 0.5776393, -0.62071574, -0.4380754, -0.29855493, 8.733457565307617, -4.498150825500488, -1.450169324874878, -4.845871925354004, 1.5221565961837769, -1.4433397054672241, 
110, 2503034307, 0.5772825, -0.6209121, -0.43790033, -0.29909286, 8.753236770629883, -4.504865646362305, -1.45856511592865, -4.412326335906982, 0.9548608064651489, -1.1494213342666626, 
111, 2503050974, 0.57692164, -0.6211131, -0.43781063, -0.29950264, 8.731844902038574, -4.488399982452393, -1.484938144683838, -4.244216442108154, 0.22977791726589203, -0.9409593343734741, 
112, 2503067641, 0.57659584, -0.6213203, -0.43778414, -0.29973873, 8.743083000183105, -4.508901119232178, -1.4766780138015747, -4.067796230316162, -0.36322644352912903, -0.32958418130874634, 
113, 2503084308, 0.5762883, -0.62159854, -0.43765044, -0.29994857, 8.772808074951172, -4.526320934295654, -1.4593126773834229, -3.3537392616271973, -0.6803756952285767, 0.29955968260765076, 
114, 2503100975, 0.57604134, -0.6218435, -0.43754223, -0.3000731, 8.740772247314453, -4.485665321350098, -1.498145580291748, -2.3995516300201416, -1.017643928527832, 0.5120298266410828, 
115, 2503117642, 0.5757948, -0.62209463, -0.4374248, -0.3001968, 8.722679138183594, -4.458010673522949, -1.5240744352340698, -1.8479433059692383, -1.2928522825241089, 0.4710239768028259, 
116, 2503134309, 0.5756235, -0.62223256, -0.43744507, -0.3002102, 8.712861061096191, -4.4457573890686035, -1.516248106956482, -1.4022952318191528, -1.3768746852874756, 0.29041600227355957, 
117, 2503150976, 0.57550025, -0.62233084, -0.437488, -0.30018032, 8.73615837097168, -4.45658540725708, -1.5106074810028076, -0.90096515417099, -1.4039474725723267, 0.3516303598880768, 
118, 2503167643, 0.5754143, -0.6223756, -0.43757808, -0.30012068, 8.74495792388916, -4.432106971740723, -1.4568911790847778, -0.5686531066894531, -1.3811776638031006, 0.22336193919181824, 
119, 2503184310, 0.57532245, -0.62243456, -0.43760282, -0.30013844, 8.722688674926758, -4.403501510620117, -1.3998322486877441, -0.3922713100910187, -1.1538519859313965, 0.12267841398715973, 
120, 2503200977, 0.5751907, -0.62256694, -0.43754724, -0.30019754, 8.730658531188965, -4.436035633087158, -1.3468799591064453, -0.5992603898048401, -1.2071521282196045, 0.35374340415000916, 
121, 2503217644, 0.5751516, -0.6226145, -0.4375486, -0.3001716, 8.7673921585083, -4.473857402801514, -1.3074394464492798, -0.15546908974647522, -1.0205250978469849, 0.4969184100627899, 
122, 2503234311, 0.5751664, -0.62262994, -0.43749523, -0.3001895, 8.822007179260254, -4.43552303314209, -1.2763375043869019, 0.5310472846031189, -0.7040034532546997, 0.4660038650035858, 
123, 2503250978, 0.57523596, -0.6225024, -0.4376118, -0.3001504, 8.822355270385742, -4.363858699798584, -1.3124712705612183, 0.6391329765319824, -0.5636971592903137, -0.13837261497974396, 
124, 2503267645, 0.57528955, -0.6223743, -0.43771356, -0.3001651, 8.828350067138672, -4.4044694900512695, -1.3436230421066284, 0.7903630137443542, -0.5356767773628235, -0.3801693022251129, 
125, 2503284312, 0.5754157, -0.6221938, -0.43781346, -0.3001519, 8.860067367553711, -4.321055889129639, -1.3375831842422485, 1.5082743167877197, -0.4045398235321045, -0.29258668422698975, 
126, 2503300979, 0.5754721, -0.6220712, -0.43785602, -0.3002357, 8.789617538452148, -4.255771160125732, -1.335149884223938, 0.9011891484260559, -0.26402848958969116, -0.44139644503593445, 
127, 2503317646, 0.5754623, -0.6219567, -0.43792704, -0.30038822, 8.74111557006836, -4.274938583374023, -1.2901551723480225, 0.12343399226665497, -0.15233151614665985, -0.8787716627120972, 
128, 2503334313, 0.5754187, -0.6217938, -0.43801865, -0.30067542, 8.747295379638672, -4.296921730041504, -1.195011019706726, 0.1283900886774063, 0.1662072092294693, -1.761385440826416, 
129, 2503350980, 0.57547235, -0.62142414, -0.43821523, -0.3010502, 8.745447158813477, -4.2632293701171875, -1.2421460151672363, 0.9383147358894348, 1.0109268426895142, -2.9056711196899414, 
130, 2503367647, 0.5754301, -0.6211395, -0.4383775, -0.30148152, 8.828686714172363, -4.299201965332031, -1.391098141670227, -0.11165857315063477, 0.9351901412010193, -2.90669584274292, 
131, 2503384314, 0.57531375, -0.62098736, -0.4385465, -0.3017709, 8.802728652954102, -4.425909996032715, -1.5711791515350342, -0.4542156457901001, -0.22800426185131073, -2.1279287338256836, 
132, 2503400981, 0.5752283, -0.6209133, -0.43878722, -0.30173674, 8.742944717407227, -4.480947017669678, -1.666152834892273, 0.9244199991226196, -2.165860891342163, -0.923286497592926, 
133, 2503417648, 0.5752267, -0.62086946, -0.43908036, -0.30140322, 8.762282371520996, -4.4009833335876465, -1.661535620689392, 2.213660717010498, -3.4598913192749023, 0.2923753559589386, 
134, 2503434315, 0.5751383, -0.62100166, -0.43930086, -0.3009779, 8.704778671264648, -4.324624061584473, -1.5800493955612183, 1.1842608451843262, -4.14109992980957, 1.3327250480651855, 
135, 2503450982, 0.5750327, -0.62109387, -0.43963304, -0.30050376, 8.582399368286133, -4.2657365798950195, -1.4875658750534058, 0.9090909361839294, -4.386546611785889, 1.0222349166870117, 
136, 2503467649, 0.5746861, -0.62135565, -0.4398102, -0.3003668, 8.621454238891602, -4.2122931480407715, -1.4288668632507324, -1.4730122089385986, -3.738724708557129, 0.25705552101135254, 
137, 2503484316, 0.5741559, -0.621785, -0.43986836, -0.30040705, 8.688806533813477, -4.45515775680542, -1.456801414489746, -4.02294921875, -3.2499194145202637, 0.2581312358379364, 
138, 2503500983, 0.5737394, -0.6220858, -0.43996748, -0.30043525, 8.712920188903809, -4.592466831207275, -1.4553189277648926, -2.6333703994750977, -2.9996187686920166, -0.07708142697811127, 
139, 2503517650, 0.5734242, -0.62229985, -0.44003215, -0.30049896, 8.756415367126465, -4.661864757537842, -1.4197601079940796, -1.5666775703430176, -2.4620590209960938, -0.21924470365047455, 
140, 2503534317, 0.5731853, -0.6225086, -0.4400651, -0.30047378, 8.918346405029297, -4.737249374389648, -1.4471052885055542, -1.7547646760940552, -2.1148533821105957, 0.5277432799339294, 
141, 2503550984, 0.5732728, -0.62252116, -0.44020978, -0.30006862, 8.860271453857422, -4.897132873535156, -1.5930343866348267, 1.2624564170837402, -2.5340306758880615, 1.7080403566360474, 
142, 2503567651, 0.5736631, -0.6221862, -0.44068807, -0.29931492, 8.711454391479492, -4.710443019866943, -1.5630507469177246, 5.9522576332092285, -3.8456060886383057, 1.1526548862457275, 
143, 2503584318, 0.57430595, -0.6216247, -0.44124645, -0.29842466, 8.711660385131836, -4.57497501373291, -1.4858933687210083, 8.337851524353027, -3.432614803314209, 1.195479393005371, 
144, 2503600985, 0.57496756, -0.62115526, -0.44161487, -0.2975817, 8.823477745056152, -4.527864456176758, -1.481297254562378, 8.273039817810059, -2.9854938983917236, 1.9964145421981812, 
145, 2503617652, 0.5756259, -0.62071204, -0.44195312, -0.29673052, 8.6725492477417, -4.434503078460693, -1.4825645685195923, 7.8343825340271, -2.8261444568634033, 2.2794606685638428, 
146, 2503634319, 0.576193, -0.6203218, -0.44230232, -0.29592457, 8.627904891967773, -4.387277603149414, -1.5342239141464233, 7.219125747680664, -3.1228415966033936, 2.009566068649292, 
147, 2503650986, 0.576716, -0.6200046, -0.4425089, -0.29526058, 8.78342342376709, -4.367392539978027, -1.4732120037078857, 6.670925617218018, -2.5540223121643066, 2.0737903118133545, 
148, 2503667653, 0.5772427, -0.6197223, -0.4426387, -0.29462898, 8.876313209533691, -4.382185459136963, -1.516829013824463, 6.072151184082031, -2.0684049129486084, 2.4341607093811035, 
149, 2503684320, 0.5778053, -0.6193736, -0.4428758, -0.2939019, 8.831683158874512, -4.4350175857543945, -1.5363948345184326, 6.457416534423828, -2.3841967582702637, 2.3336308002471924, 
150, 2503700987, 0.57844025, -0.6189532, -0.44310564, -0.29319182, 8.828994750976562, -4.323387622833252, -1.392128825187683, 7.998584270477295, -2.425407886505127, 2.0519683361053467, 
151, 2503717654, 0.5789987, -0.6185869, -0.44332188, -0.29253495, 8.83797836303711, -4.209423065185547, -1.313185691833496, 7.07035493850708, -2.3952362537384033, 1.9572012424468994, 
152, 2503734321, 0.57945406, -0.61831224, -0.4435461, -0.29187337, 8.826510429382324, -4.2253193855285645, -1.2915838956832886, 5.480651378631592, -2.543853759765625, 2.178187608718872, 
153, 2503750988, 0.5798089, -0.61813515, -0.44378537, -0.29117894, 8.780647277832031, -4.252020359039307, -1.3529342412948608, 4.785394668579102, -3.26025390625, 2.3599352836608887, 
154, 2503767655, 0.5801497, -0.61796796, -0.44406664, -0.2904251, 8.805856704711914, -4.215154647827148, -1.3869987726211548, 4.92991304397583, -3.7406325340270996, 2.441153049468994, 
155, 2503784322, 0.5803971, -0.6178737, -0.44430688, -0.28976288, 8.843903541564941, -4.194986343383789, -1.3392988443374634, 4.11923360824585, -3.743309497833252, 2.264028549194336, 
156, 2503800989, 0.580607, -0.6177864, -0.44451034, -0.28921625, 8.831148147583008, -4.271031379699707, -1.293483018875122, 3.6088743209838867, -3.2991719245910645, 1.9070513248443604, 
157, 2503817656, 0.58081144, -0.61760837, -0.44474676, -0.28882253, 8.809779167175293, -4.206396579742432, -1.2649859189987183, 3.4103503227233887, -2.559861421585083, 0.911280632019043, 
158, 2503834323, 0.5808858, -0.61749244, -0.44494167, -0.28862014, 8.84589958190918, -4.291199684143066, -1.2967305183410645, 2.027315616607666, -2.1645548343658447, 0.2580415606498718, 
159, 2503850990, 0.5810117, -0.6172718, -0.44519618, -0.2884464, 8.831060409545898, -4.369892597198486, -1.3139467239379883, 2.616433620452881, -1.8853510618209839, -0.29759395122528076, 
160, 2503867657, 0.58122224, -0.6169287, -0.44553125, -0.28823897, 8.829139709472656, -4.343962669372559, -1.2975767850875854, 3.1800920963287354, -1.5789334774017334, -0.6026796698570251, 
161, 2503884324, 0.5813617, -0.61667037, -0.4458042, -0.28808874, 8.84177017211914, -4.363723278045654, -1.330310583114624, 2.6809771060943604, -1.713553547859192, -0.5149177312850952, 
162, 2503900991, 0.58156735, -0.6163409, -0.44613996, -0.28785875, 8.803913116455078, -4.358280658721924, -1.355419397354126, 3.365669012069702, -1.8422706127166748, -0.49436360597610474, 
163, 2503917658, 0.581781, -0.6160371, -0.44637683, -0.2877101, 8.759905815124512, -4.237818241119385, -1.316514253616333, 3.435924768447876, -1.4395747184753418, -0.4008515775203705, 
164, 2503934325, 0.5818353, -0.6158723, -0.44655147, -0.2876821, 8.727075576782227, -4.173311233520508, -1.2890359163284302, 1.7583565711975098, -1.4746768474578857, -0.5007411241531372, 
165, 2503950992, 0.58179504, -0.6157877, -0.4466692, -0.28776163, 8.73404598236084, -4.260017395019531, -1.3031024932861328, 0.5735771059989929, -1.241946816444397, -0.6103890538215637, 
166, 2503967659, 0.5817621, -0.61571175, -0.44676822, -0.287837, 8.768738746643066, -4.229171276092529, -1.2518136501312256, -0.13380073010921478, -0.8353068828582764, -0.3387663662433624, 
167, 2503984326, 0.5815899, -0.61581975, -0.44675058, -0.28798142, 8.819441795349121, -4.2765326499938965, -1.2810776233673096, -2.189757823944092, -0.7374793291091919, 0.2322111427783966, 
168, 2504000993, 0.58127946, -0.61611724, -0.4465386, -0.28830054, 8.798042297363281, -4.307034969329834, -1.3283616304397583, -3.335298538208008, -0.6093645095825195, 0.47787532210350037, 
169, 2504017660, 0.58090985, -0.61643153, -0.44638017, -0.28861862, 8.789558410644531, -4.260831832885742, -1.3075693845748901, -4.218834400177002, -0.7034528255462646, 0.3202035427093506, 
170, 2504034327, 0.58038896, -0.6168872, -0.4461179, -0.2890982, 8.82772159576416, -4.275222301483154, -1.3371976613998413, -6.236078262329102, -0.30585408210754395, 0.27950504422187805, 
171, 2504050994, 0.57977295, -0.6174225, -0.44576025, -0.28974268, 8.849532127380371, -4.388433456420898, -1.2908581495285034, -7.411049842834473, 0.18951481580734253, 0.048837028443813324, 
172, 2504067661, 0.5791658, -0.61794305, -0.44538563, -0.29042247, 8.768170356750488, -4.474257469177246, -1.2695075273513794, -7.692429542541504, 0.5701451897621155, 6.083017215132713E-4, 
173, 2504084328, 0.5786232, -0.6184319, -0.44495386, -0.2911243, 8.783473014831543, -4.501985549926758, -1.3318781852722168, -7.3273210525512695, 1.061153531074524, 0.15828010439872742, 
174, 2504100995, 0.5781169, -0.61891675, -0.4445116, -0.2917747, 8.795584678649902, -4.554882049560547, -1.3885505199432373, -7.026986122131348, 0.9969808459281921, 0.46537649631500244, 
175, 2504117662, 0.5777464, -0.6192871, -0.44416237, -0.29225427, 8.783787727355957, -4.572195053100586, -1.446416974067688, -5.562758922576904, 0.6772319078445435, 0.7160351276397705, 
176, 2504134329, 0.5774547, -0.6195952, -0.44383973, -0.2926676, 8.758637428283691, -4.548403263092041, -1.462770700454712, -4.781314849853516, 0.6766811609268188, 0.8375033140182495, 
177, 2504150996, 0.5771742, -0.6199424, -0.44345796, -0.29306388, 8.736745834350586, -4.525564193725586, -1.4666401147842407, -4.387007713317871, 0.5022715330123901, 1.189037799835205, 
178, 2504167663, 0.5769694, -0.6202332, -0.44313163, -0.29334545, 8.685578346252441, -4.536305904388428, -1.5096534490585327, -3.6607470512390137, 0.2768285274505615, 1.4339208602905273, 
179, 2504184330, 0.57673454, -0.62060964, -0.4427217, -0.29362977, 8.63001823425293, -4.4681549072265625, -1.4759281873703003, -3.403595447540283, -0.10332165658473969, 1.8067138195037842, 
180, 2504200997, 0.5764315, -0.6210566, -0.44237688, -0.29379994, 8.615809440612793, -4.471903324127197, -1.5417799949645996, -4.022539138793945, -0.9290494918823242, 2.1516144275665283, 
181, 2504217664, 0.576145, -0.62148404, -0.4420994, -0.29387566, 8.611139297485352, -4.469808578491211, -1.553693175315857, -3.5895683765411377, -1.4349004030227661, 2.233792543411255, 
182, 2504234331, 0.57581127, -0.62200516, -0.44176462, -0.29393062, 8.668976783752441, -4.438996315002441, -1.5311529636383057, -4.164176940917969, -1.6537225246429443, 2.7339189052581787, 
183, 2504250998, 0.5754083, -0.622638, -0.44136643, -0.2939781, 8.669903755187988, -4.502822399139404, -1.5601145029067993, -4.600976943969727, -2.079866647720337, 3.155722141265869, 
184, 2504267665, 0.5751375, -0.6231629, -0.44105697, -0.29386005, 8.696544647216797, -4.536077976226807, -1.5943650007247925, -3.5407259464263916, -2.2004642486572266, 3.4837050437927246, 
185, 2504284332, 0.5749723, -0.62360746, -0.4408202, -0.29359576, 8.768074989318848, -4.492824077606201, -1.5357751846313477, -2.53499174118042, -2.444962978363037, 3.7835533618927, 
186, 2504300999, 0.5748112, -0.6240822, -0.44053555, -0.2933294, 8.755613327026367, -4.479800701141357, -1.4533429145812988, -2.215127468109131, -2.57881498336792, 3.9982259273529053, 
187, 2504317666, 0.5746791, -0.62448204, -0.44028598, -0.29311183, 8.762544631958008, -4.425663948059082, -1.4169327020645142, -1.8551409244537354, -2.2817587852478027, 3.484217882156372, 
188, 2504334333, 0.5745442, -0.62482995, -0.44012964, -0.29286948, 8.745685577392578, -4.454246520996094, -1.4092718362808228, -1.52860426902771, -2.602160692214966, 3.046022415161133, 
189, 2504351000, 0.57450545, -0.6250431, -0.44000334, -0.2926801, 8.767095565795898, -4.480305194854736, -1.4022082090377808, -0.33594897389411926, -2.1215767860412598, 2.4297423362731934, 
190, 2504367667, 0.5746277, -0.62508404, -0.4399487, -0.29243514, 8.837576866149902, -4.541263103485107, -1.3796366453170776, 0.8417420983314514, -1.5566630363464355, 2.2445240020751953, 
191, 2504384334, 0.5750673, -0.6248094, -0.44001907, -0.29205164, 8.927659034729004, -4.680758476257324, -1.4135329723358154, 3.7949633598327637, -0.8898364901542664, 2.0027916431427, 
192, 2504401001, 0.57586926, -0.62417096, -0.4401015, -0.29171222, 9.026222229003906, -4.651602268218994, -1.3804742097854614, 7.84350061416626, 0.4575773775577545, 1.1730297803878784, 
193, 2504417668, 0.5768346, -0.62321216, -0.4403472, -0.29148376, 9.279632568359375, -4.577184677124023, -1.3631384372711182, 9.441093444824219, 1.6025934219360352, -0.535420835018158, 
194, 2504434335, 0.5778893, -0.62199175, -0.44069257, -0.2914795, 9.510915756225586, -4.56230354309082, -1.34972083568573, 9.87134838104248, 3.2171547412872314, -2.352693796157837, 
195, 2504451002, 0.5787242, -0.62078196, -0.44096968, -0.29198262, 9.486948013305664, -4.309630393981934, -1.2686023712158203, 7.36546516418457, 4.876896381378174, -4.495747089385986, 
196, 2504467669, 0.579138, -0.61979276, -0.4412, -0.29291442, 9.30402660369873, -4.348145484924316, -1.284375548362732, 2.4040918350219727, 5.622738361358643, -5.984127044677734, 
197, 2504484336, 0.5793948, -0.61890155, -0.4413509, -0.29406166, 8.909749031066895, -4.328129291534424, -1.3238325119018555, 1.2086315155029297, 5.814346790313721, -6.6277360916137695, 
198, 2504501003, 0.5795101, -0.6181232, -0.4415134, -0.29522523, 8.489638328552246, -4.146203517913818, -1.3529106378555298, 0.4845859706401825, 4.990167617797852, -6.742082595825195, 
199, 2504517670, 0.5794771, -0.6175541, -0.4416762, -0.29623553, 8.180511474609375, -4.080699443817139, -1.4866467714309692, -0.9771246314048767, 3.701887369155884, -5.706382751464844, 
200, 2504534337, 0.57921433, -0.61732876, -0.4416697, -0.29722688, 8.070565223693848, -3.841737747192383, -1.560568928718567, -3.3261420726776123, 2.763129949569702, -4.385739803314209, 
201, 2504551004, 0.57838696, -0.6177896, -0.44122776, -0.2985345, 7.957875728607178, -3.746922016143799, -1.675405740737915, -10.553422927856445, 2.866990566253662, -2.813812255859375, 
202, 2504567671, 0.57730025, -0.6187195, -0.44032523, -0.30004054, 7.940829753875732, -4.091902256011963, -1.8823829889297485, -15.052468299865723, 3.8106415271759033, -0.7491337060928345, 
203, 2504584338, 0.5767215, -0.61940217, -0.43923157, -0.3013452, 8.022130012512207, -4.37984037399292, -2.0467751026153564, -11.481860160827637, 5.686298370361328, 1.1187697649002075, 
204, 2504601005, 0.57673055, -0.61979663, -0.4379378, -0.30239794, 8.238428115844727, -4.215283393859863, -2.037470579147339, -6.950482368469238, 7.548366546630859, 3.2035930156707764, 
205, 2504617672, 0.57673156, -0.6203868, -0.43638107, -0.30343503, 8.498571395874023, -3.986839532852173, -2.024564504623413, -8.603989601135254, 8.307029724121094, 5.0139007568359375, 
206, 2504634339, 0.57635814, -0.6214787, -0.43447655, -0.3046408, 8.759846687316895, -3.9460833072662354, -2.064704179763794, -13.57501220703125, 8.353135108947754, 6.59254264831543, 
207, 2504651006, 0.5756267, -0.6230009, -0.4323556, -0.30592898, 8.880600929260254, -4.038505554199219, -2.022285223007202, -17.752765655517578, 7.754364967346191, 7.7884297370910645, 
208, 2504667673, 0.57459354, -0.62489665, -0.43010393, -0.30717608, 8.78085708618164, -4.068756103515625, -1.852540373802185, -20.51239013671875, 6.363083362579346, 8.977684020996094, 
209, 2504684340, 0.57319784, -0.6272596, -0.42767838, -0.30835187, 8.674001693725586, -4.0999836921691895, -1.7231885194778442, -23.84984588623047, 4.592848300933838, 10.598810195922852, 
210, 2504701007, 0.5714117, -0.6300914, -0.4250942, -0.30946463, 8.524843215942383, -4.218012809753418, -1.7294529676437378, -27.45625877380371, 2.779966115951538, 12.079465866088867, 
211, 2504717674, 0.5694212, -0.6332256, -0.42243022, -0.3103828, 8.49611759185791, -4.50032377243042, -1.7795406579971313, -29.171131134033203, 1.0443423986434937, 13.647796630859375, 
212, 2504734341, 0.56763554, -0.63630223, -0.4197762, -0.3109621, 8.431468963623047, -4.733901500701904, -1.8504043817520142, -27.27507209777832, 0.38143202662467957, 15.232879638671875, 
213, 2504751008, 0.5662019, -0.6390817, -0.41723853, -0.31129086, 8.403377532958984, -4.931853294372559, -1.8638136386871338, -23.61861228942871, 0.5037583708763123, 15.579832077026367, 
214, 2504767675, 0.56521934, -0.64138, -0.41488594, -0.31149417, 8.554400444030762, -5.08905553817749, -1.9049317836761475, -19.22662353515625, 1.691972017288208, 14.853853225708008, 
215, 2504784342, 0.5646573, -0.64313966, -0.412683, -0.31181172, 8.84012222290039, -5.229099273681641, -1.9013344049453735, -15.327749252319336, 4.005274772644043, 13.0954008102417, 
216, 2504801009, 0.5645605, -0.6443135, -0.4105981, -0.31231534, 9.196083068847656, -5.4835309982299805, -1.9144234657287598, -10.959442138671875, 6.792552471160889, 11.101598739624023, 
217, 2504817676, 0.56518656, -0.64471155, -0.40869838, -0.31285274, 9.483847618103027, -5.616849422454834, -1.8897866010665894, -4.4240593910217285, 9.926395416259766, 9.480579376220703, 
218, 2504834343, 0.56658226, -0.6443097, -0.4070386, -0.3133199, 9.395240783691406, -5.325973987579346, -1.687787652015686, 2.504533290863037, 12.739568710327148, 8.131545066833496, 
219, 2504851010, 0.568234, -0.6435794, -0.405499, -0.3138249, 8.99456787109375, -4.798753261566162, -1.4846479892730713, 5.295629501342773, 13.738454818725586, 7.025781631469727, 
220, 2504867677, 0.56960267, -0.6430569, -0.40400696, -0.31433898, 8.54725170135498, -4.325750350952148, -1.330521583557129, 3.12231183052063, 12.452705383300781, 6.784892559051514, 
221, 2504884344, 0.570236, -0.64328337, -0.40230262, -0.31491277, 8.069759368896484, -4.047762870788574, -1.3321622610092163, -3.062256336212158, 9.532252311706543, 7.8780035972595215, 
222, 2504901011, 0.570262, -0.64421636, -0.4004156, -0.3153633, 7.8125200271606445, -4.04514217376709, -1.3493248224258423, -8.700462341308594, 6.565251350402832, 9.847163200378418, 
223, 2504917678, 0.5698796, -0.645595, -0.3984785, -0.3156888, 7.753135681152344, -4.117389678955078, -1.4332059621810913, -12.34645938873291, 4.303584098815918, 10.965836524963379, 
224, 2504934345, 0.56926703, -0.6471914, -0.396497, -0.31601986, 7.842731952667236, -4.277619361877441, -1.4245550632476807, -14.157422065734863, 3.3064942359924316, 11.212117195129395, 
225, 2504951012, 0.5685474, -0.64879, -0.3944606, -0.31658575, 8.037467956542969, -4.382382869720459, -1.374709129333496, -15.221261024475098, 4.173408508300781, 10.280278205871582, 
226, 2504967679, 0.5677696, -0.65020335, -0.3924847, -0.31753632, 8.27624225616455, -4.648133754730225, -1.42562997341156, -16.025461196899414, 6.099895477294922, 7.942526340484619, 
227, 2504984346, 0.56709486, -0.65120816, -0.39071903, -0.31885746, 8.679165840148926, -4.838561058044434, -1.4061485528945923, -14.48114013671875, 8.090080261230469, 4.671460151672363, 
228, 2505001013, 0.5665874, -0.651723, -0.38927317, -0.32047233, 8.976750373840332, -5.007537841796875, -1.3301358222961426, -12.112154006958008, 9.792454719543457, 1.1788959503173828, 
229, 2505017680, 0.5662947, -0.65182716, -0.38798636, -0.3223328, 9.095479965209961, -5.0508904457092285, -1.0831586122512817, -8.834978103637695, 11.14578914642334, -1.3010107278823853, 
230, 2505034347, 0.5660953, -0.6516753, -0.38697562, -0.3241998, 9.1421537399292, -5.024964809417725, -0.8726638555526733, -7.704049587249756, 11.400023460388184, -2.8849270343780518, 
231, 2505051014, 0.5659292, -0.65136975, -0.3862163, -0.3260044, 9.147459030151367, -5.138303756713867, -0.7245446443557739, -5.995488166809082, 10.40241813659668, -4.14667272567749, 
232, 2505067681, 0.5659879, -0.6508143, -0.38584393, -0.32744935, 9.095895767211914, -5.129061222076416, -0.6150171160697937, -2.258195400238037, 8.444029808044434, -4.633914470672607, 
233, 2505084348, 0.56595075, -0.65044385, -0.3855471, -0.32859692, 9.070441246032715, -5.016169548034668, -0.5722621083259583, -1.2224431037902832, 5.400803565979004, -3.754732131958008, 
234, 2505101015, 0.56573117, -0.6504134, -0.38544667, -0.329153, 9.05315113067627, -5.053662300109863, -0.6890665888786316, -2.330345869064331, 1.2502647638320923, -1.6819732189178467, 
235, 2505117682, 0.5655005, -0.6505654, -0.38553244, -0.32914835, 9.039764404296875, -5.165059566497803, -0.8178406953811646, -1.1741758584976196, -2.46490216255188, 0.11750467121601105, 
236, 2505134349, 0.56540614, -0.6507317, -0.38577387, -0.32869902, 8.95164680480957, -5.226863384246826, -0.8930772542953491, 1.0943090915679932, -4.864940643310547, 1.4554355144500732, 
237, 2505151016, 0.5655325, -0.6507588, -0.3862032, -0.32792237, 8.817721366882324, -5.15521764755249, -0.9572718143463135, 3.320091962814331, -5.838967323303223, 2.102912187576294, 
238, 2505167683, 0.56579846, -0.6506768, -0.38664362, -0.3271066, 8.6707124710083, -5.0807623863220215, -1.0137014389038086, 4.6986188888549805, -5.581610679626465, 2.1834256649017334, 
239, 2505184350, 0.56611085, -0.650488, -0.3870815, -0.3264229, 8.553942680358887, -4.945152759552002, -1.0552130937576294, 5.16791296005249, -4.746571063995361, 1.4551087617874146, 
240, 2505201017, 0.56644076, -0.65022206, -0.38749266, -0.32589248, 8.48950481414795, -4.92317008972168, -1.096454381942749, 4.9723920822143555, -3.690431594848633, 0.8204965591430664, 
241, 2505217684, 0.5667778, -0.64988625, -0.3879045, -0.32548583, 8.447991371154785, -4.882803916931152, -1.1040195226669312, 4.961724281311035, -2.980959892272949, 0.1548992246389389, 
242, 2505234351, 0.5672199, -0.649402, -0.38838127, -0.32511327, 8.352285385131836, -4.844269275665283, -1.093277931213379, 5.949274063110352, -2.4063518047332764, -0.41936957836151123, 
243, 2505251018, 0.5677506, -0.6488587, -0.38886288, -0.32469583, 8.337501525878906, -4.833767414093018, -0.9974263310432434, 6.663331031799316, -2.24159836769104, -0.22628825902938843, 
244, 2505267685, 0.56836337, -0.6482769, -0.3893386, -0.3242155, 8.269455909729004, -4.762584209442139, -0.9002483487129211, 7.2530694007873535, -2.161168098449707, 0.13132914900779724, 
245, 2505284352, 0.56896436, -0.6477758, -0.3897076, -0.32371917, 8.325340270996094, -4.749962329864502, -0.829413890838623, 6.846985816955566, -2.1374950408935547, 0.826822817325592, 
246, 2505301019, 0.5695697, -0.6473356, -0.39000782, -0.3231737, 8.461060523986816, -4.7739644050598145, -0.7743607759475708, 6.508579254150391, -2.170945882797241, 1.5087356567382812, 
247, 2505317686, 0.57009375, -0.64699197, -0.39026558, -0.32262614, 8.590652465820312, -4.766587734222412, -0.7189432382583618, 5.831659317016602, -2.559272050857544, 1.7570759057998657, 
248, 2505334353, 0.57056254, -0.6467183, -0.3904675, -0.32210127, 8.667584419250488, -4.818137168884277, -0.6966320276260376, 5.083244323730469, -2.541612386703491, 1.9882822036743164, 
249, 2505351020, 0.57104975, -0.64647007, -0.39058128, -0.32159746, 8.718880653381348, -4.835253715515137, -0.6642472743988037, 4.742031574249268, -2.094952344894409, 2.41743540763855, 
250, 2505367687, 0.5714883, -0.6463253, -0.39057842, -0.3211127, 8.668659210205078, -4.830809116363525, -0.6609864234924316, 3.695035457611084, -1.869125247001648, 3.050325870513916, 
251, 2505384354, 0.57186973, -0.6462984, -0.39042816, -0.32067028, 8.511890411376953, -4.767454624176025, -0.6906408071517944, 2.5920374393463135, -1.5745793581008911, 3.7205333709716797, 
252, 2505401021, 0.57205707, -0.64640963, -0.39025733, -0.3203194, 8.456979751586914, -4.758781909942627, -0.7651466131210327, 0.9448846578598022, -1.9689126014709473, 3.386671781539917, 
253, 2505417688, 0.5720407, -0.64660406, -0.3901029, -0.32014427, 8.427330017089844, -4.765840530395508, -0.834040641784668, -0.7648080587387085, -1.976954698562622, 2.4025416374206543, 
254, 2505434355, 0.57180786, -0.6469282, -0.38984472, -0.3202203, 8.480992317199707, -4.917648792266846, -0.9390835762023926, -2.771806478500366, -1.5532950162887573, 1.6867563724517822, 
255, 2505451022, 0.57156235, -0.6471676, -0.38964874, -0.3204132, 8.515494346618652, -5.053472995758057, -1.0563709735870361, -3.155971050262451, -0.8470375537872314, 0.7649809122085571, 
256, 2505467689, 0.5714348, -0.6471919, -0.38956937, -0.32068822, 8.452261924743652, -5.112419605255127, -1.0788573026657104, -1.7780461311340332, -0.1397428661584854, -0.39782920479774475, 
257, 2505484356, 0.5714153, -0.64705116, -0.389577, -0.3209974, 8.309714317321777, -5.122524738311768, -1.0134692192077637, -0.5156220197677612, 0.29925236105918884, -1.142812967300415, 
258, 2505501023, 0.57149595, -0.64681065, -0.3896365, -0.32126626, 8.25311279296875, -5.103333950042725, -1.0212920904159546, 0.6444987654685974, 0.3339960277080536, -1.2922247648239136, 
259, 2505517690, 0.5716458, -0.64653814, -0.38974363, -0.32141802, 8.190649032592773, -5.100357532501221, -1.098322868347168, 1.2649791240692139, 0.014938605949282646, -0.9566599130630493, 
260, 2505534357, 0.5718793, -0.64622176, -0.3899153, -0.32143068, 8.166183471679688, -5.069911003112793, -1.1257624626159668, 2.5156733989715576, -0.6473866105079651, -0.6798379421234131, 
261, 2505551024, 0.5721429, -0.6458993, -0.39018533, -0.3212821, 8.239269256591797, -5.110785961151123, -1.2234989404678345, 3.247811794281006, -1.6154825687408447, -0.4356207847595215, 
262, 2505567691, 0.57263434, -0.6453068, -0.39069238, -0.32098067, 8.3497953414917, -5.090089797973633, -1.2322741746902466, 6.256894588470459, -2.015348196029663, -1.123680591583252, 
263, 2505584358, 0.5731515, -0.64465666, -0.39125213, -0.32068232, 8.423784255981445, -4.9167280197143555, -1.2580152750015259, 7.118980884552002, -2.2562103271484375, -1.542537808418274, 
264, 2505601025, 0.5736167, -0.6440229, -0.39187694, -0.32036078, 8.635621070861816, -4.94114875793457, -1.2783145904541016, 6.706859588623047, -2.595629930496216, -1.764420747756958, 
265, 2505617692, 0.5741363, -0.64330685, -0.39251444, -0.32008803, 8.86994743347168, -4.8017683029174805, -1.2822996377944946, 7.168848991394043, -2.0928397178649902, -2.1147255897521973, 
266, 2505634359, 0.57453924, -0.64275587, -0.3930637, -0.31979764, 8.945483207702637, -4.625669002532959, -1.3038241863250732, 5.839946746826172, -2.490297555923462, -1.4543789625167847, 
267, 2505651026, 0.57470536, -0.6425388, -0.39340824, -0.31951168, 8.949628829956055, -4.474130630493164, -1.2665539979934692, 2.9600789546966553, -2.9920496940612793, -0.1641261726617813, 
268, 2505667693, 0.57447714, -0.6427919, -0.3935309, -0.31926188, 8.87384033203125, -4.418620586395264, -1.2087681293487549, -1.2747056484222412, -4.01762056350708, 1.1045925617218018, 
269, 2505684360, 0.574059, -0.64329404, -0.39353377, -0.31899884, 8.698845863342285, -4.6488518714904785, -1.1129218339920044, -3.1994106769561768, -4.735352993011475, 1.9458931684494019, 
270, 2505701027, 0.5736595, -0.6438041, -0.39353418, -0.3186883, 8.666934967041016, -4.708438873291016, -1.0312353372573853, -3.1302437782287598, -4.8438615798950195, 2.229797124862671, 
271, 2505717694, 0.57317597, -0.644482, -0.3933807, -0.31837726, 8.78477668762207, -4.886569499969482, -1.0233646631240845, -4.434308052062988, -4.879942893981934, 3.179471015930176, 
272, 2505734361, 0.57281697, -0.6451386, -0.39316818, -0.3179557, 8.720449447631836, -4.914901256561279, -0.9904156923294067, -3.5759940147399902, -4.7934041023254395, 4.082197189331055, 
273, 2505751028, 0.5724603, -0.6458408, -0.39287537, -0.31753424, 8.604372024536133, -4.90922212600708, -1.0343749523162842, -3.8320064544677734, -4.631365776062012, 4.551114559173584, 
274, 2505767695, 0.57214195, -0.6465123, -0.39255825, -0.31713346, 8.5133056640625, -4.808688163757324, -1.0117549896240234, -3.7791666984558105, -4.204196929931641, 4.5973711013793945, 
275, 2505784362, 0.5717588, -0.6472005, -0.39218783, -0.31687862, 8.45817756652832, -4.696547985076904, -1.0895283222198486, -4.656068801879883, -3.558692693710327, 4.164349555969238, 
276, 2505801029, 0.57123417, -0.6479353, -0.39179054, -0.3168149, 8.34444522857666, -4.716657638549805, -1.263079285621643, -5.831616401672363, -3.215252637863159, 3.3163650035858154, 
277, 2505817696, 0.5706957, -0.6485868, -0.3915104, -0.31679857, 8.369183540344238, -4.701243877410889, -1.44899320602417, -5.552898406982422, -3.2494711875915527, 2.3735997676849365, 
278, 2505834363, 0.570164, -0.6491536, -0.39137223, -0.31676567, 8.335967063903809, -4.8396100997924805, -1.6049180030822754, -4.76686954498291, -3.711331367492676, 1.5829354524612427, 
279, 2505851030, 0.5697111, -0.64964795, -0.3912917, -0.3166665, 8.399578094482422, -4.817169189453125, -1.6495282649993896, -3.8579261302948, -3.8272414207458496, 1.5641611814498901, 
280, 2505867697, 0.5693729, -0.65000224, -0.39129704, -0.3165411, 8.220364570617676, -4.756080627441406, -1.6485520601272583, -2.5753190517425537, -3.6264002323150635, 1.1606717109680176, 
281, 2505884364, 0.5690134, -0.65025496, -0.39136696, -0.31658247, 8.236669540405273, -4.553518772125244, -1.3787392377853394, -2.739368200302124, -2.856572151184082, -0.07533976435661316, 
282, 2505901031, 0.56800604, -0.6508388, -0.39130557, -0.31726646, 8.373194694519043, -4.318810939788818, -1.1870954036712646, -8.902594566345215, -1.9559403657913208, -2.5232362747192383, 
283, 2505917698, 0.5666449, -0.65154696, -0.3910936, -0.318506, 8.398472785949707, -4.600102424621582, -1.2981196641921997, -12.75076675415039, -0.131009042263031, -4.4528093338012695, 
284, 2505934365, 0.56562, -0.65176415, -0.39112794, -0.31983885, 8.578219413757324, -4.835046291351318, -1.5607304573059082, -8.98563003540039, 1.2722152471542358, -6.510186672210693, 
285, 2505951032, 0.56515944, -0.6516014, -0.39139378, -0.3206575, 8.682815551757812, -5.109350204467773, -1.8821786642074585, -3.120523452758789, 0.45117413997650146, -5.322947025299072, 
286, 2505967699, 0.5655207, -0.6507513, -0.39209393, -0.32089192, 8.703692436218262, -4.93845272064209, -1.6818807125091553, 5.742553234100342, -0.09809665381908417, -5.038837909698486, 
287, 2505984366, 0.56625175, -0.6494997, -0.39295897, -0.32108, 8.658345222473145, -4.4231367111206055, -1.3662514686584473, 9.520135879516602, 0.9053131937980652, -5.877079486846924, 
288, 2506001033, 0.5668934, -0.64831495, -0.39366582, -0.3214761, 8.67782211303711, -4.378405570983887, -1.2604576349258423, 8.285307884216309, 1.8664815425872803, -6.040847301483154, 
289, 2506017700, 0.5673927, -0.64722687, -0.394229, -0.3220972, 8.80678939819336, -4.262275695800781, -1.0565649271011353, 6.090617656707764, 2.9831950664520264, -6.272026062011719, 
290, 2506034367, 0.56737447, -0.64661324, -0.39449146, -0.32303873, 8.792243957519531, -4.281054496765137, -1.131332278251648, 0.3789847493171692, 3.1374855041503906, -6.020277976989746, 
291, 2506051034, 0.56704736, -0.64637184, -0.39462656, -0.32393017, 8.753868103027344, -4.4138031005859375, -1.2171791791915894, -2.6699957847595215, 1.7827143669128418, -4.905652046203613, 
292, 2506067701, 0.56654084, -0.64640135, -0.39470926, -0.32465628, 8.732376098632812, -4.466050148010254, -1.3947769403457642, -4.238441467285156, 0.19240903854370117, -3.675333023071289, 
293, 2506084368, 0.5659672, -0.64662427, -0.39471972, -0.32519943, 8.737977981567383, -4.5745463371276855, -1.423695683479309, -4.907508373260498, -0.9769068360328674, -2.2658531665802, 
294, 2506101035, 0.5655398, -0.64673877, -0.39473447, -0.32569706, 8.718582153320312, -4.478627681732178, -1.3246325254440308, -3.642561197280884, -0.5883108973503113, -2.0805578231811523, 
295, 2506117702, 0.5649839, -0.64701694, -0.39446574, -0.32643422, 8.698665618896484, -4.430848121643066, -1.3892011642456055, -5.919914722442627, 0.7446828484535217, -1.6252410411834717, 
296, 2506134369, 0.56444615, -0.6473193, -0.39414075, -0.32715666, 8.74759578704834, -4.641811370849609, -1.5372148752212524, -6.298214435577393, 1.062562108039856, -1.1584241390228271, 
297, 2506151036, 0.56411463, -0.6474834, -0.3939766, -0.32760113, 8.614490509033203, -4.704657077789307, -1.735315203666687, -3.561100721359253, -0.018607627600431442, -0.7338807582855225, 
298, 2506167703, 0.5640904, -0.64740264, -0.3940728, -0.32768688, 8.601000785827637, -4.675516128540039, -1.6690959930419922, 0.1848916858434677, -1.1486655473709106, -0.4528837502002716, 
299, 2506184370, 0.56410277, -0.6472977, -0.39427254, -0.32763252, 8.682172775268555, -4.5232744216918945, -1.524532675743103, 1.0182521343231201, -1.9832297563552856, -0.34878095984458923, 
300, 2506201037, 0.5640034, -0.64735717, -0.39438677, -0.3275485, 8.717385292053223, -4.585437774658203, -1.4283266067504883, -0.15928539633750916, -2.4909374713897705, 0.33324044942855835, 
301, 2506217704, 0.5637606, -0.64752716, -0.39453706, -0.3274497, 8.733470916748047, -4.561374187469482, -1.5088311433792114, -0.7856568098068237, -3.5152664184570312, 0.1558981090784073, 
302, 2506234371, 0.5633922, -0.6478412, -0.39474934, -0.32720664, 8.792057037353516, -4.718366622924805, -1.6901432275772095, -1.4231443405151367, -5.0190653800964355, 0.5576717853546143, 
303, 2506251038, 0.56328785, -0.64800024, -0.3951753, -0.32655615, 8.815999984741211, -4.789373874664307, -1.7418076992034912, 1.673668384552002, -6.433846473693848, 1.4026731252670288, 
304, 2506267705, 0.56328386, -0.64819676, -0.39562386, -0.32562852, 8.753639221191406, -4.8420186042785645, -1.7011206150054932, 2.7692646980285645, -7.54510498046875, 2.7030301094055176, 
305, 2506284372, 0.56348246, -0.6483398, -0.3960557, -0.32447332, 8.623491287231445, -4.921529769897461, -1.6943141222000122, 4.5569167137146, -7.865355014801025, 3.945899724960327, 
306, 2506301039, 0.5638407, -0.6483193, -0.39652637, -0.3233153, 8.578974723815918, -4.696717739105225, -1.6240322589874268, 6.1260528564453125, -7.29777717590332, 3.665581226348877, 
307, 2506317706, 0.56388235, -0.64852566, -0.39684716, -0.32243413, 8.441327095031738, -4.769534111022949, -1.684455156326294, 2.830031156539917, -6.888703346252441, 3.1595382690429688, 
308, 2506334373, 0.56401414, -0.648619, -0.3971603, -0.32162905, 8.666102409362793, -4.921231746673584, -1.3547827005386353, 3.6596648693084717, -6.132603168487549, 2.7455601692199707, 
309, 2506351040, 0.5647893, -0.6479833, -0.3975107, -0.32111686, 9.014581680297852, -4.512609004974365, -0.814273476600647, 8.148228645324707, -1.3188753128051758, 0.9559111595153809, 
310, 2506367707, 0.5649042, -0.64785856, -0.39753556, -0.32113573, 8.65238094329834, -4.369413375854492, -1.2810848951339722, 1.2406855821609497, -0.7547934055328369, 0.2595527172088623, 
311, 2506384374, 0.5648876, -0.6479288, -0.3977324, -0.32077953, 8.602691650390625, -5.244955062866211, -1.716538667678833, 1.1182185411453247, -3.7774503231048584, 1.2346409559249878, 
312, 2506401041, 0.5662008, -0.64694566, -0.3985877, -0.31938356, 8.70544719696045, -5.4371795654296875, -1.6537517309188843, 15.667680740356445, -5.135964870452881, 2.3356945514678955, 
313, 2506417708, 0.56865627, -0.64492553, -0.40003544, -0.31728983, 8.739834785461426, -4.715067386627197, -1.3262840509414673, 28.341794967651367, -5.332399845123291, 2.0052688121795654, 
314, 2506434375, 0.5708691, -0.6430809, -0.40150434, -0.31519848, 8.61404037475586, -4.137490272521973, -1.2552828788757324, 26.413604736328125, -6.335381507873535, 1.8979891538619995, 
315, 2506451042, 0.5724993, -0.64189816, -0.4026743, -0.3131532, 8.755456924438477, -4.3424072265625, -1.3448705673217773, 20.119915008544922, -7.798952579498291, 3.6817615032196045, 
316, 2506467709, 0.5738022, -0.6410994, -0.40356255, -0.3112557, 8.720415115356445, -4.375881671905518, -1.2845509052276611, 16.160076141357422, -7.775652885437012, 4.715579032897949, 
317, 2506484376, 0.5746619, -0.6408077, -0.40391737, -0.30980664, 8.671911239624023, -4.277822017669678, -0.9758080840110779, 9.950764656066895, -6.085748195648193, 5.74692440032959, 
318, 2506501043, 0.5748646, -0.6411026, -0.40355647, -0.30929053, 8.523001670837402, -4.31231689453125, -0.875494658946991, 1.0967551469802856, -2.5179977416992188, 5.3781232833862305, 
319, 2506517710, 0.57496834, -0.6412931, -0.4031756, -0.3091992, 8.393121719360352, -4.7913618087768555, -1.0227826833724976, -0.47427037358283997, -0.43668368458747864, 3.3526828289031982, 
320, 2506534377, 0.5756104, -0.640575, -0.40327096, -0.30936882, 8.333768844604492, -4.563568115234375, -1.07358980178833, 5.691469192504883, 2.2915236949920654, -1.141545295715332, 
321, 2506551044, 0.57606345, -0.63971406, -0.40358728, -0.3098941, 8.355384826660156, -4.3074774742126465, -1.1882638931274414, 4.867995262145996, 2.792956590652466, -4.3120903968811035, 
322, 2506567711, 0.57624626, -0.63904196, -0.40372878, -0.31075522, 8.544858932495117, -4.317681789398193, -1.2176153659820557, 1.545925259590149, 3.8546929359436035, -4.902284622192383, 
323, 2506584378, 0.575961, -0.6388622, -0.4034385, -0.31202835, 8.66489028930664, -4.503718852996826, -1.248423457145691, -4.567103385925293, 5.048129558563232, -4.254590034484863, 
324, 2506601045, 0.575626, -0.63881963, -0.4030881, -0.31318417, 8.548221588134766, -4.727126121520996, -1.4052882194519043, -5.371534824371338, 4.482985019683838, -3.2071971893310547, 
325, 2506617712, 0.5753648, -0.6387541, -0.4028144, -0.3141481, 8.392294883728027, -4.689299583435059, -1.4679512977600098, -3.8957300186157227, 3.375913619995117, -2.748485803604126, 
326, 2506634379, 0.57504493, -0.63864577, -0.4027446, -0.31504235, 8.077718734741211, -4.518147945404053, -1.3040282726287842, -3.616039752960205, 2.36067795753479, -3.575225591659546, 
327, 2506651046, 0.5747446, -0.63827115, -0.40290835, -0.31613842, 7.897649765014648, -4.496362209320068, -1.2213554382324219, -2.4681553840637207, 2.9233248233795166, -6.107309818267822, 
328, 2506667713, 0.57440215, -0.6376894, -0.40307695, -0.31771594, 8.0642671585083, -4.296467304229736, -1.1959772109985352, -3.146239757537842, 5.3439836502075195, -8.704352378845215, 
329, 2506684380, 0.5736555, -0.6373541, -0.40296134, -0.319877, 8.363170623779297, -4.59669303894043, -1.4957988262176514, -7.9128828048706055, 7.246600151062012, -9.996016502380371, 
330, 2506701047, 0.57311076, -0.6367667, -0.40294528, -0.3220366, 8.677457809448242, -5.010833263397217, -1.8265514373779297, -5.919803142547607, 8.037161827087402, -10.667350769042969, 
331, 2506717714, 0.5731857, -0.63553154, -0.4032541, -0.32395053, 8.820354461669922, -5.038108825683594, -1.9090274572372437, 0.7988157868385315, 8.820103645324707, -11.563142776489258, 
332, 2506734381, 0.57373154, -0.6336489, -0.40391785, -0.32584015, 8.931672096252441, -4.776590824127197, -1.7741806507110596, 6.284614086151123, 10.07283878326416, -13.773372650146484, 
333, 2506751048, 0.57426965, -0.63149714, -0.40472755, -0.3280572, 9.04448127746582, -4.545689105987549, -1.5090222358703613, 6.657987117767334, 11.570292472839355, -16.45814323425293, 
334, 2506767715, 0.5747087, -0.6291566, -0.40555048, -0.33075804, 8.91599178314209, -4.561925411224365, -1.3170247077941895, 5.714735507965088, 13.749276161193848, -19.177352905273438, 
335, 2506784382, 0.5751541, -0.6266093, -0.40640786, -0.33375317, 8.747455596923828, -4.532529830932617, -1.2184221744537354, 5.8654704093933105, 15.352964401245117, -21.056049346923828, 
336, 2506801049, 0.57569075, -0.62389004, -0.40736297, -0.33674464, 8.65434455871582, -4.542393207550049, -1.2448315620422363, 7.299182415008545, 15.540792465209961, -21.74701499938965, 
337, 2506817716, 0.57626796, -0.6212442, -0.4084877, -0.33927673, 8.69371509552002, -4.620386600494385, -1.3947937488555908, 8.722970008850098, 12.929288864135742, -20.34969711303711, 
338, 2506834383, 0.5768779, -0.61874354, -0.40977192, -0.34125546, 8.748727798461914, -4.596279621124268, -1.4702025651931763, 10.371349334716797, 9.622318267822266, -18.374956130981445, 
339, 2506851050, 0.5775423, -0.61629677, -0.4112417, -0.34278786, 8.936388969421387, -4.641970157623291, -1.4852886199951172, 12.095853805541992, 7.028706073760986, -17.124486923217773, 
340, 2506867717, 0.5782345, -0.61388385, -0.4127809, -0.3440983, 9.179407119750977, -4.533376216888428, -1.3611645698547363, 12.981901168823242, 5.779482841491699, -16.395036697387695, 
341, 2506884384, 0.57873577, -0.6116719, -0.4141191, -0.34558314, 9.177081108093262, -4.4234514236450195, -1.1943849325180054, 10.188458442687988, 6.421311378479004, -16.105161666870117, 
342, 2506901051, 0.5790701, -0.60967714, -0.41519555, -0.34725276, 9.069612503051758, -4.502487659454346, -1.225982904434204, 7.405248641967773, 7.294729232788086, -15.517638206481934, 
343, 2506917718, 0.5794102, -0.60778916, -0.41619858, -0.3487908, 8.942980766296387, -4.511425018310547, -1.416664481163025, 7.2908735275268555, 6.7694878578186035, -14.362042427062988, 
344, 2506934385, 0.5796956, -0.6060713, -0.41712436, -0.35019696, 8.886404037475586, -4.432229995727539, -1.4455177783966064, 7.007569313049316, 5.7833075523376465, -13.214920997619629, 
345, 2506951052, 0.57991445, -0.60453033, -0.4179741, -0.35148242, 8.762883186340332, -4.475371360778809, -1.4715076684951782, 5.752661228179932, 5.190577507019043, -12.04917049407959, 
346, 2506967719, 0.5801124, -0.603066, -0.41873294, -0.35276574, 8.644689559936523, -4.489346981048584, -1.5184884071350098, 5.351949691772461, 5.227933406829834, -11.51993465423584, 
347, 2506984386, 0.5801871, -0.6016301, -0.41950575, -0.35417396, 8.639509201049805, -4.4168500900268555, -1.5278431177139282, 4.598167419433594, 5.211848258972168, -12.310136795043945, 
348, 2507001053, 0.58010805, -0.6002479, -0.4202325, -0.35578334, 8.530143737792969, -4.53100061416626, -1.5359243154525757, 3.1373209953308105, 5.644242763519287, -13.163412094116211, 
349, 2507017720, 0.58006567, -0.5987415, -0.42103255, -0.35744116, 8.498129844665527, -4.680130481719971, -1.5288995504379272, 3.6172139644622803, 6.079070568084717, -13.936612129211426, 
350, 2507034387, 0.580236, -0.59698987, -0.42195535, -0.35900286, 8.540751457214355, -4.817333698272705, -1.538482904434204, 6.476683139801025, 6.259794235229492, -14.291847229003906, 
351, 2507051054, 0.5808681, -0.5947721, -0.42316565, -0.36023512, 8.541756629943848, -4.935201644897461, -1.57071053981781, 11.800893783569336, 6.3233418464660645, -14.389323234558105, 
352, 2507067721, 0.582059, -0.5919207, -0.4248234, -0.36105728, 8.470053672790527, -4.91905403137207, -1.5921251773834229, 18.45034408569336, 6.277666091918945, -15.049285888671875, 
353, 2507084388, 0.5834258, -0.588701, -0.4268415, -0.36173448, 8.423503875732422, -4.776304244995117, -1.57113516330719, 22.97079849243164, 5.298381328582764, -16.638687133789062, 
354, 2507101055, 0.58502525, -0.5851695, -0.42914417, -0.36215657, 8.586053848266602, -4.778987407684326, -1.4997944831848145, 26.180055618286133, 4.791966915130615, -17.114723205566406, 
355, 2507117722, 0.5867111, -0.5815034, -0.43147886, -0.36256045, 8.685861587524414, -4.6880693435668945, -1.3524593114852905, 28.139753341674805, 4.844705581665039, -17.410249710083008, 
356, 2507134389, 0.5883271, -0.5778842, -0.43379107, -0.3629688, 8.636076927185059, -4.5934014320373535, -1.211377739906311, 26.709421157836914, 5.0050787925720215, -17.36917495727539, 
357, 2507151056, 0.58990616, -0.5741854, -0.4357935, -0.3638764, 8.727161407470703, -4.468350887298584, -0.7098367214202881, 24.147554397583008, 8.539566040039062, -18.49434471130371, 
358, 2507167723, 0.59129804, -0.5701248, -0.43757382, -0.36586046, 8.912750244140625, -4.454553604125977, -0.43871378898620605, 21.95787811279297, 13.701692581176758, -23.597795486450195, 
359, 2507184390, 0.59286165, -0.56540644, -0.43951726, -0.36831427, 8.817440032958984, -4.188754081726074, -0.5345572829246521, 23.44588851928711, 17.380983352661133, -27.689905166625977, 
360, 2507201057, 0.5938205, -0.5609062, -0.4413663, -0.37142608, 9.179120063781738, -3.7486119270324707, -0.9514578580856323, 18.103458404541016, 17.902231216430664, -30.900270462036133, 
361, 2507217724, 0.59503347, -0.55636656, -0.44329232, -0.37401026, 9.694491386413574, -4.7300615310668945, -1.3048802614212036, 21.16298484802246, 16.401365280151367, -28.521305084228516, 
362, 2507234391, 0.5975027, -0.55103153, -0.44548485, -0.37536392, 10.076133728027344, -4.678066730499268, -1.2175182104110718, 33.684410095214844, 16.49163818359375, -23.735401153564453, 
363, 2507251058, 0.60083616, -0.5453652, -0.4478747, -0.37547445, 10.107806205749512, -4.125330448150635, -0.8921691179275513, 42.61338806152344, 14.508158683776855, -18.1834774017334, 
364, 2507267725, 0.6045161, -0.539826, -0.45018417, -0.37480995, 9.853924751281738, -3.3532633781433105, -0.10928194224834442, 45.57286834716797, 12.690990447998047, -13.405187606811523, 
365, 2507284392, 0.6081146, -0.5349284, -0.45194584, -0.3738894, 9.143377304077148, -2.646294116973877, 0.7827669978141785, 41.91596603393555, 12.13625717163086, -8.528677940368652, 
366, 2507301059, 0.61072093, -0.5315209, -0.45258787, -0.3737241, 9.014859199523926, -1.74307119846344, 1.2414230108261108, 26.8262939453125, 12.654909133911133, -5.47251558303833, 
367, 2507317726, 0.6117613, -0.5306561, -0.45153335, -0.37452632, 9.380410194396973, -1.990262508392334, 1.085166573524475, 3.0339090824127197, 11.88712215423584, 0.5879077911376953, 
368, 2507334393, 0.6122475, -0.53138286, -0.44908398, -0.37564465, 9.331408500671387, -2.488330602645874, 0.7241278290748596, -10.281871795654297, 13.074331283569336, 7.891877174377441, 
369, 2507351060, 0.6123777, -0.5330159, -0.4458849, -0.37692744, 9.430737495422363, -2.7615420818328857, 0.27043575048446655, -17.826261520385742, 13.374141693115234, 11.836493492126465, 
370, 2507367727, 0.6123586, -0.5346949, -0.4424127, -0.37866792, 11.23979377746582, -3.4158763885498047, 0.0012422911822795868, -20.66823959350586, 15.620429039001465, 10.67840576171875, 
371, 2507384394, 0.613087, -0.5350872, -0.43905264, -0.38083965, 12.81039047241211, -3.7074296474456787, 0.016540173441171646, -13.52476978302002, 22.367753982543945, 6.496460437774658, 
372, 2507401061, 0.6143935, -0.5343767, -0.4355948, -0.3836918, 12.340370178222656, -2.896176338195801, 0.6999722123146057, -9.011205673217773, 29.911115646362305, 2.1962130069732666, 
373, 2507417728, 0.61514026, -0.53418726, -0.43121257, -0.38768858, 10.345528602600098, -2.2831966876983643, 1.3487379550933838, -19.149250030517578, 34.97218322753906, 0.8793593645095825, 
374, 2507434395, 0.6151391, -0.53483456, -0.4262127, -0.39229926, 9.005586624145508, -2.2920830249786377, 1.5525493621826172, -28.931917190551758, 35.38167190551758, 1.0722323656082153, 
375, 2507451062, 0.6148128, -0.5360744, -0.42096353, -0.39676115, 8.163869857788086, -2.3734498023986816, 1.5073214769363403, -32.89577102661133, 33.319976806640625, 3.5007388591766357, 
376, 2507467729, 0.6139341, -0.53827995, -0.41558397, -0.40078634, 7.524941444396973, -2.2373929023742676, 1.1536297798156738, -38.03607940673828, 27.98077964782715, 7.137228012084961, 
377, 2507484396, 0.6120324, -0.54194087, -0.4102885, -0.40420267, 7.802547931671143, -2.836991786956787, 0.5077208280563354, -46.01107406616211, 18.429407119750977, 10.746732711791992, 
378, 2507501063, 0.61018384, -0.5455593, -0.40576845, -0.40668508, 8.697529792785645, -3.888915538787842, 0.0530700758099556, -40.90336608886719, 11.973654747009277, 11.808694839477539, 
379, 2507517730, 0.6093697, -0.5478554, -0.40219745, -0.40836293, 9.146072387695312, -4.211935520172119, 0.04056451469659805, -26.546586990356445, 11.56193733215332, 10.813518524169922, 
380, 2507534397, 0.6092946, -0.54895276, -0.39922512, -0.4099149, 8.972169876098633, -3.734177350997925, 0.4459363520145416, -16.698741912841797, 13.999151229858398, 7.829604625701904, 
381, 2507551064, 0.6090618, -0.54962486, -0.39627132, -0.41222024, 8.479999542236328, -3.305748701095581, 0.7444911003112793, -17.558095932006836, 17.547409057617188, 2.9808573722839355, 
382, 2507567731, 0.6085121, -0.5500459, -0.3933155, -0.41528994, 8.062735557556152, -3.480239152908325, 0.7251502275466919, -19.755220413208008, 20.278369903564453, -1.7912677526474, 
383, 2507584398, 0.60787076, -0.54998195, -0.39058077, -0.4188791, 7.71120023727417, -3.415330410003662, 0.7007713913917542, -18.86911392211914, 22.462785720825195, -6.382499694824219, 
384, 2507601065, 0.60751855, -0.54933816, -0.38816357, -0.42246655, 7.474335670471191, -3.7975447177886963, 0.5866932272911072, -14.436717987060547, 23.578516006469727, -8.30905532836914, 
385, 2507617732, 0.60766965, -0.5481292, -0.386265, -0.4255482, 7.501358509063721, -3.8913960456848145, 0.5360674858093262, -7.329909801483154, 22.495677947998047, -8.22138786315918, 
386, 2507634399, 0.6080877, -0.5468008, -0.38468432, -0.42808452, 7.6113786697387695, -3.767275810241699, 0.5445106029510498, -3.45636248588562, 20.18099021911621, -6.699819087982178, 
387, 2507651066, 0.6086637, -0.5455473, -0.38355443, -0.42987546, 7.553298473358154, -3.888892889022827, 0.44407448172569275, 0.13791809976100922, 15.694008827209473, -4.629870891571045, 
388, 2507667733, 0.60966325, -0.5439538, -0.38320112, -0.43079227, 7.607069969177246, -3.8139235973358154, 0.5316399931907654, 7.774784564971924, 11.2883882522583, -3.548090934753418, 
389, 2507684400, 0.6109256, -0.54222447, -0.38339365, -0.43101302, 7.684804916381836, -3.4537558555603027, 0.7005003094673157, 12.779690742492676, 7.499499797821045, -2.2706570625305176, 
390, 2507701067, 0.6119824, -0.5410287, -0.3837156, -0.43072954, 7.630885124206543, -3.2587599754333496, 0.8183009028434753, 11.438566207885742, 2.973116874694824, 0.14433401823043823, 
391, 2507717734, 0.61281496, -0.54032564, -0.38411033, -0.43007627, 7.438720703125, -3.1889615058898926, 0.8697907328605652, 9.742145538330078, -0.7646033763885498, 2.058500051498413, 
392, 2507734401, 0.6133558, -0.54005474, -0.3844609, -0.42933133, 7.366666316986084, -3.150961399078369, 0.8808013796806335, 6.942047119140625, -2.9648239612579346, 2.878156900405884, 
393, 2507751068, 0.61340636, -0.5402561, -0.38472334, -0.4287704, 7.6016154289245605, -3.4221346378326416, 0.7312696576118469, 2.372459650039673, -4.597416400909424, 2.2208967208862305, 
394, 2507767735, 0.61334527, -0.54043454, -0.3851772, -0.428225, 8.050548553466797, -3.9613840579986572, 0.5406619906425476, 2.5632426738739014, -5.565237045288086, 1.0389665365219116, 
395, 2507784402, 0.6135197, -0.54012936, -0.38604507, -0.42757827, 8.161490440368652, -4.058803081512451, 0.43611931800842285, 6.958166599273682, -5.627464294433594, -0.680600106716156, 
396, 2507801069, 0.6136606, -0.5395425, -0.38731143, -0.42697132, 7.93700647354126, -3.948145866394043, 0.45037174224853516, 9.10645866394043, -6.416656494140625, -3.1947181224823, 
397, 2507817736, 0.613617, -0.5385891, -0.3890472, -0.42665958, 7.732999324798584, -4.03313684463501, 0.3186212182044983, 10.55046272277832, -6.7023115158081055, -7.721236228942871, 
398, 2507834403, 0.6136519, -0.53680366, -0.39146796, -0.42664516, 7.98259973526001, -4.3362135887146, 0.2549426853656769, 15.52440071105957, -5.812542915344238, -13.537217140197754, 
399, 2507851070, 0.61425763, -0.5336482, -0.39475784, -0.42670074, 7.946873664855957, -4.516495704650879, 0.3271978199481964, 25.815858840942383, -3.6663434505462646, -19.077049255371094, 
400, 2507867737, 0.6156144, -0.5292841, -0.39862233, -0.4265884, 7.395701885223389, -4.026373386383057, 0.8056795001029968, 35.794219970703125, -1.1033251285552979, -21.58933448791504, 
401, 2507884404, 0.6173861, -0.52471155, -0.40231675, -0.4262083, 6.127713680267334, -2.8900763988494873, 1.2396377325057983, 38.458290100097656, 0.3789743483066559, -19.214797973632812, 
402, 2507901071, 0.61889213, -0.52086496, -0.40541056, -0.4258104, 4.3495965003967285, -1.7425490617752075, 1.6527199745178223, 32.69807434082031, -0.00892606656998396, -15.755763053894043, 
403, 2507917738, 0.6197142, -0.51799667, -0.40799558, -0.42564464, 2.680887460708618, -1.5398845672607422, 1.854225754737854, 23.95610237121582, -1.810400128364563, -14.197195053100586, 
404, 2507934405, 0.62053084, -0.5153262, -0.41066328, -0.4251306, 2.2231645584106445, -2.3604323863983154, 1.6021212339401245, 23.856054306030273, -3.892845392227173, -12.543235778808594, 
405, 2507951072, 0.6223787, -0.511535, -0.4141479, -0.42362508, 3.5911972522735596, -2.9743130207061768, 1.1768970489501953, 37.47123336791992, -4.734584808349609, -11.386393547058105, 
406, 2507967739, 0.6254945, -0.50625336, -0.41833878, -0.42125642, 6.405990123748779, -2.995192050933838, 0.923980176448822, 52.82002258300781, -2.860673427581787, -10.760108947753906, 
407, 2507984406, 0.6299971, -0.4994025, -0.42266303, -0.41839844, 9.306796073913574, -2.449026346206665, 0.8355135917663574, 66.19136810302734, 3.386199712753296, -9.6326265335083, 
408, 2508001073, 0.6353854, -0.49089062, -0.4268972, -0.41601765, 11.148497581481934, -0.659566342830658, 1.0378706455230713, 74.78495788574219, 12.76652717590332, -13.658219337463379, 
409, 2508017740, 0.6389733, -0.4837396, -0.4301897, -0.4155071, 12.891180992126465, 0.2581234872341156, 0.6158658266067505, 54.577728271484375, 14.02042007446289, -19.7503662109375, 
410, 2508034407, 0.6402976, -0.47912434, -0.4322137, -0.41671357, 17.23565673828125, -1.3802345991134644, 0.37352120876312256, 27.205503463745117, 11.389694213867188, -21.96241569519043, 
411, 2508051074, 0.6430535, -0.47274384, -0.43417415, -0.4177183, 20.57686996459961, -1.2044471502304077, 1.478187918663025, 40.1168212890625, 20.364465713500977, -21.940946578979492, 
412, 2508067741, 0.6450521, -0.46762258, -0.4342301, -0.42033464, 15.509766578674316, 2.5248801708221436, 3.5164377689361572, 21.80811309814453, 28.185829162597656, -21.209381103515625, 
413, 2508084408, 0.64187324, -0.4697173, -0.4305881, -0.42656583, 10.015216827392578, 2.198615550994873, 3.403435230255127, -48.34294891357422, 19.886281967163086, -18.641841888427734, 
414, 2508101075, 0.6360307, -0.47580984, -0.42491847, -0.43418244, 8.975235939025879, -1.3567519187927246, 1.9477574825286865, -84.660400390625, 13.669365882873535, -14.090675354003906, 
415, 2508117742, 0.6316595, -0.4803839, -0.41994518, -0.44032246, 9.526606559753418, -3.577004909515381, 0.7577806711196899, -66.81754302978516, 14.62271499633789, -9.935147285461426, 
416, 2508134409, 0.62930423, -0.4825594, -0.41622564, -0.44482476, 8.881352424621582, -3.1473424434661865, 0.5582355856895447, -41.20935821533203, 16.86952018737793, -7.807677268981934, 
417, 2508151076, 0.627042, -0.4845642, -0.41251504, -0.44927403, 7.267237663269043, -1.840383529663086, 0.6898711919784546, -39.9743766784668, 17.465585708618164, -7.82797908782959, 
418, 2508167743, 0.6239169, -0.48749205, -0.40790555, -0.45463425, 5.516763210296631, -1.357112169265747, 0.7758283615112305, -52.18476867675781, 19.090333938598633, -8.805768966674805, 
419, 2508184410, 0.6203264, -0.49095127, -0.4025238, -0.4605833, 3.5739619731903076, -1.5913591384887695, 0.7806824445724487, -60.08894348144531, 21.416135787963867, -8.703412055969238, 
420, 2508201077, 0.6170657, -0.49467197, -0.39679646, -0.4659207, 2.324492931365967, -1.9058696031570435, 0.7240750789642334, -59.491058349609375, 20.907920837402344, -3.1708199977874756, 
421, 2508217744, 0.61441845, -0.498589, -0.3908759, -0.47022855, 2.6657464504241943, -1.7945353984832764, 0.5759116411209106, -56.04548263549805, 19.26579475402832, 4.333702087402344, 
422, 2508234411, 0.61157036, -0.5030367, -0.3847432, -0.47424504, 4.912248611450195, -2.1238603591918945, 0.4504551887512207, -58.87437438964844, 16.907865524291992, 7.052454471588135, 
423, 2508251078, 0.6086897, -0.5070076, -0.3790226, -0.47831205, 8.0376615524292, -3.0316450595855713, 0.5451908707618713, -55.76712417602539, 16.828611373901367, 4.03603982925415, 
424, 2508267745, 0.605958, -0.50952214, -0.3742878, -0.48281574, 11.490706443786621, -3.465782403945923, 1.128771424293518, -47.04069137573242, 19.422910690307617, -4.546757221221924, 
425, 2508284412, 0.60270935, -0.51091766, -0.37026042, -0.48847926, 15.347291946411133, -4.268152236938477, 1.2147201299667358, -44.81816101074219, 22.947113037109375, -16.455005645751953, 
426, 2508301079, 0.59898245, -0.51074225, -0.36816922, -0.494787, 19.484996795654297, -5.508490562438965, 1.7251646518707275, -35.11571502685547, 21.28177261352539, -31.53013038635254, 
427, 2508317746, 0.59564465, -0.5076539, -0.36896726, -0.50135654, 18.88209342956543, -4.627036094665527, 3.5758471488952637, -12.57671070098877, 21.241533279418945, -48.80747985839844, 
428, 2508334413, 0.59055346, -0.5064859, -0.37025887, -0.50757, 15.861400604248047, -5.25391149520874, 4.855989456176758, -23.958984375, 6.918891906738281, -50.23764419555664, 
429, 2508351080, 0.58737814, -0.5039862, -0.37369663, -0.51121026, 15.851434707641602, -7.151602268218994, 4.7255167961120605, 2.153799533843994, -1.2555558681488037, -43.99089431762695, 
430, 2508367747, 0.58881915, -0.49758247, -0.38014272, -0.5110728, 14.479389190673828, -6.357800006866455, 4.540052890777588, 54.19845962524414, -0.937905490398407, -33.02891159057617, 
431, 2508384414, 0.5925526, -0.48969138, -0.38746333, -0.5088773, 11.872262954711914, -3.9341633319854736, 3.8325555324554443, 76.51642608642578, -0.3297709822654724, -23.582271575927734, 
432, 2508401081, 0.59553576, -0.48321795, -0.39354068, -0.5069155, 9.404118537902832, -2.9058847427368164, 2.7740981578826904, 63.23979949951172, -1.464812994003296, -19.22503662109375, 
433, 2508417748, 0.59704643, -0.47890794, -0.3977112, -0.5059729, 7.438778400421143, -2.8435401916503906, 2.0261874198913574, 40.08455276489258, -1.811662197113037, -16.36100196838379, 
434, 2508434415, 0.5971902, -0.47648975, -0.39992216, -0.5063436, 5.646615505218506, -2.594083309173584, 1.8525590896606445, 17.41112518310547, 0.22740918397903442, -14.906488418579102, 
435, 2508451082, 0.5963674, -0.47509846, -0.40068763, -0.50801265, 3.2279796600341797, -2.7928900718688965, 2.008732557296753, 1.4283255338668823, 4.17262601852417, -16.06837272644043, 
436, 2508467749, 0.5956516, -0.47315565, -0.40125093, -0.51021636, 0.7032214403152466, -3.6638998985290527, 1.9814727306365967, 1.860656499862671, 8.945588111877441, -18.781768798828125, 
437, 2508484416, 0.5964626, -0.46859437, -0.40316024, -0.51197064, -0.2810520529747009, -4.454766750335693, 1.7138065099716187, 23.518375396728516, 15.334785461425781, -23.24619483947754, 
438, 2508501083, 0.5993389, -0.46087405, -0.40648448, -0.51298964, 1.1791620254516602, -4.218787670135498, 1.4791353940963745, 50.156394958496094, 23.971391677856445, -26.349864959716797, 
439, 2508517750, 0.60341, -0.45138973, -0.41028142, -0.51362735, 3.899644613265991, -3.0432896614074707, 1.1115219593048096, 63.95607376098633, 30.34725570678711, -27.05661392211914, 
440, 2508534417, 0.6075799, -0.4419551, -0.4136501, -0.51421416, 6.468722820281982, -1.9665461778640747, 0.9134640097618103, 62.70061111450195, 32.05630111694336, -25.063993453979492, 
441, 2508551084, 0.6122131, -0.43251005, -0.41701454, -0.51403224, 8.947548866271973, -1.4957146644592285, 0.4726673364639282, 66.33292388916016, 31.096363067626953, -20.245981216430664, 
442, 2508567751, 0.61816335, -0.4216294, -0.42187035, -0.51198465, 11.008851051330566, -0.7961079478263855, 0.40410083532333374, 86.92345428466797, 28.14385986328125, -16.29102897644043, 
443, 2508584418, 0.6247526, -0.41047078, -0.42860976, -0.50743645, 13.04317569732666, 0.29513880610466003, 0.9696742296218872, 103.8488998413086, 15.752388954162598, -9.670141220092773, 
444, 2508601085, 0.6313571, -0.40041748, -0.4362928, -0.5007023, 15.979808807373047, 1.357124924659729, 2.4697041511535645, 108.87855529785156, 1.7515976428985596, 0.394029438495636, 
445, 2508617752, 0.63794535, -0.39166155, -0.4432391, -0.49311906, 15.892828941345215, 2.8821098804473877, 3.916327476501465, 103.20378112792969, -1.8780262470245361, 9.9903564453125, 
446, 2508634419, 0.6428021, -0.38590178, -0.44787842, -0.4871246, 12.19487190246582, 3.955228805541992, 4.379730701446533, 72.71833038330078, -2.910964250564575, 12.56244945526123, 
447, 2508651086, 0.644321, -0.38495338, -0.4495036, -0.48436335, 9.790924072265625, 3.832244873046875, 3.941861391067505, 22.521682739257812, -7.418703079223633, 9.990897178649902, 
448, 2508667753, 0.643314, -0.38851863, -0.44847116, -0.483812, 8.319219589233398, 1.6812455654144287, 2.46069598197937, -19.861528396606445, -12.648408889770508, 12.851537704467773, 
449, 2508684420, 0.6420289, -0.3932879, -0.44682664, -0.4831872, 7.206480503082275, -0.21085067093372345, 1.1864187717437744, -27.7502384185791, -14.997835159301758, 17.63897132873535, 
450, 2508701087, 0.6417191, -0.3966326, -0.4460197, -0.48160732, 5.874259948730469, -0.47655078768730164, 1.0578964948654175, -13.109026908874512, -13.531009674072266, 18.462522506713867, 
451, 2508717754, 0.64191955, -0.39887267, -0.44553494, -0.47993606, 4.220435619354248, 0.139445960521698, 1.5091832876205444, -5.496473789215088, -9.968585968017578, 16.291109085083008, 
452, 2508734421, 0.6418322, -0.4010442, -0.44463712, -0.47907525, 3.085327386856079, 0.3207642734050751, 1.695570707321167, -9.832515716552734, -6.582529067993164, 12.698535919189453, 
453, 2508751088, 0.64071643, -0.40375173, -0.4428817, -0.4799197, 3.359057664871216, 0.21331097185611725, 1.8144057989120483, -23.07560157775879, -3.018693208694458, 5.802459716796875, 
454, 2508767755, 0.6381924, -0.40747643, -0.44028705, -0.48251507, 5.116413116455078, -0.35581591725349426, 1.5572776794433594, -39.57175064086914, -2.117567300796509, -1.1180773973464966, 
455, 2508784422, 0.63491493, -0.41194353, -0.4376909, -0.4853992, 8.379436492919922, -1.8804486989974976, 1.5067100524902344, -45.82015609741211, -6.044373512268066, -2.6273701190948486, 
456, 2508801089, 0.63249594, -0.4157839, -0.43642896, -0.48641816, 12.690009117126465, -2.601496696472168, 1.7531943321228027, -30.582975387573242, -12.460395812988281, 2.700965642929077, 
457, 2508817756, 0.63172185, -0.41725555, -0.4374611, -0.4852351, 16.60045051574707, -2.2131056785583496, 2.7210869789123535, -1.2926228046417236, -15.842506408691406, 4.092906475067139, 
458, 2508834423, 0.6320698, -0.41576007, -0.440953, -0.4828993, 18.67637062072754, -1.5190436840057373, 4.1292405128479, 26.491811752319336, -16.530338287353516, -3.1429708003997803, 
459, 2508851090, 0.6330649, -0.4120623, -0.4459642, -0.48015553, 17.861600875854492, -0.624360203742981, 5.848101615905762, 44.19263458251953, -15.0130033493042, -10.234160423278809, 
460, 2508867757, 0.6330836, -0.40876094, -0.45060566, -0.47861725, 15.725677490234375, -0.23338547348976135, 6.960696220397949, 34.77523422241211, -14.309215545654297, -16.421571731567383, 
461, 2508884424, 0.6322218, -0.40737477, -0.45448267, -0.4772704, 15.041956901550293, -2.1849265098571777, 6.074793338775635, 20.84256935119629, -19.5186767578125, -12.049784660339355, 
462, 2508901091, 0.63295007, -0.4051373, -0.45963654, -0.47325706, 14.63331127166748, -3.6670925617218018, 4.856551647186279, 41.51523971557617, -24.810823440551758, -1.4906138181686401, 
463, 2508917758, 0.636558, -0.40002036, -0.46690774, -0.4655908, 13.610617637634277, -3.1058506965637207, 4.39479923248291, 80.50534057617188, -25.75088882446289, 8.740671157836914, 
464, 2508934425, 0.64207906, -0.3924646, -0.47494015, -0.45622146, 11.971488952636719, -0.9800540804862976, 4.423936367034912, 104.34844207763672, -19.84217643737793, 12.364113807678223, 
465, 2508951092, 0.64711654, -0.38534087, -0.48126242, -0.44848582, 9.350870132446289, 0.6793926954269409, 4.189447402954102, 90.43053436279297, -10.846990585327148, 9.661541938781738, 
466, 2508967759, 0.649604, -0.3816201, -0.4846622, -0.44439104, 6.738758087158203, 1.004578948020935, 3.6071746349334717, 47.4654541015625, -7.163137912750244, 4.627350330352783, 
467, 2508984426, 0.6496473, -0.3813939, -0.48552758, -0.4435764, 4.334423065185547, 0.12915915250778198, 2.9560914039611816, 6.7610368728637695, -6.090130805969238, 0.830274224281311, 
468, 2509001093, 0.6485606, -0.38256958, -0.48538128, -0.44431373, 2.1213715076446533, -1.4058213233947754, 2.335763454437256, -10.735830307006836, -5.577635288238525, -2.2072203159332275, 
469, 2509017760, 0.6480707, -0.38252366, -0.48617497, -0.4442003, 1.163702368736267, -3.314509391784668, 1.6713917255401611, 1.9912402629852295, -6.309496879577637, -3.157034397125244, 
470, 2509034427, 0.6500295, -0.37857398, -0.48951954, -0.44103742, 2.583271026611328, -4.111025810241699, 1.0936180353164673, 43.814666748046875, -5.609546661376953, -1.8962045907974243, 
471, 2509051094, 0.65462565, -0.37056178, -0.49517867, -0.43468076, 5.30348539352417, -2.557548999786377, 1.1881099939346313, 86.61370849609375, -3.0822367668151855, 0.6207594275474548, 
472, 2509067761, 0.6600953, -0.36143264, -0.5009809, -0.42738602, 8.07365894317627, -0.3711380064487457, 1.389183521270752, 97.49523162841797, 0.18963637948036194, 3.2589986324310303, 
473, 2509084428, 0.6652738, -0.35309422, -0.5057765, -0.42062506, 10.830985069274902, 1.4273589849472046, 1.4378635883331299, 88.38565063476562, 2.7587497234344482, 5.214089870452881, 
474, 2509101095, 0.6695042, -0.34669212, -0.5092368, -0.415026, 13.23189640045166, 2.7642059326171875, 1.5849512815475464, 69.31993865966797, 2.8031020164489746, 7.168439865112305, 
475, 2509117762, 0.6726186, -0.34285584, -0.5115672, -0.4102843, 14.037882804870605, 3.042212963104248, 1.7878133058547974, 48.613189697265625, -1.157480001449585, 11.770880699157715, 
476, 2509134429, 0.675314, -0.34040546, -0.51320255, -0.40583056, 13.216552734375, 3.036576509475708, 2.274125099182129, 38.235816955566406, -2.6258742809295654, 15.828615188598633, 
477, 2509151096, 0.6771825, -0.3399857, -0.51371604, -0.40240487, 11.794753074645996, 3.514824390411377, 2.4670169353485107, 20.103660583496094, -3.579090118408203, 18.596439361572266, 
478, 2509167763, 0.6773018, -0.3429932, -0.51257706, -0.4011022, 12.339117050170898, 2.945254325866699, 2.0874807834625244, -12.025649070739746, -6.575510501861572, 19.902935028076172, 
479, 2509184430, 0.6768394, -0.3477294, -0.5101376, -0.40091437, 12.622611045837402, 1.653774619102478, 1.4513351917266846, -28.971858978271484, -4.693940162658691, 22.321073532104492, 
480, 2509201097, 0.67629945, -0.35274035, -0.5068954, -0.40156016, 11.278135299682617, 1.4849952459335327, 1.428311824798584, -35.575679779052734, 0.02881445363163948, 21.146339416503906, 
481, 2509217764, 0.6748702, -0.35889938, -0.5025654, -0.40394267, 9.554774284362793, 1.543737530708313, 1.579775094985962, -52.13204574584961, 3.0496339797973633, 17.28826904296875, 
482, 2509234431, 0.67226434, -0.3665058, -0.49707353, -0.40823042, 7.773504734039307, 1.0879371166229248, 1.7974110841751099, -71.56575012207031, 5.065467357635498, 13.082161903381348, 
483, 2509251098, 0.6691273, -0.3745188, -0.49076033, -0.41371349, 5.426602363586426, 0.5773521661758423, 1.983773112297058, -81.17989349365234, 8.914968490600586, 9.551114082336426, 
484, 2509267765, 0.66539025, -0.38294694, -0.48390865, -0.42004758, 3.257570743560791, 0.015154223889112473, 1.937443494796753, -89.043212890625, 10.366586685180664, 6.730068683624268, 
485, 2509284432, 0.6612243, -0.39141846, -0.47693053, -0.42674536, 2.8966615200042725, -0.8527246117591858, 1.6685518026351929, -91.9504623413086, 10.330016136169434, 4.308826446533203, 
486, 2509301099, 0.65735257, -0.3987768, -0.47044015, -0.43307158, 3.9252026081085205, -1.742322564125061, 1.3119148015975952, -83.44975280761719, 11.328741073608398, 1.8873573541641235, 
487, 2509317766, 0.6538856, -0.40471733, -0.46525806, -0.43837497, 6.241992950439453, -2.7441320419311523, 1.1739652156829834, -68.7238540649414, 8.135045051574707, -0.4792729318141937, 
488, 2509334433, 0.65133554, -0.4090124, -0.46193603, -0.44168562, 10.271821975708008, -3.7998545169830322, 1.3963418006896973, -46.78692626953125, 2.1263763904571533, 0.7747581601142883, 
489, 2509351100, 0.6513273, -0.40957245, -0.4609242, -0.44223562, 14.81831169128418, -3.4992265701293945, 2.555850028991699, -7.1193976402282715, 3.4498584270477295, 2.4612977504730225, 
490, 2509367767, 0.6533308, -0.4063866, -0.46157938, -0.44153535, 15.872307777404785, -1.0093873739242554, 4.401117324829102, 24.357986450195312, 10.244523048400879, -2.412094831466675, 
491, 2509384434, 0.6541506, -0.40456253, -0.46163604, -0.44193715, 13.782513618469238, 0.24311597645282745, 5.160178184509277, 9.614736557006836, 8.116520881652832, -4.94671106338501, 
492, 2509401101, 0.6529618, -0.40578884, -0.4609818, -0.44325188, 14.089288711547852, -0.5954101085662842, 4.692814826965332, -14.758100509643555, -1.8137136697769165, -3.468295097351074, 
493, 2509417768, 0.65096277, -0.40807945, -0.46048233, -0.4446063, 15.457026481628418, -1.8142250776290894, 4.2378740310668945, -21.456287384033203, -8.225021362304688, -3.1589229106903076, 
494, 2509434435, 0.64982176, -0.4091931, -0.46108076, -0.44463167, 14.747214317321777, -3.2830467224121094, 3.9544191360473633, -6.218613147735596, -10.557726860046387, -1.3920893669128418, 
495, 2509451102, 0.6507956, -0.40740466, -0.4633966, -0.44243672, 12.769731521606445, -3.5374186038970947, 3.841097354888916, 24.98863410949707, -8.902841567993164, 0.9396616816520691, 
496, 2509467769, 0.65379745, -0.40279204, -0.46682283, -0.4386162, 10.553537368774414, -2.537904977798462, 3.903254508972168, 51.866737365722656, -3.3805506229400635, 2.2480034828186035, 
497, 2509484436, 0.657787, -0.3966361, -0.47039148, -0.4344284, 7.193689346313477, -1.0077074766159058, 3.6654341220855713, 63.14826965332031, 2.770474910736084, 1.514154314994812, 
498, 2509501103, 0.6607534, -0.39149073, -0.47328943, -0.4314361, 3.6120798587799072, -0.08433382213115692, 3.4171669483184814, 49.912986755371094, 2.711505651473999, -1.853197693824768, 
499, 2509517770, 0.66190016, -0.3886512, -0.47485307, -0.4305268, 1.3812158107757568, -0.31391751766204834, 2.9570486545562744, 23.79619598388672, 1.586902141571045, -5.612119674682617, 
500, 2509534437, 0.6619624, -0.38755497, -0.47518158, -0.4310563, 0.897661030292511, -1.2204945087432861, 2.1159207820892334, 4.60606050491333, 2.3182570934295654, -6.3796706199646, 
501, 2509551104, 0.6620766, -0.3863631, -0.47524926, -0.4318754, 1.8185499906539917, -2.305521011352539, 1.3715391159057617, 3.4602506160736084, 4.707461833953857, -7.178005695343018, 
502, 2509567771, 0.66336185, -0.38338345, -0.47605062, -0.43167603, 4.083821773529053, -2.81697416305542, 0.5799210667610168, 20.218772888183594, 7.7866010665893555, -6.883258819580078, 
503, 2509584438, 0.6661042, -0.37764162, -0.47831926, -0.43000323, 7.01159143447876, -2.603175163269043, 0.45941731333732605, 45.84477615356445, 10.187872886657715, -8.77718448638916, 
504, 2509601105, 0.6702476, -0.36941558, -0.4816654, -0.4269645, 10.614144325256348, -1.9052132368087769, 0.6575887203216553, 68.54791259765625, 13.677172660827637, -9.369200706481934, 
505, 2509617772, 0.67531884, -0.3598845, -0.48526055, -0.42302465, 13.589729309082031, -0.45659708976745605, 1.0425575971603394, 80.64096069335938, 17.17423439025879, -7.455601692199707, 
506, 2509634439, 0.680008, -0.35166734, -0.48841086, -0.41877702, 14.95814037322998, 0.9229578971862793, 1.4097026586532593, 73.33316040039062, 13.416535377502441, -1.6400774717330933, 
507, 2509651106, 0.6835413, -0.34627566, -0.49055818, -0.41499057, 15.448874473571777, 1.7039042711257935, 2.177234649658203, 52.89031219482422, 7.239630699157715, 4.818937301635742, 
508, 2509667773, 0.6858876, -0.34460673, -0.4913753, -0.41152748, 14.742391586303711, 2.048025608062744, 2.804800271987915, 27.677593231201172, -0.3339203894138336, 15.674748420715332, 
509, 2509684440, 0.6872028, -0.34649897, -0.49093294, -0.40825942, 13.586402893066406, 1.8772238492965698, 2.7637901306152344, 4.211975574493408, -7.473679542541504, 26.89389419555664, 
510, 2509701107, 0.68828404, -0.35043505, -0.4899264, -0.40426812, 12.0214262008667, 1.4254062175750732, 2.239145517349243, -5.152011871337891, -13.043997764587402, 37.93605422973633, 
511, 2509717774, 0.6890153, -0.35572016, -0.48882934, -0.3997087, 10.187378883361816, 1.4541823863983154, 1.9420957565307617, -10.723355293273926, -18.897964477539062, 44.44498062133789, 
512, 2509734441, 0.68872553, -0.36269814, -0.487156, -0.39596286, 9.16120433807373, 1.1433658599853516, 1.949493646621704, -25.56146812438965, -22.25098991394043, 44.91577911376953, 
513, 2509751108, 0.68761796, -0.37083057, -0.48470291, -0.39335638, 8.900957107543945, 0.18306034803390503, 1.6754436492919922, -39.00980758666992, -21.595178604125977, 43.13323211669922, 
514, 2509767775, 0.6865371, -0.37863174, -0.48189956, -0.39125142, 9.22694206237793, -0.48769786953926086, 1.35129714012146, -39.995479583740234, -17.668701171875, 40.639923095703125, 
515, 2509784442, 0.6858674, -0.38530147, -0.47897756, -0.3894987, 9.30411148071289, -0.20961497724056244, 1.360835075378418, -35.067840576171875, -11.77481460571289, 36.653568267822266, 
516, 2509801109, 0.6850751, -0.3913768, -0.4758693, -0.38864508, 9.271377563476562, 0.02407858893275261, 1.5387654304504395, -36.0485725402832, -7.3163065910339355, 30.636287689208984, 
517, 2509817776, 0.684204, -0.3970394, -0.4725388, -0.38849962, 8.87171745300293, 0.12920790910720825, 1.9190356731414795, -37.22873306274414, -3.512698173522949, 26.357288360595703, 
518, 2509834443, 0.6830636, -0.40286896, -0.4687875, -0.38904887, 7.618131160736084, 0.37972554564476013, 2.473677158355713, -42.132591247558594, -0.9569815397262573, 24.08116912841797, 
519, 2509851110, 0.68115765, -0.40967286, -0.46444932, -0.3904862, 6.099361896514893, 0.033729515969753265, 2.648988723754883, -53.266937255859375, -0.8273767232894897, 22.651390075683594, 
520, 2509867777, 0.6785066, -0.41720966, -0.46015778, -0.39219865, 5.794565200805664, -1.1044358015060425, 2.402641534805298, -59.55869674682617, -4.637226104736328, 21.5843448638916, 
521, 2509884444, 0.67611396, -0.42399368, -0.45672956, -0.39306173, 7.580986022949219, -2.229663848876953, 2.1814334392547607, -50.292606353759766, -8.269526481628418, 21.384836196899414, 
522, 2509901111, 0.6749417, -0.42895433, -0.45438725, -0.39240804, 10.289138793945312, -2.474726676940918, 2.427978992462158, -30.5593318939209, -8.985970497131348, 22.83286476135254, 
523, 2509917778, 0.6748266, -0.43228725, -0.45274517, -0.3908438, 12.615883827209473, -1.8878488540649414, 2.900984048843384, -15.154284477233887, -7.228936672210693, 22.756816864013672, 
524, 2509934445, 0.67465556, -0.43502483, -0.4513388, -0.3897264, 14.521356582641602, -0.9322160482406616, 3.5604782104492188, -13.31921100616455, -5.570600509643555, 17.98956298828125, 
525, 2509951112, 0.67307496, -0.4385275, -0.44956324, -0.39058545, 15.49016284942627, -0.20831149816513062, 4.217124938964844, -28.212249755859375, -4.377204418182373, 8.554372787475586, 
526, 2509967779, 0.6692023, -0.4446652, -0.44673237, -0.3935371, 15.143303871154785, -0.3996509313583374, 4.524940013885498, -56.628177642822266, -7.359068870544434, 4.083467483520508, 
527, 2509984446, 0.66340923, -0.45284647, -0.44339213, -0.39777106, 15.007729530334473, -2.0034375190734863, 4.2974853515625, -77.23139190673828, -12.54682445526123, 0.8597856760025024, 
528, 2510001113, 0.6578594, -0.45999148, -0.44119725, -0.4012157, 15.283817291259766, -3.71374249458313, 4.216950416564941, -66.21390533447266, -16.674339294433594, -1.5814372301101685, 
529, 2510017780, 0.6543364, -0.46408018, -0.4409802, -0.4025047, 15.089385986328125, -4.2228569984436035, 4.366151809692383, -33.986026763916016, -17.87724494934082, -1.768412470817566, 
530, 2510034447, 0.6527892, -0.4651607, -0.44245744, -0.40214872, 14.461013793945312, -3.3983042240142822, 4.7746686935424805, -4.4760026931762695, -16.452167510986328, -3.4320664405822754, 
531, 2510051114, 0.65200555, -0.46483907, -0.44451353, -0.4015237, 13.51124382019043, -2.3794655799865723, 4.828068733215332, 6.67170524597168, -13.733357429504395, -6.228752613067627, 
532, 2510067781, 0.6509685, -0.46444076, -0.44632694, -0.4016556, 12.1600923538208, -1.990748405456543, 4.539407253265381, 3.2144346237182617, -10.816742897033691, -9.768991470336914, 
533, 2510084448, 0.6494951, -0.46422118, -0.44782323, -0.40262786, 10.604839324951172, -2.117969036102295, 3.998234748840332, -2.441622257232666, -8.57374382019043, -13.163825035095215, 
534, 2510101115, 0.6480008, -0.4634981, -0.4493264, -0.40419123, 9.238749504089355, -2.514975070953369, 3.579420566558838, -2.0681188106536865, -5.41195011138916, -17.429889678955078, 
535, 2510117782, 0.6470913, -0.46170333, -0.45112994, -0.4056904, 8.125627517700195, -2.7914931774139404, 3.2466623783111572, 5.599392414093018, -2.1920595169067383, -19.79337501525879, 
536, 2510134449, 0.64705306, -0.45869043, -0.45337263, -0.40666822, 7.319501876831055, -2.8325254917144775, 2.8627140522003174, 16.62466049194336, 0.2806966006755829, -20.22794532775879, 
537, 2510151116, 0.64800423, -0.45441702, -0.45622328, -0.40676305, 6.964335918426514, -2.501413106918335, 2.6604394912719727, 29.80603790283203, 1.384666919708252, -19.394102096557617, 
538, 2510167783, 0.6496104, -0.44938934, -0.45938158, -0.406232, 6.7913312911987305, -1.8787702322006226, 2.6194112300872803, 38.031280517578125, 2.2126052379608154, -18.113842010498047, 
539, 2510184450, 0.6513215, -0.44463742, -0.462334, -0.40537053, 6.663061618804932, -1.4286316633224487, 2.508441686630249, 37.59180450439453, 1.661838173866272, -14.842752456665039, 
540, 2510201117, 0.65289104, -0.4406198, -0.46505716, -0.40411568, 6.707913875579834, -1.2451188564300537, 2.2499237060546875, 34.47240447998047, -1.018000602722168, -10.440802574157715, 
541, 2510217784, 0.6545623, -0.43691948, -0.46773204, -0.4023385, 6.80738639831543, -1.212618350982666, 2.030306100845337, 34.89628219604492, -2.9477338790893555, -6.6510009765625, 
542, 2510234451, 0.65653706, -0.43304753, -0.47059363, -0.39996314, 6.91719913482666, -1.1214743852615356, 1.8150553703308105, 39.02201461791992, -4.137913703918457, -4.228749752044678, 
543, 2510251118, 0.6587158, -0.4290664, -0.47359827, -0.39711514, 7.447731018066406, -1.0337499380111694, 1.5757867097854614, 42.043113708496094, -5.22933292388916, -2.3110547065734863, 
544, 2510267785, 0.6610087, -0.4250901, -0.4766785, -0.39388278, 8.384318351745605, -0.9104313254356384, 1.3487600088119507, 43.814945220947266, -6.3416972160339355, -0.4600328207015991, 
545, 2510284452, 0.6632912, -0.42125112, -0.47973832, -0.39044052, 9.49870491027832, -0.7987638711929321, 1.1048680543899536, 43.79502868652344, -7.259815692901611, 0.9846422076225281, 
546, 2510301119, 0.66553545, -0.4175096, -0.48283252, -0.38680902, 10.81983470916748, -0.68461674451828, 1.0857059955596924, 43.951576232910156, -8.337056159973145, 1.9782556295394897, 
547, 2510317786, 0.66796505, -0.4135925, -0.48580608, -0.3830881, 11.783960342407227, -0.16737355291843414, 1.1838001012802124, 45.269508361816406, -6.942065715789795, 2.660109758377075, 
548, 2510334453, 0.6702908, -0.41024512, -0.48820966, -0.3795534, 11.726794242858887, 0.5154659748077393, 1.4141192436218262, 40.235443115234375, -5.624864101409912, 5.079061031341553, 
549, 2510351120, 0.6720312, -0.40842253, -0.48955926, -0.37669203, 10.991449356079102, 1.2167750597000122, 1.5908617973327637, 26.543087005615234, -4.79752779006958, 8.5690336227417, 
550, 2510367787, 0.6726573, -0.40881908, -0.48977196, -0.37486327, 10.140109062194824, 1.5598803758621216, 1.5607082843780518, 6.733198642730713, -6.1326003074646, 11.607414245605469, 
551, 2510384454, 0.6721515, -0.4113891, -0.4890941, -0.37384298, 9.941970825195312, 1.1925828456878662, 1.346203088760376, -11.527307510375977, -9.149370193481445, 14.808408737182617, 
552, 2510401121, 0.6711196, -0.41504872, -0.48789802, -0.37321413, 10.237105369567871, 0.6888923048973083, 1.224960446357727, -20.683643341064453, -10.217727661132812, 16.809614181518555, 
553, 2510417788, 0.66990143, -0.41909105, -0.48629677, -0.37297478, 10.749733924865723, 0.40226441621780396, 1.272702693939209, -25.323888778686523, -8.840547561645508, 17.00029182434082, 
554, 2510434455, 0.668547, -0.42319107, -0.4842738, -0.37340757, 11.297208786010742, 0.15949857234954834, 1.4040194749832153, -29.308765411376953, -5.562946319580078, 14.987207412719727, 
555, 2510451122, 0.6670636, -0.42718452, -0.48188832, -0.37459755, 11.682326316833496, -0.01479247584939003, 1.5653042793273926, -32.693153381347656, -1.8346902132034302, 11.890247344970703, 
556, 2510467789, 0.6655412, -0.4310187, -0.47933364, -0.37618783, 11.68908405303955, -0.08881083130836487, 1.7863621711730957, -33.8122673034668, 0.39035850763320923, 9.94854736328125, 
557, 2510484456, 0.6638869, -0.4348182, -0.47676218, -0.37800166, 10.958745956420898, -0.015299013815820217, 2.0558626651763916, -34.78496551513672, 0.7701133489608765, 8.54540729522705, 
558, 2510501123, 0.66214246, -0.4385537, -0.47432733, -0.37980497, 10.074972152709961, -0.30939820408821106, 2.204357147216797, -34.41080856323242, -0.013862935826182365, 7.75504732131958, 
559, 2510517790, 0.660596, -0.44191217, -0.47220528, -0.3812464, 9.480685234069824, -0.55889493227005, 2.20882248878479, -30.120498657226562, -0.9043235778808594, 7.760053634643555, 
560, 2510534457, 0.6594749, -0.44480002, -0.47024712, -0.38224795, 9.081028938293457, -0.6158818006515503, 2.1806583404541016, -24.763193130493164, -0.40238288044929504, 8.865730285644531, 
561, 2510551124, 0.6587471, -0.44726735, -0.46831244, -0.38299835, 8.659331321716309, -0.53926682472229, 2.0150463581085205, -20.771764755249023, 1.0854170322418213, 9.616780281066895, 
562, 2510567791, 0.6580987, -0.44956654, -0.4662455, -0.38394162, 8.63003921508789, -0.25014635920524597, 1.8806864023208618, -20.797985076904297, 2.985159397125244, 8.82021713256836, 
563, 2510584458, 0.65707695, -0.45216537, -0.46374595, -0.3856633, 9.002213478088379, 0.037488117814064026, 1.7959364652633667, -26.984142303466797, 5.360912799835205, 6.618205547332764, 
564, 2510601125, 0.6555199, -0.4552789, -0.46060982, -0.3883987, 9.232566833496094, -0.07198644429445267, 1.9198631048202515, -35.885318756103516, 8.304132461547852, 4.255960941314697, 
565, 2510617792, 0.6535799, -0.4587937, -0.45675686, -0.39206496, 9.21786117553711, -0.47349268198013306, 2.1290876865386963, -43.77315139770508, 12.157021522521973, 2.5657644271850586, 
566, 2510634459, 0.6515133, -0.46231803, -0.4523245, -0.3964784, 8.98143196105957, -1.0616340637207031, 2.2142558097839355, -48.11686325073242, 16.675050735473633, 0.7344188094139099, 
567, 2510651126, 0.64957213, -0.46557254, -0.4476154, -0.40117165, 8.574177742004395, -1.7180312871932983, 2.247654676437378, -48.140159606933594, 19.913305282592773, -0.1341157853603363, 
568, 2510667793, 0.6482559, -0.46823463, -0.44286722, -0.4054496, 8.72919750213623, -2.298492908477783, 2.161961555480957, -42.331207275390625, 22.30137062072754, 1.7387386560440063, 
569, 2510684460, 0.6479005, -0.47013184, -0.4381304, -0.40895328, 9.777776718139648, -2.009251832962036, 2.175187349319458, -33.449222564697266, 24.80450439453125, 5.49158239364624, 
570, 2510701127, 0.647916, -0.47195703, -0.43291107, -0.41237074, 10.675768852233887, -0.9553050994873047, 2.270761013031006, -33.030975341796875, 27.985097885131836, 8.256341934204102, 
571, 2510717794, 0.64724463, -0.47491947, -0.4266676, -0.41651022, 10.887924194335938, -0.3744845390319824, 2.396273374557495, -45.47800064086914, 29.640514373779297, 9.796041488647461, 
572, 2510734461, 0.6453711, -0.47971493, -0.41903478, -0.42163926, 10.70384693145752, -0.3709138333797455, 2.249239444732666, -64.40310668945312, 30.25149917602539, 11.884503364562988, 
573, 2510751128, 0.64241296, -0.48610723, -0.41020295, -0.4274797, 10.197494506835938, -0.704081654548645, 2.043619394302368, -80.44733428955078, 30.09822654724121, 14.171874046325684, 
574, 2510767795, 0.6387462, -0.49355876, -0.400556, -0.43354118, 9.656447410583496, -1.0336121320724487, 1.7749320268630981, -90.61290740966797, 29.339405059814453, 16.817420959472656, 
575, 2510784462, 0.63477504, -0.50144553, -0.3906046, -0.4393645, 9.375277519226074, -1.4760081768035889, 1.5827964544296265, -93.8452377319336, 27.726667404174805, 19.185287475585938, 
576, 2510801129, 0.6311191, -0.50879645, -0.38082257, -0.4447351, 9.515791893005371, -1.7425121068954468, 1.4285922050476074, -88.67333984375, 27.870807647705078, 20.088924407958984, 
577, 2510817796, 0.62792075, -0.51531357, -0.3713123, -0.4497719, 9.649100303649902, -1.678361177444458, 1.3932372331619263, -81.77792358398438, 29.270957946777344, 19.79551887512207, 
578, 2510834463, 0.6246999, -0.52135825, -0.36186224, -0.45496315, 9.693571090698242, -1.5037198066711426, 1.1889389753341675, -80.03565216064453, 30.95586585998535, 17.636581420898438, 
579, 2510851130, 0.6210074, -0.5272386, -0.35239562, -0.4606372, 9.908097267150879, -1.5102343559265137, 0.978783369064331, -82.19892120361328, 32.0622673034668, 13.74877643585205, 
580, 2510867797, 0.6167792, -0.53283364, -0.34305453, -0.46688908, 10.381918907165527, -1.5480766296386719, 0.8392447233200073, -84.04975128173828, 33.2691535949707, 8.42429256439209, 
581, 2510884464, 0.6118258, -0.5380923, -0.33392408, -0.47394174, 10.84989070892334, -1.4568313360214233, 0.93845134973526, -86.46701049804688, 34.66586685180664, 1.143571376800537, 
582, 2510901131, 0.6060575, -0.5430155, -0.32494396, -0.48191273, 10.82849407196045, -1.321780800819397, 1.2042768001556396, -89.80835723876953, 36.69667434692383, -6.711960792541504, 
583, 2510917798, 0.5992851, -0.5478585, -0.3158542, -0.4908614, 9.980801582336426, -1.1323676109313965, 1.4174331426620483, -95.8287124633789, 38.84123229980469, -13.883055686950684, 
584, 2510934465, 0.5913793, -0.5528822, -0.30666304, -0.50054944, 9.001514434814453, -1.2976607084274292, 1.4518643617630005, -102.54962921142578, 38.86113357543945, -19.94281005859375, 
585, 2510951132, 0.5828851, -0.5575001, -0.29797193, -0.51054025, 8.250303268432617, -1.8313634395599365, 1.3075367212295532, -101.96056365966797, 38.0806770324707, -25.94378662109375, 
586, 2510967799, 0.5746612, -0.56091636, -0.290536, -0.5203136, 8.02436351776123, -2.4089245796203613, 1.2496329545974731, -91.47836303710938, 37.0617561340332, -31.43516731262207, 
587, 2510984466, 0.5673206, -0.5626236, -0.28476888, -0.52963084, 8.250228881835938, -2.712484836578369, 1.2524195909500122, -74.4119644165039, 36.56655502319336, -36.33429718017578, 
588, 2511001133, 0.561038, -0.5625256, -0.28069726, -0.5385262, 8.775578498840332, -2.5879971981048584, 1.416983723640442, -56.05034255981445, 36.875038146972656, -40.91043472290039, 
589, 2511017800, 0.55528116, -0.5609764, -0.27790278, -0.54748386, 9.225231170654297, -2.2509844303131104, 1.5817430019378662, -43.99212646484375, 38.642967224121094, -46.97984313964844, 
590, 2511034467, 0.5494636, -0.5585837, -0.2760166, -0.5566766, 9.789376258850098, -2.029560089111328, 1.6977393627166748, -38.050453186035156, 39.144962310791016, -53.22845458984375, 
591, 2511051134, 0.54334426, -0.5557144, -0.2747821, -0.56608605, 10.332898139953613, -1.8057541847229004, 1.8737000226974487, -35.240909576416016, 38.73746109008789, -58.597251892089844, 
592, 2511067801, 0.536712, -0.5527682, -0.2737611, -0.5757105, 10.409993171691895, -1.4413708448410034, 2.173013210296631, -36.585811614990234, 38.12310028076172, -62.37321853637695, 
593, 2511084468, 0.5290622, -0.5503926, -0.2723829, -0.5856353, 10.21871280670166, -1.0638103485107422, 2.4535670280456543, -44.4578857421875, 36.38127899169922, -65.0598373413086, 
594, 2511101135, 0.5202715, -0.5489461, -0.27028275, -0.5957543, 9.976314544677734, -1.0970293283462524, 2.6933069229125977, -55.562049865722656, 33.89619445800781, -65.91097259521484, 
595, 2511117802, 0.51081836, -0.5482057, -0.26760894, -0.6057399, 9.703681945800781, -1.4011346101760864, 2.8178699016571045, -62.666038513183594, 31.302204132080078, -64.66546630859375, 
596, 2511134469, 0.50118154, -0.5479328, -0.26460314, -0.61528194, 9.526361465454102, -1.5955147743225098, 2.858485460281372, -65.48650360107422, 28.47669792175293, -61.753456115722656, 
597, 2511151136, 0.49176592, -0.5479335, -0.26152995, -0.62412924, 9.503863334655762, -1.8679109811782837, 2.7948193550109863, -64.66079711914062, 25.334192276000977, -57.691890716552734, 
598, 2511167803, 0.48288488, -0.54802483, -0.25867394, -0.6321227, 9.392313957214355, -1.969122290611267, 2.876344680786133, -60.46632766723633, 21.940330505371094, -53.175018310546875, 
599, 2511184470, 0.47446933, -0.5482069, -0.25586754, -0.6394372, 9.211348533630371, -1.7764743566513062, 3.0352160930633545, -57.59421920776367, 19.64162826538086, -48.93989562988281, 
600, 2511201137, 0.4661015, -0.54878306, -0.2526018, -0.64635825, 9.141584396362305, -1.5231627225875854, 3.1880359649658203, -60.070987701416016, 18.00563621520996, -45.045265197753906, 
601, 2511217804, 0.45734432, -0.5499669, -0.2484088, -0.6531967, 9.263517379760742, -1.5103404521942139, 3.013477325439453, -67.3065185546875, 17.246883392333984, -41.939754486083984, 
602, 2511234471, 0.4482137, -0.55159456, -0.24342649, -0.65999365, 9.493875503540039, -1.6727609634399414, 2.8460569381713867, -73.65495300292969, 16.940462112426758, -39.7724609375, 
603, 2511251138, 0.43878394, -0.55345947, -0.23778297, -0.6667913, 9.505146980285645, -1.6759768724441528, 2.7100799083709717, -78.61656188964844, 17.412508010864258, -38.26508712768555, 
604, 2511267805, 0.4289282, -0.55548435, -0.23145035, -0.6737123, 9.508121490478516, -1.7785277366638184, 2.6437320709228516, -83.98629760742188, 18.506433486938477, -37.70691680908203, 
605, 2511284472, 0.41891256, -0.55748016, -0.22465838, -0.6806299, 9.666679382324219, -1.8754949569702148, 2.5895864963531494, -86.73114776611328, 19.738311767578125, -36.77125549316406, 
606, 2511301139, 0.4086867, -0.55941796, -0.21728125, -0.687616, 9.588759422302246, -1.7005671262741089, 2.6405510902404785, -90.08151245117188, 21.605453491210938, -35.795310974121094, 
607, 2511317806, 0.39788425, -0.5614829, -0.2090337, -0.69478786, 9.250543594360352, -1.6822007894515991, 2.65266752243042, -97.06588745117188, 23.30124855041504, -35.532161712646484, 
608, 2511334473, 0.38642654, -0.56372905, -0.19999789, -0.7020577, 9.103869438171387, -1.912876009941101, 2.553502082824707, -103.82720184326172, 23.995664596557617, -35.616302490234375, 
609, 2511351140, 0.37484977, -0.5658198, -0.19069067, -0.70920575, 9.057106018066406, -2.267404317855835, 2.443347692489624, -105.07981872558594, 24.835485458374023, -35.07058334350586, 
610, 2511367807, 0.36348134, -0.5677227, -0.18148048, -0.71598685, 8.972265243530273, -2.3752734661102295, 2.348113536834717, -102.9339828491211, 24.360126495361328, -33.786808013916016, 
611, 2511384474, 0.3524288, -0.5694315, -0.1723513, -0.7223829, 8.996183395385742, -2.33117938041687, 2.4095680713653564, -100.31857299804688, 23.999589920043945, -31.85580825805664, 
612, 2511401141, 0.34163558, -0.57111675, -0.16306095, -0.72836953, 8.95440673828125, -2.1336240768432617, 2.4802021980285645, -99.55548858642578, 23.21106719970703, -29.002681732177734, 
613, 2511417808, 0.33073664, -0.5730393, -0.15321623, -0.7340056, 8.951300621032715, -1.892579436302185, 2.6057047843933105, -102.86498260498047, 21.824480056762695, -26.284456253051758, 
614, 2511434475, 0.31952417, -0.57529265, -0.14245854, -0.7393567, 9.023463249206543, -1.7922030687332153, 2.621631622314453, -109.13299560546875, 20.77410125732422, -23.294818878173828, 
615, 2511451142, 0.30794558, -0.5780096, -0.13050306, -0.744341, 9.026799201965332, -1.7495150566101074, 2.435821056365967, -117.46719360351562, 19.258899688720703, -19.21573257446289, 
616, 2511467809, 0.2961445, -0.58123285, -0.11746931, -0.7487776, 8.858399391174316, -1.9893875122070312, 2.1882107257843018, -124.43891906738281, 16.575849533081055, -14.479172706604004, 
617, 2511484476, 0.2844775, -0.58476686, -0.103791766, -0.7525608, 8.679101943969727, -2.1452269554138184, 2.1236932277679443, -127.21593475341797, 13.773804664611816, -9.639630317687988, 
618, 2511501143, 0.27315184, -0.58855426, -0.089441694, -0.75564027, 8.542325973510742, -2.2090699672698975, 2.1188066005706787, -129.31187438964844, 11.19891357421875, -3.6410226821899414, 
619, 2511517810, 0.26203954, -0.5926052, -0.074046865, -0.7580709, 8.468206405639648, -2.0848324298858643, 2.1673245429992676, -134.02801513671875, 9.313145637512207, 3.0336782932281494, 
620, 2511534477, 0.2507469, -0.5968209, -0.056854647, -0.76006496, 8.716105461120605, -1.8429862260818481, 2.1867523193359375, -144.1177520751953, 9.81421184539795, 10.280269622802734, 
621, 2511551144, 0.2386526, -0.6010487, -0.037093837, -0.7618461, 9.00079345703125, -1.5692394971847534, 1.959191083908081, -160.8164825439453, 13.007981300354004, 16.966176986694336, 
622, 2511567811, 0.22523163, -0.60509884, -0.014699564, -0.76348555, 9.174668312072754, -1.558815836906433, 1.7091970443725586, -179.79251098632812, 17.352542877197266, 21.060850143432617, 
623, 2511584478, 0.21029153, -0.6088074, 0.009885001, -0.7648749, 8.895825386047363, -1.8979284763336182, 1.3536632061004639, -197.10691833496094, 21.367143630981445, 22.518417358398438, 
624, 2511601145, 0.1940371, -0.6121608, 0.03587628, -0.76571643, 8.550195693969727, -2.518672227859497, 1.0187547206878662, -209.4844207763672, 23.07366943359375, 22.293781280517578, 
625, 2511617812, 0.17690188, -0.6152194, 0.0628072, -0.7656803, 8.483816146850586, -3.111480474472046, 0.8190411329269409, -217.96470642089844, 22.42329216003418, 22.822494506835938, 
626, 2511634479, 0.15951347, -0.61791056, 0.09015242, -0.76460093, 8.388209342956543, -3.598646402359009, 0.7450329065322876, -221.1855010986328, 20.57295799255371, 24.640228271484375, 
627, 2511651146, 0.14213656, -0.62022465, 0.117638044, -0.7624171, 7.970287322998047, -3.7350220680236816, 0.870604932308197, -222.1427459716797, 18.032947540283203, 26.706295013427734, 
628, 2511667813, 0.12474157, -0.6222153, 0.1451744, -0.75908643, 7.585269451141357, -4.0217509269714355, 0.901566207408905, -223.13677978515625, 14.939289093017578, 28.16787338256836, 
629, 2511684480, 0.107815385, -0.62358624, 0.17183216, -0.7549767, 7.354543685913086, -4.608072757720947, 0.6337143778800964, -216.7839813232422, 13.642922401428223, 28.108015060424805, 
630, 2511701147, 0.09186847, -0.6242021, 0.19655758, -0.75053126, 7.59047794342041, -5.090219497680664, 0.34693804383277893, -202.38853454589844, 13.56035041809082, 26.009279251098633, 
631, 2511717814, 0.076664, -0.6241743, 0.21920204, -0.7459756, 8.41499137878418, -5.486521244049072, -0.0022522062063217163, -188.1896514892578, 14.11624526977539, 21.81435203552246, 
632, 2511734481, 0.062455043, -0.6235802, 0.2392341, -0.7416293, 9.507747650146484, -6.0306878089904785, -0.3404461741447449, -169.907470703125, 15.077879905700684, 16.42104721069336, 
633, 2511751148, 0.049625263, -0.6225177, 0.25631422, -0.73777527, 10.223554611206055, -6.063939571380615, -0.3518170118331909, -147.9094696044922, 16.0672607421875, 11.331830978393555, 
634, 2511767815, 0.038170867, -0.6211533, 0.27096504, -0.73436344, 10.23797607421875, -5.678852558135986, -0.1705685555934906, -128.8013916015625, 16.267127990722656, 8.27468204498291, 
635, 2511784482, 0.027848365, -0.6196847, 0.28389442, -0.7311768, 9.62688159942627, -5.174252510070801, 0.03447636216878891, -114.80917358398438, 15.215095520019531, 6.762554168701172, 
636, 2511801149, 0.018159423, -0.6183682, 0.29594675, -0.7278096, 9.103509902954102, -4.65698766708374, 0.03737976774573326, -108.0876235961914, 12.301230430603027, 5.940767765045166, 
637, 2511817816, 0.008736864, -0.61735904, 0.30751213, -0.7240359, 8.720331192016602, -4.573044300079346, -0.19117002189159393, -105.37163543701172, 8.44800853729248, 4.626213073730469, 
638, 2511834483, -1.7336395E-4, -0.6166508, 0.31844115, -0.71995646, 8.453751564025879, -4.883537292480469, -0.5436133146286011, -100.69189453125, 4.551187515258789, 3.854612112045288, 
639, 2511851150, -0.00831648, -0.6161117, 0.3285121, -0.71583307, 8.2178316116333, -5.0975661277771, -0.8605558276176453, -93.27645111083984, 1.8657184839248657, 3.6381075382232666, 
640, 2511867817, -0.015572118, -0.6155183, 0.33762962, -0.71196985, 8.08913803100586, -5.183908939361572, -1.0899362564086914, -84.24203491210938, 1.3093156814575195, 4.0980448722839355, 
641, 2511884484, -0.022178877, -0.61460215, 0.3459315, -0.7085929, 8.122220993041992, -5.097344398498535, -1.1608648300170898, -76.40017700195312, 3.5471112728118896, 4.616822242736816, 
