sep=,
DeviceTag:,R Foot - 1,,,,,,,,,,,,,,,,,
FirmwareVersion:,3.0.0,,,,,,,,,,,,,,,,,
AppVersion:,2023.6.1,,,,,,,,,,,,,,,,,
StartTime:,2024-05-23 11:49:42.000 +0200,,,,,,,,,,,,,,,,,
 2024,,,,,,,,,,,,,,,,,,,

PacketCounter,SampleTimeFine,Quat_W,Quat_X,Quat_Y,Quat_Z,Acc_X,Acc_Y,Acc_Z,Gyr_X,Gyr_Y,Gyr_Z,
0, 2486968584, 0.8948468, -0.3096416, -0.27823684, -0.16110693, 0.0, 0.0, 0.0, 0.0, 0.0, 0.0, 
1, 2486985251, 0.89504963, -0.30852756, -0.27889574, -0.16097854, 5.963100910186768, -4.6269450187683105, 6.497715473175049, 8.22000789642334, -2.781744956970215, 0.9642351865768433, 
2, 2487001918, 0.8952808, -0.30768788, -0.27939925, -0.1604268, 6.00302791595459, -4.57187557220459, 6.556179523468018, 7.840156555175781, -1.9216699600219727, 1.0125917196273804, 
3, 2487018585, 0.89559543, -0.30655235, -0.27975085, -0.16023217, 5.970247745513916, -4.5611701011657715, 6.527536392211914, 7.392396450042725, -0.7030432224273682, 0.9323344826698303, 
4, 2487035252, 0.89582884, -0.30571857, -0.27990255, -0.16025455, 5.978699207305908, -4.440616130828857, 6.586148738861084, 6.417076587677002, -0.8060188293457031, 1.446009874343872, 
5, 2487051919, 0.8960969, -0.30473635, -0.28010267, -0.16027638, 5.9765238761901855, -4.5092339515686035, 6.595696926116943, 5.263659954071045, -1.3233314752578735, 2.018709897994995, 
6, 2487068586, 0.89635485, -0.30395225, -0.2802174, -0.16012275, 6.019858360290527, -4.544541835784912, 6.580965042114258, 4.348121643066406, -1.202759861946106, 2.329481601715088, 
7, 2487085253, 0.89660686, -0.3032696, -0.2803164, -0.159833, 5.964159965515137, -4.612767219543457, 6.5573506355285645, 4.347186088562012, -0.5522226095199585, 2.1939775943756104, 
8, 2487101920, 0.8969799, -0.3026016, -0.28044078, -0.15878434, 6.063190460205078, -4.544841766357422, 6.5831193923950195, 3.811739444732666, 0.5142965912818909, 2.2917282581329346, 
9, 2487118587, 0.89717823, -0.30232355, -0.2801557, -0.15869677, 5.958789348602295, -4.586076259613037, 6.581722259521484, 3.188493251800537, 1.5130510330200195, 2.6372179985046387, 
10, 2487135254, 0.8972875, -0.30221438, -0.2797428, -0.15901458, 5.921599864959717, -4.628965854644775, 6.588330268859863, 3.3609304428100586, 1.105360746383667, 2.4785215854644775, 
11, 2487151921, 0.8973423, -0.30220795, -0.2792921, -0.15950936, 5.948766708374023, -4.613606929779053, 6.560179710388184, 3.563027858734131, 0.5162560343742371, 2.3177378177642822, 
12, 2487168588, 0.8974456, -0.30217478, -0.27897105, -0.15955284, 5.975531578063965, -4.518925189971924, 6.61930513381958, 3.0779874324798584, 0.440929114818573, 2.561187267303467, 
13, 2487185255, 0.8974899, -0.30226627, -0.2786102, -0.15976061, 6.036595344543457, -4.526573657989502, 6.689243793487549, 2.522550106048584, 0.08474602550268173, 3.0046069622039795, 
14, 2487201922, 0.89762205, -0.3023952, -0.2782907, -0.15933062, 5.9683332443237305, -4.575399875640869, 6.627412796020508, 0.6470279693603516, 0.8240501880645752, 4.047638893127441, 
15, 2487218589, 0.8976562, -0.30263552, -0.27781433, -0.1595133, 5.884681224822998, -4.663832664489746, 6.555149555206299, 1.194128155708313, 0.6372568607330322, 3.780921697616577, 
16, 2487235256, 0.8976892, -0.30282757, -0.27738488, -0.15971018, 5.931173801422119, -4.6448283195495605, 6.60141134262085, 1.7863644361495972, 0.35415327548980713, 3.3907570838928223, 
17, 2487251923, 0.897752, -0.3029917, -0.27698353, -0.15974271, 5.915974140167236, -4.691408157348633, 6.5588507652282715, 1.5507720708847046, 0.5987224578857422, 3.3029367923736572, 
18, 2487268590, 0.8978098, -0.30307364, -0.27665508, -0.15983176, 5.85225248336792, -4.715215682983398, 6.554612159729004, 2.44832444190979, 0.15381067991256714, 2.9014132022857666, 
19, 2487285257, 0.8978836, -0.30301544, -0.27644318, -0.15989389, 5.849861145019531, -4.696614742279053, 6.52151346206665, 3.7392361164093018, -0.5440777540206909, 2.5773420333862305, 
20, 2487301924, 0.8980212, -0.3027088, -0.2765164, -0.15957463, 5.874922752380371, -4.713102340698242, 6.553621768951416, 4.955859184265137, -1.4896091222763062, 2.1323020458221436, 
21, 2487318591, 0.8981281, -0.30241254, -0.27659455, -0.15940024, 5.8986005783081055, -4.676126480102539, 6.554128646850586, 5.394739151000977, -1.884806752204895, 2.0616812705993652, 
22, 2487335258, 0.89823467, -0.30204195, -0.27674678, -0.15923692, 5.88253927230835, -4.669186592102051, 6.556619644165039, 6.072335720062256, -2.3245768547058105, 1.882431149482727, 
23, 2487351925, 0.89838666, -0.3015772, -0.27702704, -0.15877336, 5.88819694519043, -4.615198612213135, 6.5858049392700195, 6.228670597076416, -2.601405620574951, 1.9782294034957886, 
24, 2487368592, 0.8984942, -0.3011356, -0.27732968, -0.15847372, 5.824975967407227, -4.6723480224609375, 6.581052303314209, 6.373669624328613, -3.0635862350463867, 1.7608731985092163, 
25, 2487385259, 0.8985231, -0.300747, -0.2778129, -0.1582011, 5.698412895202637, -4.6515960693359375, 6.5836920738220215, 6.302102565765381, -4.5812296867370605, 1.5235142707824707, 
26, 2487401926, 0.89837307, -0.3005632, -0.27836013, -0.15844013, 5.680518627166748, -4.812482833862305, 6.492500305175781, 6.351567268371582, -6.562596797943115, 1.282517910003662, 
27, 2487418593, 0.89835715, -0.30005604, -0.2794732, -0.15753014, 5.747369289398193, -4.541872501373291, 6.539061546325684, 6.520163536071777, -8.0654296875, 1.0139431953430176, 
28, 2487435260, 0.8979966, -0.3003869, -0.27995914, -0.15809119, 5.955705165863037, -4.351998805999756, 6.711287975311279, 3.9159395694732666, -7.940054893493652, 2.098231315612793, 
29, 2487451927, 0.8976767, -0.30104756, -0.28040045, -0.15786928, 6.147261619567871, -4.326106071472168, 6.761873722076416, -0.05075157806277275, -7.093644142150879, 4.19167947769165, 
30, 2487468594, 0.8973604, -0.30197608, -0.2805302, -0.15766321, 6.1111860275268555, -4.482621669769287, 6.643166542053223, -1.8646624088287354, -5.67879056930542, 5.860161304473877, 
31, 2487485261, 0.8971539, -0.3029015, -0.2806275, -0.15688822, 6.071864604949951, -4.550731182098389, 6.616296768188477, -2.9058315753936768, -4.678397178649902, 7.13541841506958, 
32, 2487501928, 0.8968984, -0.30393845, -0.28057122, -0.15644376, 6.005898952484131, -4.682209014892578, 6.557018280029297, -2.489638328552246, -4.787033557891846, 7.894577980041504, 
33, 2487518595, 0.8967089, -0.30483878, -0.28055295, -0.15580924, 5.989595413208008, -4.779177665710449, 6.4860382080078125, -1.6754294633865356, -4.689212799072266, 8.151723861694336, 
34, 2487535262, 0.89654565, -0.30563653, -0.2805661, -0.1551619, 5.939950466156006, -4.764289379119873, 6.490674018859863, -0.9505578875541687, -4.678115367889404, 7.90101957321167, 
35, 2487551929, 0.8963073, -0.3065418, -0.2804086, -0.1550379, 5.983531475067139, -4.8426642417907715, 6.444332122802734, -0.6899165511131287, -4.520705699920654, 7.600755214691162, 
36, 2487568596, 0.89620006, -0.30713397, -0.28038767, -0.15452217, 5.962771415710449, -4.887534141540527, 6.401771068572998, 0.5790520906448364, -4.131182670593262, 7.18497896194458, 
37, 2487585263, 0.8961439, -0.30756748, -0.2804089, -0.15394592, 5.953803539276123, -4.946402549743652, 6.3881988525390625, 1.352792501449585, -3.824284076690674, 6.618149757385254, 
38, 2487601930, 0.8961047, -0.30790624, -0.28052023, -0.15329313, 5.910144805908203, -4.870574474334717, 6.451272487640381, 1.608989953994751, -3.874350070953369, 5.975404739379883, 
39, 2487618597, 0.8960219, -0.30827278, -0.28062612, -0.15284492, 5.9183831214904785, -4.9389967918396, 6.4260172843933105, 1.6770433187484741, -4.087679386138916, 5.49826717376709, 
40, 2487635264, 0.8959026, -0.30864555, -0.28064668, -0.15275477, 5.932454586029053, -4.938816547393799, 6.392754077911377, 2.1837968826293945, -3.955958604812622, 4.923293113708496, 
41, 2487651931, 0.89588314, -0.30879423, -0.280764, -0.15235175, 5.931390285491943, -4.883851051330566, 6.359246730804443, 2.7453420162200928, -3.398165225982666, 4.371287822723389, 
42, 2487668598, 0.8959214, -0.3088603, -0.2809921, -0.15157083, 5.924866199493408, -4.8349738121032715, 6.40110969543457, 2.4642107486724854, -3.285322427749634, 4.429294586181641, 
43, 2487685265, 0.89588934, -0.30907145, -0.28108835, -0.15115118, 5.93712043762207, -4.948091506958008, 6.396465301513672, 2.0970335006713867, -3.1799063682556152, 4.346251487731934, 
44, 2487701932, 0.89578867, -0.30934548, -0.28098604, -0.15137699, 5.90428352355957, -5.0284342765808105, 6.32036828994751, 2.8721253871917725, -2.935420513153076, 3.8237521648406982, 
45, 2487718599, 0.8958793, -0.30914438, -0.2810894, -0.15105908, 5.930190086364746, -5.025626182556152, 6.3029913902282715, 4.581830978393555, -2.1906800270080566, 2.8079848289489746, 
46, 2487735266, 0.8959943, -0.3088523, -0.28117943, -0.15080668, 5.887152671813965, -4.961637496948242, 6.360505104064941, 5.242503643035889, -1.9316329956054688, 2.4347496032714844, 
47, 2487751933, 0.8961008, -0.3085491, -0.2812156, -0.15072681, 5.93465518951416, -4.930322170257568, 6.4008026123046875, 5.657045841217041, -1.8243287801742554, 2.2568697929382324, 
48, 2487768600, 0.896253, -0.30814144, -0.2813268, -0.1504494, 5.887564182281494, -4.953555107116699, 6.381652355194092, 5.916342735290527, -1.764011025428772, 2.1294913291931152, 
49, 2487785267, 0.8963267, -0.3078734, -0.28128734, -0.15063241, 5.91127347946167, -4.859059810638428, 6.4075927734375, 5.9484028816223145, -1.7989081144332886, 2.08235764503479, 
50, 2487801934, 0.8964402, -0.30753934, -0.28143722, -0.15035841, 5.913249969482422, -4.871669769287109, 6.424217224121094, 5.553750038146973, -2.256646156311035, 2.2804081439971924, 
51, 2487818601, 0.8965107, -0.30730817, -0.28150168, -0.15029027, 5.906708717346191, -4.890894889831543, 6.41132116317749, 5.350864887237549, -2.2780771255493164, 2.4596903324127197, 
52, 2487835268, 0.8965678, -0.30710942, -0.28152788, -0.15030669, 5.9089789390563965, -4.906044006347656, 6.388583660125732, 5.321001052856445, -2.2375452518463135, 2.5085208415985107, 
53, 2487851935, 0.89658177, -0.30696878, -0.28144723, -0.15066208, 5.915116786956787, -4.928414344787598, 6.3838348388671875, 5.581386566162109, -2.1536056995391846, 2.3223869800567627, 
54, 2487868602, 0.8966952, -0.30665106, -0.2815478, -0.15044598, 5.8895440101623535, -4.906112194061279, 6.402154445648193, 5.574246883392334, -2.061156988143921, 2.3684322834014893, 
55, 2487885269, 0.89681005, -0.3063198, -0.2816633, -0.15021941, 5.906500339508057, -4.915466785430908, 6.402243614196777, 5.587398529052734, -2.071613073348999, 2.2529447078704834, 
56, 2487901936, 0.8969387, -0.30596066, -0.2818206, -0.14988779, 5.895839214324951, -4.895736217498779, 6.402618885040283, 5.565551280975342, -2.127000570297241, 2.2511518001556396, 
57, 2487918603, 0.89708275, -0.30554575, -0.2819537, -0.14962183, 5.923763751983643, -4.948677062988281, 6.3686017990112305, 6.000973224639893, -1.9152668714523315, 2.0321567058563232, 
58, 2487935270, 0.89724046, -0.30507436, -0.2820645, -0.14942896, 5.924539089202881, -4.951666355133057, 6.371469974517822, 6.479118347167969, -1.729850172996521, 1.807130217552185, 
59, 2487951937, 0.89739335, -0.30458966, -0.28211704, -0.14940016, 5.872529029846191, -4.925801753997803, 6.416203498840332, 6.753045558929443, -1.4554483890533447, 1.5068594217300415, 
60, 2487968604, 0.897578, -0.3040344, -0.2821933, -0.14927843, 5.904571056365967, -4.875916481018066, 6.421466827392578, 7.047693252563477, -1.3406519889831543, 1.4623699188232422, 
61, 2487985271, 0.89777696, -0.30346403, -0.28229737, -0.1490445, 5.89318323135376, -4.891308784484863, 6.380866050720215, 6.8778300285339355, -1.2833949327468872, 1.4888790845870972, 
62, 2488001938, 0.89793557, -0.30295405, -0.28240266, -0.14892726, 5.905220031738281, -4.84762716293335, 6.43934965133667, 6.7982001304626465, -1.6430100202560425, 1.4939632415771484, 
63, 2488018605, 0.8980986, -0.30244085, -0.28251052, -0.14878254, 5.91267204284668, -4.899941921234131, 6.42750883102417, 6.825682640075684, -1.6590819358825684, 1.5951205492019653, 
64, 2488035272, 0.8982729, -0.3018949, -0.28262794, -0.14861618, 5.900084972381592, -4.901468276977539, 6.415824890136719, 6.971789360046387, -1.598034143447876, 1.5036064386367798, 
65, 2488051939, 0.89845645, -0.301302, -0.2826861, -0.14859952, 5.914658546447754, -4.953090667724609, 6.384730339050293, 7.46687126159668, -1.2569242715835571, 1.1978548765182495, 
66, 2488068606, 0.89872587, -0.30046672, -0.2827229, -0.14859235, 5.91385555267334, -5.0118727684021, 6.341131210327148, 8.819707870483398, -0.45379942655563354, 0.46631768345832825, 
67, 2488085273, 0.899141, -0.29923838, -0.28268752, -0.14862667, 5.925317287445068, -5.107375144958496, 6.301573276519775, 11.048937797546387, 1.057382345199585, -0.672519326210022, 
68, 2488101940, 0.89977366, -0.29743236, -0.28251153, -0.14875706, 5.952126979827881, -5.148292064666748, 6.295654296875, 14.453563690185547, 3.39912748336792, -2.247086763381958, 
69, 2488118607, 0.9005924, -0.29499784, -0.28226128, -0.14912514, 5.893481254577637, -5.16633415222168, 6.279073715209961, 18.612592697143555, 5.0794782638549805, -4.1768798828125, 
70, 2488135274, 0.90158194, -0.2919646, -0.28203037, -0.14955196, 5.927778720855713, -5.028465270996094, 6.335508346557617, 22.57670021057129, 6.0805253982543945, -5.627108573913574, 
71, 2488151941, 0.9026742, -0.28854296, -0.2818374, -0.14996696, 5.919635772705078, -4.857367992401123, 6.459341049194336, 25.19486427307129, 6.517641544342041, -6.3856201171875, 
72, 2488168608, 0.9038109, -0.28488615, -0.28168437, -0.15039949, 5.89705228805542, -4.715113639831543, 6.58353328704834, 26.981027603149414, 6.50192928314209, -6.738200664520264, 
73, 2488185275, 0.9049404, -0.2811526, -0.28160122, -0.15078753, 5.844948768615723, -4.472829818725586, 6.7169270515441895, 27.559717178344727, 6.103652477264404, -6.804015159606934, 
74, 2488201942, 0.9059362, -0.27779284, -0.28157818, -0.15107818, 5.855106353759766, -4.335411548614502, 6.81582498550415, 25.24004364013672, 4.885429382324219, -5.682671070098877, 
75, 2488218609, 0.9067262, -0.27501655, -0.28159443, -0.1513876, 5.694403648376465, -4.290421962738037, 6.86467981338501, 21.75310707092285, 3.291416645050049, -4.2980170249938965, 
76, 2488235276, 0.907278, -0.27289984, -0.2818326, -0.15146872, 5.798574924468994, -4.087894916534424, 6.978266716003418, 17.38877296447754, 0.641035258769989, -2.7868244647979736, 
77, 2488251943, 0.90759045, -0.27154762, -0.28218383, -0.1513739, 5.8027777671813965, -4.055384159088135, 6.970296859741211, 12.52648639678955, -1.615016222000122, -0.7337338924407959, 
78, 2488268610, 0.90761465, -0.27114853, -0.2826247, -0.15112044, 5.878307819366455, -4.010194301605225, 6.985029697418213, 6.614595413208008, -4.167603015899658, 1.8859529495239258, 
79, 2488285277, 0.90751165, -0.27121565, -0.28312024, -0.1506918, 5.851720809936523, -4.1371235847473145, 6.953033447265625, 3.2601897716522217, -5.184196949005127, 2.9925498962402344, 
80, 2488301944, 0.90732425, -0.27165043, -0.28354508, -0.15023653, 5.9261322021484375, -4.367581367492676, 6.763583660125732, 0.9059853553771973, -5.4426164627075195, 4.082601070404053, 
81, 2488318611, 0.9070458, -0.27237403, -0.2839676, -0.14981027, 5.854568004608154, -4.2589569091796875, 6.840179443359375, -0.7724984288215637, -6.083446025848389, 4.767522811889648, 
82, 2488335278, 0.9067051, -0.27330998, -0.28438106, -0.1493833, 5.898860454559326, -4.498028755187988, 6.745560646057129, -2.221472978591919, -6.380386829376221, 5.139291286468506, 
83, 2488351945, 0.9063733, -0.27425948, -0.28475225, -0.1489478, 5.905117511749268, -4.510410308837891, 6.702033519744873, -2.394282341003418, -6.070141792297363, 5.18288516998291, 
84, 2488368612, 0.9060745, -0.27514303, -0.28504127, -0.14858276, 5.924981117248535, -4.525056838989258, 6.684098720550537, -2.011781930923462, -5.373231410980225, 4.921609401702881, 
85, 2488385279, 0.9057501, -0.27618572, -0.2852764, -0.1481747, 5.9322686195373535, -4.370919704437256, 6.7290239334106445, -2.931060552597046, -5.386692047119141, 5.6496124267578125, 
86, 2488401946, 0.90543604, -0.27723518, -0.2854851, -0.14773183, 5.932981967926025, -4.610010147094727, 6.673067092895508, -3.122810125350952, -5.131576061248779, 5.6927571296691895, 
87, 2488418613, 0.9051605, -0.2781545, -0.2856246, -0.1474221, 5.919041156768799, -4.672609329223633, 6.636767387390137, -2.1241188049316406, -4.541100025177002, 5.252383708953857, 
88, 2488435280, 0.9049552, -0.27883628, -0.28575572, -0.14714131, 5.903606414794922, -4.7577385902404785, 6.554778575897217, -0.6397668123245239, -3.9983599185943604, 4.578929424285889, 
89, 2488451947, 0.9048102, -0.27933034, -0.28592756, -0.14676046, 5.90307092666626, -4.58998966217041, 6.623446941375732, 0.5685763955116272, -3.8940532207489014, 4.406447887420654, 
90, 2488468614, 0.9046361, -0.27990392, -0.28609216, -0.14642048, 5.89506721496582, -4.614692211151123, 6.631314277648926, 0.18199744820594788, -4.07710599899292, 4.5522027015686035, 
91, 2488485281, 0.9044929, -0.2803633, -0.28628963, -0.14603937, 5.905407428741455, -4.74554967880249, 6.572360515594482, 0.7479420900344849, -3.9543704986572266, 4.162088871002197, 
92, 2488501948, 0.9044223, -0.2805727, -0.28645742, -0.14574449, 5.918498992919922, -4.7757039070129395, 6.537298202514648, 2.404226064682007, -3.306824207305908, 3.404247999191284, 
93, 2488518615, 0.9043863, -0.28068802, -0.28662598, -0.14541388, 5.890649795532227, -4.6018757820129395, 6.609795570373535, 3.0308146476745605, -3.127265453338623, 3.3184711933135986, 
94, 2488535282, 0.90430015, -0.28097105, -0.28679407, -0.14507157, 5.923484802246094, -4.5733256340026855, 6.639269828796387, 2.1565253734588623, -3.5797526836395264, 3.9255049228668213, 
95, 2488551949, 0.90421546, -0.28125972, -0.28693578, -0.14475977, 5.872837543487549, -4.7442097663879395, 6.551194190979004, 2.1489057540893555, -3.434580087661743, 3.906794786453247, 
96, 2488568616, 0.90415746, -0.28143123, -0.2871148, -0.14443341, 5.8727922439575195, -4.718136787414551, 6.553083419799805, 2.818485736846924, -3.386645793914795, 3.482174873352051, 
97, 2488585283, 0.9041119, -0.28156364, -0.28730306, -0.14408554, 5.9250383377075195, -4.686422348022461, 6.57578706741333, 3.1899211406707764, -3.448308229446411, 3.5569510459899902, 
98, 2488601950, 0.90404975, -0.28174195, -0.28752545, -0.14368288, 5.901151657104492, -4.633472919464111, 6.601691246032715, 2.934575080871582, -3.775061845779419, 3.7860946655273438, 
99, 2488618617, 0.9039551, -0.28200623, -0.28772455, -0.14336057, 5.877241134643555, -4.7343058586120605, 6.545071125030518, 2.4456160068511963, -3.8247125148773193, 3.771726608276367, 
100, 2488635284, 0.9038895, -0.28219038, -0.28790784, -0.14304394, 5.892436981201172, -4.786840915679932, 6.504898548126221, 2.8175125122070312, -3.4573559761047363, 3.427914619445801, 
101, 2488651951, 0.9038186, -0.28238517, -0.2880591, -0.14280275, 5.873878479003906, -4.675008296966553, 6.557733058929443, 2.79764986038208, -3.283695936203003, 3.2605738639831543, 
102, 2488668618, 0.90373796, -0.28261203, -0.28823823, -0.14250252, 5.897119998931885, -4.7309346199035645, 6.538460731506348, 2.4806289672851562, -3.442174196243286, 3.3274359703063965, 
103, 2488685285, 0.9036529, -0.28285527, -0.28840154, -0.14222912, 5.925971508026123, -4.728144645690918, 6.519566535949707, 2.408503293991089, -3.381856679916382, 3.3078932762145996, 
104, 2488701952, 0.9035737, -0.28308758, -0.28858218, -0.14190224, 5.897059440612793, -4.68164587020874, 6.568472385406494, 2.5172548294067383, -3.490070343017578, 3.4521186351776123, 
105, 2488718619, 0.9034431, -0.28349224, -0.28876624, -0.14155181, 5.89047384262085, -4.643341064453125, 6.595337390899658, 1.4178552627563477, -3.837839365005493, 3.883923053741455, 
106, 2488735286, 0.90327716, -0.2840208, -0.28893816, -0.14120017, 5.914577484130859, -4.721227169036865, 6.539468288421631, 0.5832139849662781, -3.9630086421966553, 4.119597911834717, 
107, 2488751953, 0.90312517, -0.2845254, -0.28910485, -0.14081496, 5.918273448944092, -4.806511878967285, 6.480813026428223, 0.6283692717552185, -3.800739049911499, 4.0617899894714355, 
108, 2488768620, 0.9030062, -0.28490856, -0.2892412, -0.14052327, 5.917343616485596, -4.869102954864502, 6.444404602050781, 1.4869327545166016, -3.4134368896484375, 3.5774283409118652, 
109, 2488785287, 0.9029149, -0.2851973, -0.28937796, -0.14024226, 5.896872520446777, -4.81666374206543, 6.471519470214844, 2.1108195781707764, -3.235236406326294, 3.3116581439971924, 
110, 2488801954, 0.90281284, -0.28549603, -0.28952077, -0.13999572, 5.884146213531494, -4.833703994750977, 6.481680870056152, 2.1614177227020264, -3.363748073577881, 3.2765817642211914, 
111, 2488818621, 0.9027211, -0.2857393, -0.2896944, -0.13973215, 5.923612117767334, -4.842893123626709, 6.458827018737793, 2.47087025642395, -3.4161643981933594, 3.051471710205078, 
112, 2488835288, 0.9026488, -0.28592756, -0.289839, -0.13951373, 5.913699150085449, -4.843270301818848, 6.47189474105835, 2.9698314666748047, -3.2120249271392822, 2.9641454219818115, 
113, 2488851955, 0.90259445, -0.28607875, -0.29001093, -0.13919808, 5.89680814743042, -4.7903900146484375, 6.490785598754883, 3.093514919281006, -3.2261438369750977, 3.019314765930176, 
114, 2488868622, 0.9025033, -0.286328, -0.29020944, -0.13886258, 5.9255194664001465, -4.784916400909424, 6.5071234703063965, 2.574819326400757, -3.657512903213501, 3.328665256500244, 
115, 2488885289, 0.90240705, -0.28660053, -0.29039934, -0.13852891, 5.92099666595459, -4.845104694366455, 6.459478378295898, 2.4184792041778564, -3.6327197551727295, 3.3600406646728516, 
116, 2488901956, 0.9023369, -0.28679514, -0.2905355, -0.13829617, 5.893535614013672, -4.896648406982422, 6.410580158233643, 3.0090701580047607, -3.1836655139923096, 3.0153579711914062, 
117, 2488918623, 0.90226984, -0.28701022, -0.29066995, -0.13800523, 5.917170524597168, -4.7700700759887695, 6.473367691040039, 2.845379590988159, -3.172178268432617, 3.2088875770568848, 
118, 2488935290, 0.9021758, -0.28729406, -0.29081678, -0.13772027, 5.930006504058838, -4.845215797424316, 6.444398403167725, 2.4376888275146484, -3.3993241786956787, 3.312567710876465, 
119, 2488951957, 0.902116, -0.28751102, -0.29093888, -0.13740061, 5.938559055328369, -4.891674041748047, 6.424228668212891, 2.876088857650757, -3.1058666706085205, 3.345569372177124, 
120, 2488968624, 0.90205777, -0.28770256, -0.2910632, -0.13711838, 5.884181976318359, -4.8325018882751465, 6.441668510437012, 3.099419116973877, -3.1011154651641846, 3.171428680419922, 
121, 2488985291, 0.90198016, -0.28797513, -0.2912232, -0.136716, 5.907619476318359, -4.807570934295654, 6.4794511795043945, 2.4566807746887207, -3.393625259399414, 3.547513246536255, 
122, 2489001958, 0.9018578, -0.28836745, -0.29138163, -0.13635872, 5.907797336578369, -4.856042385101318, 6.445934772491455, 1.7385135889053345, -3.6397509574890137, 3.6653826236724854, 
123, 2489018625, 0.90174377, -0.2887339, -0.29152483, -0.13603061, 5.915577411651611, -4.9209885597229, 6.388769149780273, 1.9712687730789185, -3.530935287475586, 3.583024740219116, 
124, 2489035292, 0.90162957, -0.2891184, -0.29165134, -0.13569926, 5.894602298736572, -4.84909200668335, 6.416200637817383, 1.9080694913864136, -3.479684352874756, 3.696963310241699, 
125, 2489051959, 0.9015195, -0.28949293, -0.2918077, -0.13529567, 5.9020161628723145, -4.929873466491699, 6.381472587585449, 1.8205828666687012, -3.541558027267456, 3.67824649810791, 
126, 2489068626, 0.9013983, -0.2898995, -0.29194278, -0.13494015, 5.914201259613037, -4.87980842590332, 6.398731231689453, 1.6703325510025024, -3.489506721496582, 3.6451871395111084, 
127, 2489085293, 0.90128523, -0.29030716, -0.29205436, -0.13457774, 5.932529449462891, -4.91899299621582, 6.3697662353515625, 1.7249770164489746, -3.371060609817505, 3.7712531089782715, 
128, 2489101960, 0.90119344, -0.29065827, -0.29213804, -0.13425219, 5.9203782081604, -4.987797260284424, 6.341102600097656, 2.166546583175659, -3.126990795135498, 3.6348462104797363, 
129, 2489118627, 0.9011197, -0.2909483, -0.29221368, -0.13395402, 5.890923500061035, -4.916950702667236, 6.373930931091309, 2.606252431869507, -2.9777839183807373, 3.433030605316162, 
130, 2489135294, 0.90100193, -0.29143578, -0.29222223, -0.13366836, 5.934664726257324, -4.7592573165893555, 6.439764976501465, 1.0880916118621826, -2.7088699340820312, 3.683657646179199, 
131, 2489151961, 0.90083563, -0.29213354, -0.29216632, -0.13338761, 5.88128137588501, -4.9569902420043945, 6.34412956237793, -0.4592549204826355, -2.5328593254089355, 4.062251567840576, 
132, 2489168628, 0.9006575, -0.29281142, -0.29215944, -0.13311768, 5.920026779174805, -5.016340732574463, 6.306204319000244, -0.36579424142837524, -2.7882308959960938, 3.7808449268341064, 
133, 2489185295, 0.90049666, -0.2934102, -0.29217145, -0.13286075, 5.907471656799316, -5.047539234161377, 6.28715181350708, 0.3210040032863617, -2.88504695892334, 3.6685714721679688, 
134, 2489201962, 0.9003562, -0.2939255, -0.2922307, -0.13254385, 5.879178047180176, -4.994894981384277, 6.349055290222168, 0.9570696949958801, -3.100679874420166, 3.6618988513946533, 
135, 2489218629, 0.9001996, -0.29444733, -0.29234716, -0.13219193, 5.899219512939453, -5.004202365875244, 6.328646659851074, 1.1595510244369507, -3.670280694961548, 3.8956918716430664, 
136, 2489235296, 0.900042, -0.2949093, -0.29255167, -0.13178268, 5.89497184753418, -5.0583415031433105, 6.281728744506836, 1.599256992340088, -4.174812316894531, 3.7839176654815674, 
137, 2489251963, 0.89990747, -0.2952871, -0.29274204, -0.13143218, 5.879841327667236, -5.1105170249938965, 6.273870944976807, 2.360492467880249, -4.076780796051025, 3.6149003505706787, 
138, 2489268630, 0.8998282, -0.29546794, -0.29295638, -0.13109055, 5.899073600769043, -5.138846397399902, 6.239882946014404, 3.5123977661132812, -3.763267755508423, 2.9249961376190186, 
139, 2489285297, 0.89982045, -0.29546028, -0.29313222, -0.13076782, 5.887436866760254, -5.144589900970459, 6.22164249420166, 4.652828693389893, -3.080177068710327, 2.423281669616699, 
140, 2489301964, 0.89982694, -0.2953734, -0.2933103, -0.13051856, 5.9318366050720215, -5.063729286193848, 6.271345615386963, 5.231188774108887, -2.977277994155884, 1.995306134223938, 
141, 2489318631, 0.899883, -0.29517868, -0.29346025, -0.13023649, 5.956829071044922, -5.0924763679504395, 6.257808208465576, 5.969450950622559, -2.6053307056427, 1.976045846939087, 
142, 2489335298, 0.8999641, -0.29489604, -0.29359832, -0.1300053, 5.914896488189697, -5.0523529052734375, 6.29778528213501, 6.64298677444458, -2.422084093093872, 1.704397201538086, 
143, 2489351965, 0.9000548, -0.29461944, -0.29371443, -0.12974167, 5.931081771850586, -5.00669002532959, 6.321408271789551, 6.572628974914551, -2.250645637512207, 1.8339461088180542, 
144, 2489368632, 0.90013033, -0.29438663, -0.29384768, -0.12944344, 5.917202949523926, -5.019641399383545, 6.2996344566345215, 6.2705535888671875, -2.4185245037078857, 1.9715123176574707, 
145, 2489385299, 0.90019244, -0.29419258, -0.29397672, -0.12915921, 5.898852348327637, -5.0243754386901855, 6.306232452392578, 6.115520477294922, -2.5221152305603027, 2.0889081954956055, 
146, 2489401966, 0.90025806, -0.29396638, -0.294112, -0.12890866, 5.9288554191589355, -5.075739860534668, 6.286764144897461, 6.330501079559326, -2.4989869594573975, 1.8559991121292114, 
147, 2489418633, 0.90036064, -0.29363647, -0.29422233, -0.1286924, 5.933645248413086, -5.109870910644531, 6.236635684967041, 7.090813159942627, -2.1935811042785645, 1.6328611373901367, 
148, 2489435300, 0.90053153, -0.29310456, -0.29434723, -0.12842384, 5.9120917320251465, -5.0774641036987305, 6.256586074829102, 8.186652183532715, -1.7414525747299194, 1.0986056327819824, 
149, 2489451967, 0.900679, -0.29264092, -0.29445103, -0.12820818, 5.901938438415527, -4.892789363861084, 6.369887351989746, 7.763338088989258, -1.722960114479065, 1.0848132371902466, 
150, 2489468634, 0.90076756, -0.29239878, -0.29452497, -0.1279687, 5.952176094055176, -4.895299911499023, 6.343250274658203, 6.34535551071167, -1.9332404136657715, 1.7302021980285645, 
151, 2489485301, 0.9008157, -0.2922697, -0.29460388, -0.1277416, 5.875260353088379, -4.993269920349121, 6.33248233795166, 5.619593620300293, -2.168032169342041, 1.9035874605178833, 
152, 2489501968, 0.90084285, -0.29221973, -0.29468584, -0.12747589, 5.94965124130249, -4.923704624176025, 6.347820281982422, 5.1606268882751465, -2.361638307571411, 2.244466543197632, 
153, 2489518635, 0.90083206, -0.2922737, -0.29477558, -0.1272205, 5.932425498962402, -4.9835124015808105, 6.342106819152832, 4.6632537841796875, -2.7257230281829834, 2.581120014190674, 
154, 2489535302, 0.90082103, -0.2923467, -0.2948818, -0.1268856, 5.897661209106445, -4.971914291381836, 6.3356122970581055, 4.402925491333008, -2.759096145629883, 2.7125895023345947, 
155, 2489551969, 0.90079033, -0.2924831, -0.29497376, -0.12657447, 5.909342288970947, -4.998106002807617, 6.3509063720703125, 4.004354000091553, -2.780393600463867, 2.782909870147705, 
156, 2489568636, 0.9007316, -0.29269817, -0.2950849, -0.1262357, 5.901777744293213, -4.920103073120117, 6.3672194480896, 3.495288610458374, -3.0447800159454346, 2.9864282608032227, 
157, 2489585303, 0.9006178, -0.29309198, -0.2952122, -0.12583596, 5.908130645751953, -4.896402835845947, 6.374399662017822, 2.353410482406616, -3.485574960708618, 3.563098430633545, 
158, 2489601970, 0.90045327, -0.2936546, -0.2953525, -0.12537156, 5.926548957824707, -4.930415630340576, 6.333313941955566, 1.298538327217102, -3.908440589904785, 4.1659698486328125, 
159, 2489618637, 0.9002598, -0.2943026, -0.2954687, -0.12496694, 5.9295196533203125, -5.067454814910889, 6.239675045013428, 0.7800219655036926, -3.9264073371887207, 4.204952239990234, 
160, 2489635304, 0.9001023, -0.29484874, -0.29558134, -0.12454638, 5.912119388580322, -5.170212268829346, 6.1883015632629395, 1.4662247896194458, -3.728895664215088, 4.0532612800598145, 
161, 2489651971, 0.9000261, -0.29514778, -0.29564732, -0.12423271, 5.93713903427124, -5.185944557189941, 6.171318054199219, 3.066429615020752, -2.9529333114624023, 3.192328929901123, 
162, 2489668638, 0.90002793, -0.29524168, -0.29566002, -0.123965085, 5.902216911315918, -5.167399883270264, 6.213384628295898, 4.341916084289551, -2.1672251224517822, 2.615838050842285, 
163, 2489685305, 0.9000714, -0.29520634, -0.29564342, -0.1237737, 5.906169414520264, -5.165177822113037, 6.196318626403809, 5.194677829742432, -1.7317577600479126, 2.1025850772857666, 
164, 2489701972, 0.90014017, -0.29506448, -0.2956491, -0.12359723, 5.911807537078857, -5.074580669403076, 6.211879730224609, 5.798792839050293, -1.6078822612762451, 1.635371208190918, 
165, 2489718639, 0.9001939, -0.29495198, -0.29567465, -0.12341351, 5.880349636077881, -5.023481369018555, 6.276770114898682, 5.710159778594971, -1.856748104095459, 1.7646639347076416, 
166, 2489735306, 0.90021217, -0.2949428, -0.2956905, -0.12326381, 5.911713123321533, -5.055013179779053, 6.287082672119141, 5.121477127075195, -2.0323102474212646, 1.9506375789642334, 
167, 2489751973, 0.9002269, -0.29493958, -0.29574144, -0.12304217, 5.9133501052856445, -5.041652202606201, 6.27878475189209, 5.090409755706787, -2.275848865509033, 2.1383278369903564, 
168, 2489768640, 0.9002049, -0.29503152, -0.29579818, -0.122846, 5.905984878540039, -5.015006065368652, 6.260340213775635, 4.535497665405273, -2.5240230560302734, 2.280337333679199, 
169, 2489785307, 0.90016335, -0.2951639, -0.2958768, -0.12264182, 5.892054557800293, -5.071481704711914, 6.286936283111572, 4.312730312347412, -2.765934944152832, 2.3666906356811523, 
170, 2489801974, 0.9001218, -0.29529572, -0.2959857, -0.12236619, 5.904353141784668, -5.082228183746338, 6.260658264160156, 4.1663289070129395, -2.847703456878662, 2.381059169769287, 
171, 2489818641, 0.90007824, -0.29543298, -0.29608113, -0.12212576, 5.908951282501221, -5.061906337738037, 6.2664008140563965, 4.231179714202881, -2.835294246673584, 2.3775503635406494, 
172, 2489835308, 0.90003973, -0.2955579, -0.29618645, -0.12185131, 5.914575099945068, -5.090353012084961, 6.261997699737549, 4.260365962982178, -2.8328354358673096, 2.382378339767456, 
173, 2489851975, 0.89998704, -0.2957285, -0.29627296, -0.12161656, 5.918692588806152, -5.049682140350342, 6.2698187828063965, 4.050469398498535, -2.846346139907837, 2.4489073753356934, 
174, 2489868642, 0.8999436, -0.29587185, -0.29637837, -0.1213321, 5.913609027862549, -5.114240646362305, 6.21018648147583, 4.090323448181152, -2.812908411026001, 2.3682913780212402, 
175, 2489885309, 0.8998987, -0.29599303, -0.29649636, -0.121080436, 5.894690036773682, -5.108763217926025, 6.232162952423096, 4.342441558837891, -2.931572198867798, 2.257388114929199, 
176, 2489901976, 0.8998862, -0.29604155, -0.29659975, -0.120801404, 5.9407219886779785, -5.113746166229248, 6.209812164306641, 4.815803050994873, -2.6947574615478516, 2.2213640213012695, 
177, 2489918643, 0.8999041, -0.29602045, -0.2966499, -0.12059575, 5.945849895477295, -5.12741231918335, 6.206405162811279, 5.394381046295166, -2.297389030456543, 2.039475440979004, 
178, 2489935310, 0.89996576, -0.29590103, -0.29668546, -0.12034215, 5.927255153656006, -5.122847080230713, 6.223149299621582, 5.935795307159424, -1.9383503198623657, 1.9219900369644165, 
179, 2489951977, 0.9000498, -0.2957061, -0.29673293, -0.12007482, 5.88124942779541, -5.086376667022705, 6.255182266235352, 6.442312717437744, -1.8873298168182373, 1.7820041179656982, 
180, 2489968644, 0.90009785, -0.29559845, -0.2967893, -0.11984078, 5.914211273193359, -5.062856674194336, 6.243080139160156, 5.999711036682129, -2.1879584789276123, 1.9359486103057861, 
181, 2489985311, 0.90014845, -0.29545903, -0.2969185, -0.119483344, 5.938804626464844, -5.077303886413574, 6.236227512359619, 6.077485084533691, -2.5195472240448, 2.006396770477295, 
182, 2490001978, 0.9002156, -0.29527372, -0.2970417, -0.119128555, 5.9287896156311035, -5.113415718078613, 6.208532333374023, 6.573960781097412, -2.5405685901641846, 2.1106786727905273, 
183, 2490018645, 0.90034324, -0.29491815, -0.29713276, -0.11881832, 5.928658962249756, -5.172434329986572, 6.150877952575684, 7.835478782653809, -2.1305224895477295, 1.801252007484436, 
184, 2490035312, 0.90056366, -0.29428378, -0.29719314, -0.118568145, 5.884105205535889, -5.150110721588135, 6.125907897949219, 9.840096473693848, -1.5659164190292358, 1.2306523323059082, 
185, 2490051979, 0.90087354, -0.2932968, -0.2973455, -0.11827725, 5.854957103729248, -5.351074695587158, 6.0204362869262695, 12.12378978729248, -1.547231912612915, 0.37025734782218933, 
186, 2490068646, 0.9014472, -0.29131395, -0.2976253, -0.11810383, 5.85836935043335, -5.47747802734375, 5.922608852386475, 18.755651473999023, -0.7704501748085022, -2.40385103225708, 
187, 2490085313, 0.90221006, -0.28879842, -0.29783192, -0.11793588, 5.913712024688721, -4.8036675453186035, 6.3286848068237305, 22.434974670410156, 0.5079008340835571, -3.202733278274536, 
188, 2490101980, 0.9028521, -0.28685772, -0.29786682, -0.117670245, 5.972321510314941, -4.704597473144531, 6.44834566116333, 18.77715492248535, 0.6091348528862, -1.0739738941192627, 
189, 2490118647, 0.9033971, -0.28526655, -0.29787233, -0.11734072, 5.897077560424805, -4.727221488952637, 6.546868324279785, 16.35909080505371, 0.3047657907009125, -0.1419905424118042, 
190, 2490135314, 0.9038061, -0.28411737, -0.2978724, -0.116979204, 5.952448844909668, -4.887806415557861, 6.475304126739502, 13.289874076843262, -0.2778915464878082, 0.7455988526344299, 
191, 2490151981, 0.9041842, -0.28301015, -0.298018, -0.116369255, 5.8869309425354, -4.973110675811768, 6.485410213470459, 11.917916297912598, -0.531572699546814, 0.2271207571029663, 
192, 2490168648, 0.9044438, -0.28213504, -0.29812744, -0.116195425, 5.955535411834717, -4.840279579162598, 6.5243754386901855, 10.917110443115234, -1.0535725355148315, -0.2992013096809387, 
193, 2490185315, 0.9045842, -0.28161785, -0.29822683, -0.116102025, 5.941306114196777, -4.763852119445801, 6.502991676330566, 8.491379737854004, -1.51166832447052, 0.0783364549279213, 
194, 2490201982, 0.90464294, -0.28141597, -0.2982531, -0.11606608, 5.917385101318359, -4.648334503173828, 6.496379375457764, 6.132168292999268, -1.3164737224578857, 0.3740863800048828, 
195, 2490218649, 0.9046387, -0.28156838, -0.29810464, -0.1161116, 5.939782619476318, -4.8025689125061035, 6.418000221252441, 3.4854788780212402, -0.4789511263370514, 0.8741230964660645, 
196, 2490235316, 0.90461034, -0.28186506, -0.29785985, -0.11624107, 5.926924228668213, -4.757976055145264, 6.480271816253662, 2.346597194671631, 0.08420175313949585, 0.8681424856185913, 
197, 2490251983, 0.90452224, -0.28239655, -0.2975903, -0.1163264, 5.921123504638672, -4.716918468475342, 6.448642730712891, 0.6082888245582581, 0.010911010205745697, 1.3672314882278442, 
198, 2490268650, 0.9043953, -0.2831371, -0.29724437, -0.11639714, 5.9720845222473145, -4.823835849761963, 6.397902011871338, -0.7268820405006409, 0.1562630832195282, 2.0846946239471436, 
199, 2490285317, 0.9043347, -0.28374505, -0.2969725, -0.11608284, 5.943797588348389, -4.942452430725098, 6.350936412811279, -0.5416253805160522, 0.3796314299106598, 2.334482431411743, 
200, 2490301984, 0.9044133, -0.28378177, -0.29680654, -0.11580424, 5.877523422241211, -5.164575576782227, 6.271157264709473, 3.244232416152954, 0.5793336033821106, 0.7819172143936157, 
201, 2490318651, 0.9045552, -0.283574, -0.29668674, -0.11551111, 5.938700199127197, -4.855555534362793, 6.393331527709961, 4.985794544219971, 0.5814210772514343, 0.33565443754196167, 
202, 2490335318, 0.9046718, -0.2833652, -0.2966566, -0.11518681, 5.851274013519287, -4.988243103027344, 6.435159683227539, 5.07283878326416, -0.079815573990345, 0.3211192488670349, 
203, 2490351985, 0.9047826, -0.28307718, -0.29673615, -0.11481908, 5.929519176483154, -4.940915107727051, 6.415223121643066, 5.736668109893799, -0.7952166795730591, 0.2024683803319931, 
204, 2490368652, 0.9048906, -0.28278533, -0.29682902, -0.114446364, 5.916477203369141, -4.88366174697876, 6.408557415008545, 5.78563928604126, -0.8932492733001709, 0.19657747447490692, 
205, 2490385319, 0.90499, -0.2824437, -0.296837, -0.11448341, 5.922239303588867, -4.921657562255859, 6.400282382965088, 6.992486953735352, -0.8826842904090881, -0.29501357674598694, 
206, 2490401986, 0.9052042, -0.28180048, -0.29694185, -0.11410435, 5.950638294219971, -4.977495193481445, 6.384267330169678, 8.206554412841797, -0.47809311747550964, -0.4330019950866699, 
207, 2490418653, 0.90550476, -0.28088272, -0.29700157, -0.11382604, 5.948946952819824, -5.106647491455078, 6.334685802459717, 9.843347549438477, 0.3980470597743988, -1.476988673210144, 
208, 2490435320, 0.90593773, -0.2796186, -0.29695222, -0.11362083, 5.951938629150391, -5.082900524139404, 6.2527055740356445, 12.055685997009277, 1.7487207651138306, -2.313436269760132, 
209, 2490451987, 0.9064294, -0.27819026, -0.29688764, -0.11337491, 5.888235092163086, -4.811979293823242, 6.480900287628174, 13.240724563598633, 2.0491580963134766, -2.3716800212860107, 
210, 2490468654, 0.9069231, -0.27671167, -0.29687545, -0.11307622, 5.881735801696777, -4.803273677825928, 6.5113115310668945, 13.73836612701416, 1.640763282775879, -2.2136237621307373, 
211, 2490485321, 0.907337, -0.2753857, -0.29696727, -0.11275136, 5.982588768005371, -4.700244903564453, 6.622581481933594, 12.79262924194336, 0.6443134546279907, -1.9795106649398804, 
212, 2490501988, 0.90761864, -0.2745131, -0.29702303, -0.11246522, 6.002313137054443, -4.4863080978393555, 6.7500481605529785, 9.653572082519531, 0.28418582677841187, -1.2728171348571777, 
213, 2490518655, 0.90767854, -0.27433717, -0.29710945, -0.11218187, 5.994341850280762, -4.578711032867432, 6.738999843597412, 4.780622959136963, -0.8150792717933655, -0.21683070063591003, 
214, 2490535322, 0.9075574, -0.27469924, -0.29723096, -0.111954525, 5.835328578948975, -4.626280307769775, 6.733651638031006, 1.0201408863067627, -1.7396719455718994, 0.3703339695930481, 
215, 2490551989, 0.9071567, -0.27577904, -0.29752475, -0.11176706, 5.81588888168335, -4.437051296234131, 6.775429725646973, -3.9224376678466797, -3.88346791267395, 1.0690228939056396, 
216, 2490568656, 0.90629333, -0.27776688, -0.29831824, -0.11173327, 5.787522792816162, -4.262569427490234, 7.0783796310424805, -10.413060188293457, -8.358153343200684, 0.6629723310470581, 
217, 2490585323, 0.9049996, -0.28099698, -0.29932478, -0.11145124, 5.495621204376221, -4.484328746795654, 6.801852226257324, -18.3742618560791, -11.982203483581543, 3.983255386352539, 
218, 2490601990, 0.90317845, -0.2849724, -0.30118155, -0.11112789, 5.912205696105957, -4.411520004272461, 6.929117679595947, -23.284408569335938, -19.048721313476562, 3.7546677589416504, 
219, 2490618657, 0.9008784, -0.29029012, -0.30307636, -0.11088061, 5.9714035987854, -4.367242813110352, 6.8919901847839355, -32.72420120239258, -21.154905319213867, 5.615935325622559, 
220, 2490635324, 0.89793515, -0.29732203, -0.30491862, -0.11107174, 6.166699409484863, -4.616605758666992, 6.842568874359131, -45.62910461425781, -22.59674835205078, 6.080484867095947, 
221, 2490651991, 0.8942131, -0.30584532, -0.30702874, -0.11213911, 5.906527519226074, -5.5855512619018555, 6.63876485824585, -58.04472351074219, -25.262235641479492, 2.7114756107330322, 
222, 2490668658, 0.8901941, -0.31435856, -0.30938736, -0.11407294, 6.046387195587158, -6.220994472503662, 6.217221736907959, -60.223731994628906, -25.604093551635742, -3.392434597015381, 
223, 2490685325, 0.88655204, -0.3209192, -0.31242898, -0.115864635, 5.869400501251221, -6.309993267059326, 6.057564735412598, -46.66708755493164, -27.69428062438965, -7.961215496063232, 
224, 2490701992, 0.8832247, -0.3257581, -0.31626812, -0.117348105, 6.0924506187438965, -6.119153022766113, 5.893516540527344, -34.135169982910156, -31.205663681030273, -11.308601379394531, 
225, 2490718659, 0.88019294, -0.32963678, -0.32022044, -0.11857106, 6.634263038635254, -5.831101417541504, 5.896254062652588, -27.005464553833008, -31.025943756103516, -11.892878532409668, 
226, 2490735326, 0.87760854, -0.3325243, -0.32397625, -0.119458675, 6.249194145202637, -5.908192157745361, 5.6660332679748535, -19.685256958007812, -28.57845115661621, -11.482662200927734, 
227, 2490751993, 0.8754686, -0.33459124, -0.32720408, -0.12058663, 6.285577774047852, -6.175661563873291, 5.166846752166748, -14.694269180297852, -23.16728401184082, -13.219076156616211, 
228, 2490768660, 0.87418455, -0.33465466, -0.3298376, -0.122535184, 6.1659650802612305, -7.116085052490234, 4.715944766998291, -2.8325209617614746, -14.218567848205566, -20.482040405273438, 
229, 2490785327, 0.8746541, -0.33107242, -0.33090428, -0.12599148, 5.28888463973999, -5.830437183380127, 6.37608528137207, 18.779979705810547, 5.475894927978516, -32.496273040771484, 
230, 2490801994, 0.8769531, -0.32527554, -0.3280272, -0.13246703, 4.848343372344971, -5.318558216094971, 6.921596050262451, 25.257509231567383, 42.624977111816406, -45.77871322631836, 
231, 2490818661, 0.88082534, -0.31618732, -0.32288048, -0.14114143, 4.5763020515441895, -5.755722999572754, 6.307480812072754, 42.19129180908203, 67.24140167236328, -59.44816589355469, 
232, 2490835328, 0.8846918, -0.30629438, -0.31797802, -0.14964777, 4.6129865646362305, -6.454712867736816, 5.81874942779541, 47.71912384033203, 66.08280181884766, -60.7641716003418, 
233, 2490851995, 0.88847715, -0.29621366, -0.31418487, -0.1554155, 4.974157810211182, -5.5203166007995605, 5.711061954498291, 55.908485412597656, 53.52326202392578, -46.97368240356445, 
234, 2490868662, 0.89096546, -0.28970572, -0.31175452, -0.15830517, 5.0824432373046875, -5.25252628326416, 5.773797512054443, 38.9832763671875, 32.80002975463867, -26.036914825439453, 
235, 2490885329, 0.8931042, -0.2851419, -0.30995762, -0.15806842, 5.741363048553467, -5.628912448883057, 6.21315860748291, 33.867618560791016, 19.75430679321289, -4.328006744384766, 
236, 2490901996, 0.89515954, -0.2821376, -0.30797, -0.15569973, 4.969560146331787, -4.641776084899902, 6.596127033233643, 28.502971649169922, 14.84536361694336, 12.339764595031738, 
237, 2490918663, 0.897165, -0.28037307, -0.30534357, -0.15248418, 5.320487022399902, -4.431666851043701, 6.832769870758057, 21.88850975036621, 15.639599800109863, 21.343969345092773, 
238, 2490935330, 0.89942163, -0.2791499, -0.30135635, -0.14933302, 5.303103446960449, -4.365968704223633, 6.864161014556885, 17.46438217163086, 24.062965393066406, 24.968364715576172, 
239, 2490951997, 0.9019344, -0.27839854, -0.2958708, -0.14652407, 5.0231757164001465, -4.401875972747803, 6.713429927825928, 12.78766918182373, 33.98214340209961, 26.973695755004883, 
240, 2490968664, 0.9045494, -0.27831006, -0.28941575, -0.14343175, 4.667038440704346, -4.694974899291992, 6.451501369476318, 8.473809242248535, 38.942481994628906, 32.040679931640625, 
241, 2490985331, 0.9071205, -0.27905598, -0.28263202, -0.13921021, 4.546281337738037, -5.059929847717285, 6.1853132247924805, 5.139604091644287, 37.86946105957031, 41.30171585083008, 
242, 2491001998, 0.90956736, -0.28066167, -0.27594766, -0.13330263, 4.9998321533203125, -5.313186168670654, 5.9170145988464355, 2.9389824867248535, 32.90920639038086, 53.16209030151367, 
243, 2491018665, 0.91161, -0.28376073, -0.26956686, -0.12562233, 5.183794975280762, -5.047984600067139, 5.583592891693115, -3.50361704826355, 25.437782287597656, 66.112548828125, 
244, 2491035332, 0.913002, -0.28837505, -0.26407573, -0.11632545, 5.52329683303833, -5.296387672424316, 5.413900852203369, -10.479888916015625, 14.191794395446777, 76.75495147705078, 
245, 2491051999, 0.9138064, -0.29397032, -0.2596604, -0.10543226, 5.86058235168457, -5.502876281738281, 5.525149345397949, -14.01828670501709, 2.437407970428467, 85.95479583740234, 
246, 2491068666, 0.9142151, -0.2998088, -0.25615832, -0.093320265, 6.612497329711914, -5.823121547698975, 5.61496639251709, -13.484749794006348, -6.623845100402832, 91.91989135742188, 
247, 2491085333, 0.91445714, -0.30497685, -0.25336567, -0.08101405, 6.711339473724365, -5.361215591430664, 5.792543411254883, -8.795833587646484, -11.303339004516602, 90.41060638427734, 
248, 2491102000, 0.9144273, -0.30976868, -0.2510031, -0.06974196, 6.980429649353027, -4.8838934898376465, 6.318351745605469, -8.563709259033203, -12.058622360229492, 82.23772430419922, 
249, 2491118667, 0.9143496, -0.3140806, -0.24830985, -0.060503844, 6.681049823760986, -4.792363166809082, 6.605635166168213, -9.344743728637695, -5.453159332275391, 69.36555480957031, 
250, 2491135334, 0.91508687, -0.3156351, -0.24506974, -0.05414642, 7.2954182624816895, -5.540585041046143, 6.616804599761963, 4.569036483764648, 6.780762672424316, 48.135765075683594, 
251, 2491152001, 0.9162467, -0.31588066, -0.24094407, -0.05155082, 6.718696594238281, -3.999126672744751, 6.269594669342041, 7.041342735290527, 21.78019142150879, 24.418888092041016, 
252, 2491168668, 0.9177643, -0.31458253, -0.23670594, -0.052125603, 6.701937198638916, -4.942590713500977, 6.162252902984619, 12.208966255187988, 30.578720092773438, 2.362011671066284, 
253, 2491185335, 0.9194506, -0.31293538, -0.23183355, -0.054183427, 6.4848809242248535, -4.7876973152160645, 5.880960464477539, 12.125943183898926, 38.26203536987305, -6.046841621398926, 
254, 2491202002, 0.9210063, -0.31024787, -0.22845584, -0.057461902, 6.397783279418945, -5.20547342300415, 5.208081245422363, 17.025537490844727, 31.69818687438965, -18.604883193969727, 
255, 2491218669, 0.92304796, -0.30448955, -0.22669794, -0.06226367, 7.180343151092529, -4.993192195892334, 5.091501712799072, 35.7755012512207, 26.762800216674805, -36.26871109008789, 
256, 2491235336, 0.925569, -0.29641157, -0.22585976, -0.06670771, 5.269653797149658, -5.843766212463379, 6.326086044311523, 52.46877670288086, 22.038278579711914, -39.251739501953125, 
257, 2491252003, 0.9281001, -0.28864253, -0.22467133, -0.069561854, 4.531576633453369, -5.067013740539551, 7.684837818145752, 52.85000228881836, 20.94200897216797, -27.9190731048584, 
258, 2491268670, 0.9304155, -0.28147954, -0.22327535, -0.07241887, 4.648518085479736, -4.455103397369385, 8.74392318725586, 48.42560577392578, 21.638938903808594, -26.679563522338867, 
259, 2491285337, 0.93231755, -0.27526563, -0.22259665, -0.073918, 4.800169467926025, -5.633023738861084, 7.970686435699463, 43.93585205078125, 13.288432121276855, -18.108585357666016, 
260, 2491302004, 0.9336566, -0.2695878, -0.22358869, -0.07494161, 4.112668514251709, -4.758822441101074, 8.478374481201172, 41.007511138916016, 0.5407775640487671, -17.691680908203125, 
261, 2491318671, 0.93438345, -0.266392, -0.2240829, -0.075827196, 5.3252668380737305, -3.9802677631378174, 8.212048530578613, 23.860633850097656, 1.2269154787063599, -12.38555908203125, 
262, 2491335338, 0.9347313, -0.2651253, -0.22404486, -0.07609286, 4.954542636871338, -4.031011581420898, 7.792074203491211, 11.40155029296875, 1.92923903465271, -4.619297981262207, 
263, 2491352005, 0.9348027, -0.26527843, -0.22363633, -0.075883046, 4.9832258224487305, -4.130406856536865, 7.63556432723999, 2.2739975452423096, 2.280259847640991, 1.1791445016860962, 
264, 2491368672, 0.9346584, -0.26660785, -0.22291216, -0.07512862, 5.095365524291992, -4.552175045013428, 7.615015983581543, -5.036450386047363, 2.3799068927764893, 6.975812911987305, 
265, 2491385339, 0.93437904, -0.26859358, -0.22204973, -0.07407659, 4.554305553436279, -5.231686592102051, 7.31256103515625, -9.133627891540527, 2.1881964206695557, 10.095736503601074, 
266, 2491402006, 0.93409556, -0.27024743, -0.22160707, -0.07295417, 4.54133939743042, -5.617785930633545, 7.22323751449585, -6.6790452003479, -0.472381591796875, 9.260940551757812, 
267, 2491418673, 0.9339618, -0.27114457, -0.22140338, -0.07195015, 4.493485927581787, -5.880292892456055, 7.004991054534912, -1.5816419124603271, -1.176282525062561, 6.9673590660095215, 
268, 2491435340, 0.9340342, -0.27122027, -0.22125956, -0.07116189, 4.3898701667785645, -5.603769779205322, 7.072962284088135, 3.810312032699585, -0.4316060245037079, 4.306263446807861, 
269, 2491452007, 0.9342392, -0.27077597, -0.22116534, -0.07045339, 4.549126148223877, -5.211310863494873, 7.254284381866455, 7.319035053253174, -0.14352719485759735, 2.9642608165740967, 
270, 2491468674, 0.934497, -0.26994613, -0.22129154, -0.069819316, 4.378357887268066, -5.2103729248046875, 7.3143110275268555, 9.892190933227539, -1.1509902477264404, 1.5138391256332397, 
271, 2491485341, 0.934646, -0.26939303, -0.2216056, -0.06895791, 4.600900173187256, -4.608656406402588, 7.564591407775879, 8.352034568786621, -3.0814709663391113, 2.9884138107299805, 
272, 2491502008, 0.9346488, -0.26924816, -0.22207776, -0.067959614, 4.357621192932129, -4.989084720611572, 7.462173938751221, 5.722133636474609, -4.767926216125488, 4.136720180511475, 
273, 2491518675, 0.93458575, -0.2691736, -0.22271806, -0.06702195, 4.670360565185547, -4.976938724517822, 7.468509674072266, 5.130224704742432, -5.875650882720947, 3.509427309036255, 
274, 2491535342, 0.9344473, -0.2696932, -0.22297952, -0.06598789, 4.696740627288818, -4.92154598236084, 7.443384647369385, 1.1393555402755737, -4.005833625793457, 5.708085536956787, 
275, 2491552009, 0.93427616, -0.27053887, -0.2229869, -0.06491529, 4.585914134979248, -5.274036407470703, 7.241189002990723, -1.0792874097824097, -2.6398696899414062, 6.91776180267334, 
276, 2491568676, 0.9341499, -0.27101544, -0.22323425, -0.06388523, 4.421205043792725, -5.248449802398682, 7.213364124298096, 1.4245402812957764, -3.863478183746338, 5.649279594421387, 
277, 2491585343, 0.93403083, -0.27132842, -0.22362459, -0.062925115, 4.359976768493652, -5.236159801483154, 7.292112827301025, 2.448728561401367, -4.570004940032959, 4.681413650512695, 
278, 2491602010, 0.93392736, -0.27143234, -0.22417915, -0.06203539, 4.46885347366333, -5.119049549102783, 7.22283935546875, 3.7860960960388184, -5.381479740142822, 3.6030032634735107, 
279, 2491618677, 0.9338385, -0.27119476, -0.22501603, -0.06137796, 3.9582700729370117, -5.537464618682861, 7.1236042976379395, 5.768249988555908, -6.590514183044434, 1.0610958337783813, 
280, 2491635344, 0.93384176, -0.2701689, -0.22631024, -0.061095037, 3.9757769107818604, -5.5686564445495605, 7.074087619781494, 10.62920093536377, -8.364632606506348, -3.3959197998046875, 
281, 2491652011, 0.933918, -0.26805982, -0.2285224, -0.060982913, 4.298544883728027, -5.5809831619262695, 7.207069396972656, 17.8532657623291, -13.382681846618652, -7.872918605804443, 
282, 2491668678, 0.93389165, -0.26630068, -0.23075457, -0.06068774, 4.779711723327637, -4.930248737335205, 7.366251468658447, 15.72500991821289, -14.159064292907715, -6.244726181030273, 
283, 2491685345, 0.93377584, -0.26493526, -0.23286572, -0.06038265, 4.804320335388184, -5.023528099060059, 7.431302547454834, 12.990828514099121, -13.701319694519043, -5.371636390686035, 
284, 2491702012, 0.9335927, -0.2640918, -0.23466915, -0.059923418, 4.984593391418457, -4.692249298095703, 7.421896457672119, 9.63145923614502, -12.326475143432617, -3.0134198665618896, 
285, 2491718679, 0.9333517, -0.26375565, -0.2361825, -0.059210233, 5.073596477508545, -4.4918317794799805, 7.456058025360107, 6.546738624572754, -11.219913482666016, -0.054087650030851364, 
286, 2491735346, 0.9330474, -0.26390937, -0.23744367, -0.058267217, 4.8518218994140625, -4.809357166290283, 7.406699180603027, 3.541187286376953, -10.313270568847656, 2.6609299182891846, 
287, 2491752013, 0.93277025, -0.26412776, -0.23852354, -0.057297, 4.895984172821045, -4.946075916290283, 7.22482967376709, 3.138850212097168, -9.179076194763184, 3.2852652072906494, 
288, 2491768680, 0.9325672, -0.2641912, -0.23946777, -0.056366112, 4.75496244430542, -5.233067989349365, 7.1778788566589355, 4.146018028259277, -8.049734115600586, 3.0556724071502686, 
289, 2491785347, 0.93248445, -0.26394084, -0.24026412, -0.055510387, 4.877261638641357, -5.020949363708496, 7.172783374786377, 6.203295707702637, -6.643123149871826, 2.366421937942505, 
290, 2491802014, 0.93248636, -0.26358363, -0.2408629, -0.054573342, 4.946495056152344, -4.920516490936279, 7.1971845626831055, 7.101891040802002, -5.338053226470947, 3.1033248901367188, 
291, 2491818681, 0.9325687, -0.26309794, -0.2413184, -0.053488314, 4.906645774841309, -5.005842685699463, 7.072918891906738, 8.25999641418457, -4.502285480499268, 4.133506774902344, 
292, 2491835348, 0.9326888, -0.26269025, -0.24151158, -0.052518673, 4.93903112411499, -4.9421210289001465, 7.309236526489258, 7.543262481689453, -2.571201801300049, 4.012294769287109, 
293, 2491852015, 0.9328237, -0.26236597, -0.24154444, -0.051581558, 4.834725856781006, -5.026768207550049, 7.208955764770508, 6.921308994293213, -1.4866448640823364, 4.242041110992432, 
294, 2491868682, 0.93297315, -0.26201227, -0.24154092, -0.050685488, 4.759424686431885, -5.054298400878906, 7.234740257263184, 7.055237293243408, -1.142794132232666, 4.001677513122559, 
295, 2491885349, 0.93310285, -0.2617373, -0.24151951, -0.049813867, 4.825761795043945, -4.903816223144531, 7.310464859008789, 6.471280097961426, -1.0445563793182373, 3.9994876384735107, 
296, 2491902016, 0.933209, -0.2616056, -0.24143617, -0.0489117, 4.75034236907959, -5.0089030265808105, 7.278644561767578, 5.535942077636719, -0.7903375029563904, 4.539633750915527, 
297, 2491918683, 0.9333055, -0.26139942, -0.24146804, -0.048006933, 4.7106709480285645, -5.102499485015869, 7.267943382263184, 6.0396294593811035, -1.5259984731674194, 4.2233686447143555, 
298, 2491935350, 0.9333563, -0.2613912, -0.24145721, -0.04711142, 4.86355447769165, -4.774059295654297, 7.338067531585693, 4.6604228019714355, -1.3780081272125244, 4.551453590393066, 
299, 2491952017, 0.93333554, -0.26166332, -0.2414262, -0.046160907, 4.701400279998779, -4.967870712280273, 7.304553985595703, 2.8115062713623047, -1.5551073551177979, 5.389667987823486, 
300, 2491968684, 0.9332629, -0.26199865, -0.24152613, -0.045191616, 4.718260288238525, -4.99874210357666, 7.290955543518066, 2.3832366466522217, -2.537623405456543, 5.363095283508301, 
301, 2491985351, 0.9331664, -0.2624065, -0.24163316, -0.044239156, 4.717152118682861, -5.067209720611572, 7.2303266525268555, 1.849198818206787, -2.6166257858276367, 5.355923652648926, 
302, 2492002018, 0.9330569, -0.26283097, -0.24176611, -0.04329211, 4.765316009521484, -5.0056681632995605, 7.261412143707275, 1.7190730571746826, -2.7992184162139893, 5.2982048988342285, 
303, 2492018685, 0.9329396, -0.26338276, -0.24178423, -0.04235513, 4.744710445404053, -5.006341457366943, 7.243069171905518, 0.8359344601631165, -2.094984292984009, 5.651224136352539, 
304, 2492035352, 0.93281513, -0.2638552, -0.24191128, -0.041417833, 4.574184894561768, -5.231193542480469, 7.206613063812256, 1.3648240566253662, -2.782582998275757, 5.323958396911621, 
305, 2492052019, 0.9327045, -0.26412544, -0.24219239, -0.040534753, 4.661041736602783, -5.2151689529418945, 7.152281761169434, 2.643935203552246, -3.5942628383636475, 4.359000205993652, 
306, 2492068686, 0.9326391, -0.26421922, -0.24247803, -0.039713234, 4.6757097244262695, -5.219935417175293, 7.138065814971924, 3.7614428997039795, -3.3872478008270264, 3.672131299972534, 
307, 2492085353, 0.93260807, -0.2642665, -0.24266158, -0.039000403, 4.7732391357421875, -5.101027488708496, 7.195493221282959, 3.918781280517578, -2.4651901721954346, 3.0904664993286133, 
308, 2492102020, 0.93250114, -0.26481164, -0.24257176, -0.03841328, 4.8856000900268555, -4.83242654800415, 7.299733638763428, 0.3052777945995331, -0.7414556741714478, 3.591681957244873, 
309, 2492118687, 0.932228, -0.26598728, -0.24244562, -0.037711453, 4.79740571975708, -4.864112377166748, 7.285426139831543, -3.864809274673462, -1.158392071723938, 5.410581111907959, 
310, 2492135354, 0.9319311, -0.2673535, -0.24221788, -0.03684339, 4.764752388000488, -4.996532440185547, 7.275837421417236, -4.886154651641846, -0.8988586664199829, 6.978603839874268, 
311, 2492152021, 0.9316426, -0.2687782, -0.2419123, -0.0357657, 4.831784248352051, -5.032932281494141, 7.224798679351807, -4.9190545082092285, -0.7861628532409668, 8.568717002868652, 
312, 2492168688, 0.93138045, -0.27012146, -0.24160963, -0.034497254, 4.776725769042969, -5.180655002593994, 7.159273147583008, -4.034878730773926, -1.0917481184005737, 9.662253379821777, 
313, 2492185355, 0.9310944, -0.27171892, -0.24111982, -0.033067957, 4.874335289001465, -4.95128059387207, 7.260641098022461, -5.4825873374938965, -0.290172815322876, 11.459716796875, 
314, 2492202022, 0.9306873, -0.27385694, -0.24050279, -0.031342793, 4.794211387634277, -4.945706844329834, 7.36027193069458, -8.715082168579102, -0.3496329188346863, 14.46783447265625, 
315, 2492218689, 0.9302927, -0.27587977, -0.23994179, -0.02956098, 4.408385753631592, -5.636449813842773, 6.946352005004883, -7.857964515686035, -0.771192729473114, 14.545926094055176, 
316, 2492235356, 0.9299894, -0.2772536, -0.23970896, -0.028105808, 4.1731367111206055, -5.690342426300049, 6.938075542449951, -3.99462890625, -1.9714807271957397, 10.775256156921387, 
317, 2492252023, 0.92975825, -0.27833846, -0.23949273, -0.0268487, 4.625581741333008, -5.465402126312256, 6.970205307006836, -2.320479393005371, -1.5325043201446533, 9.004313468933105, 
318, 2492268690, 0.9296683, -0.27898788, -0.23921655, -0.025659189, 4.438081741333008, -5.734315395355225, 6.820888042449951, 0.6144359707832336, -0.706238329410553, 7.9959917068481445, 
319, 2492285357, 0.9297365, -0.2788684, -0.23918761, -0.02473988, 4.094675540924072, -5.890063762664795, 6.782250881195068, 5.445400714874268, -1.371399998664856, 4.5527472496032715, 
320, 2492302024, 0.9299485, -0.2778885, -0.23958166, -0.02397732, 4.461379051208496, -5.69288969039917, 6.879169464111328, 11.050667762756348, -3.3986334800720215, 1.3352161645889282, 
321, 2492318691, 0.9302263, -0.276513, -0.24017084, -0.023194134, 4.667745113372803, -5.40579080581665, 7.036015033721924, 13.782021522521973, -4.511186599731445, 0.4473901093006134, 
322, 2492335358, 0.93045706, -0.275681, -0.24031259, -0.022356577, 4.795114040374756, -5.206942081451416, 7.125599384307861, 10.236234664916992, -1.9149024486541748, 2.5372846126556396, 
323, 2492352025, 0.9308188, -0.2744448, -0.24039768, -0.021574603, 4.339037895202637, -5.710861682891846, 6.800217628479004, 12.965424537658691, -1.1665117740631104, 1.6485494375228882, 
324, 2492368692, 0.93132937, -0.27212343, -0.24111328, -0.020954683, 4.22915506362915, -5.869880676269531, 6.8814826011657715, 20.02836799621582, -4.488101005554199, -2.3581199645996094, 
325, 2492385359, 0.93190706, -0.26951206, -0.24186127, -0.02039374, 4.7826080322265625, -5.507380485534668, 7.02154016494751, 21.933794021606445, -4.437722206115723, -3.280089855194092, 
326, 2492402026, 0.9326713, -0.26666152, -0.24210377, -0.020052088, 4.645530700683594, -5.450479984283447, 7.002070903778076, 23.382247924804688, -0.4437856674194336, -4.119163990020752, 
327, 2492418693, 0.93334746, -0.26383522, -0.24263854, -0.019507231, 4.7608513832092285, -5.113626956939697, 7.2284955978393555, 23.451276779174805, -2.837015390396118, -3.3257322311401367, 
328, 2492435360, 0.9339717, -0.261039, -0.24328613, -0.019169621, 4.156626224517822, -5.653869152069092, 7.16747522354126, 22.82950210571289, -3.273789644241333, -4.813512802124023, 
329, 2492452027, 0.9347304, -0.25720328, -0.2444405, -0.019359268, 4.329521179199219, -5.472695827484131, 7.238386154174805, 28.942974090576172, -5.228511333465576, -10.843090057373047, 
330, 2492468694, 0.93567586, -0.25308508, -0.24507503, -0.019931447, 4.58608865737915, -5.558899879455566, 7.040102481842041, 30.383590698242188, -0.8661160469055176, -12.842007637023926, 
331, 2492485361, 0.9371174, -0.24748617, -0.24516909, -0.021310518, 4.434028625488281, -6.411059379577637, 6.696340560913086, 39.353580474853516, 5.05756950378418, -19.525867462158203, 
332, 2492502028, 0.9392482, -0.23953083, -0.24470423, -0.023624381, 4.7870378494262695, -6.384027481079102, 6.560698986053467, 54.093421936035156, 11.762267112731934, -28.487924575805664, 
333, 2492518695, 0.9415044, -0.23144397, -0.2436088, -0.025654018, 5.356783866882324, -3.9404988288879395, 7.454068660736084, 55.571128845214844, 15.615385055541992, -25.828548431396484, 
334, 2492535362, 0.9434125, -0.22457813, -0.24251074, -0.026956018, 4.812309741973877, -3.5782127380371094, 8.07662296295166, 48.31444549560547, 13.69029426574707, -19.108505249023438, 
335, 2492552029, 0.944822, -0.21886761, -0.24217476, -0.027567808, 4.755040645599365, -3.4853341579437256, 8.156281471252441, 41.313961029052734, 6.632607460021973, -13.957600593566895, 
336, 2492568696, 0.94574505, -0.2142741, -0.24268048, -0.027553644, 4.660210132598877, -3.4728543758392334, 8.278348922729492, 34.49994659423828, -0.8065282702445984, -9.37661361694336, 
337, 2492585363, 0.94610435, -0.21070105, -0.24448533, -0.026810294, 4.806295871734619, -3.8598997592926025, 8.020380020141602, 28.468761444091797, -11.472701072692871, -4.943798065185547, 
338, 2492602030, 0.9464226, -0.20727967, -0.24626921, -0.025908314, 4.8324689865112305, -3.9447200298309326, 7.868790626525879, 27.672163009643555, -11.6654634475708, -3.6312971115112305, 
339, 2492618697, 0.94669455, -0.20422427, -0.24787168, -0.024933053, 4.866079807281494, -3.9792988300323486, 7.811495780944824, 25.307344436645508, -10.73504638671875, -2.281630039215088, 
340, 2492635364, 0.94702023, -0.20135622, -0.24906479, -0.023987414, 4.892611026763916, -3.970365524291992, 7.73394250869751, 24.037548065185547, -7.968583583831787, -1.571067452430725, 
341, 2492652031, 0.9474126, -0.1986861, -0.24979378, -0.023165407, 4.89360237121582, -3.9157607555389404, 7.867378234863281, 22.549835205078125, -4.694195747375488, -1.3794963359832764, 
342, 2492668698, 0.9478405, -0.19649881, -0.24996445, -0.022467278, 4.95963191986084, -3.7920963764190674, 7.795032501220703, 19.14763069152832, -0.9041872024536133, -0.5871142745018005, 
343, 2492685365, 0.94831663, -0.1945127, -0.24976316, -0.021884693, 4.865683078765869, -3.9573378562927246, 7.7255988121032715, 17.641855239868164, 1.7296018600463867, -0.4783625602722168, 
344, 2492702032, 0.948787, -0.19292217, -0.24925342, -0.021387072, 4.804981708526611, -3.749143362045288, 7.842570781707764, 14.864267349243164, 3.7864952087402344, 0.06044602766633034, 
345, 2492718699, 0.9491759, -0.19176336, -0.24871516, -0.02081022, 4.694599151611328, -3.837635040283203, 7.821248531341553, 12.067877769470215, 3.6627845764160156, 1.3482533693313599, 
346, 2492735366, 0.94954616, -0.19045228, -0.24834791, -0.020335415, 4.460435390472412, -4.369251728057861, 7.767197608947754, 12.885819435119629, 2.669792413711548, 0.19610373675823212, 
347, 2492752033, 0.95000863, -0.18843825, -0.2481369, -0.020073798, 4.69916296005249, -4.227255344390869, 7.742611885070801, 17.267011642456055, 2.178464651107788, -2.5963940620422363, 
348, 2492768700, 0.9505105, -0.18627575, -0.24785739, -0.019955685, 4.774643421173096, -3.946145534515381, 7.915201663970947, 18.043119430541992, 2.8989131450653076, -3.6948604583740234, 
349, 2492785367, 0.95097077, -0.1842967, -0.24758261, -0.019812264, 4.834375858306885, -3.7954020500183105, 7.953855514526367, 16.836912155151367, 2.7398834228515625, -3.2270309925079346, 
350, 2492802034, 0.9513996, -0.18246539, -0.24730752, -0.019608561, 4.779555797576904, -3.6796300411224365, 7.986459732055664, 15.934252738952637, 2.591956615447998, -2.5827808380126953, 
351, 2492818701, 0.9517197, -0.18115497, -0.24706498, -0.019281192, 4.685315132141113, -3.5259642601013184, 8.075456619262695, 12.603144645690918, 1.968208909034729, -0.9414016604423523, 
352, 2492835368, 0.95194477, -0.18003383, -0.24704048, -0.018983535, 4.525300025939941, -3.903907299041748, 7.98602819442749, 11.218866348266602, 0.38917237520217896, -1.0953083038330078, 
353, 2492852035, 0.9520962, -0.1792024, -0.24708909, -0.018615695, 4.656615257263184, -3.539940118789673, 8.013409614562988, 9.36556625366211, -0.3444076478481293, -0.24683602154254913, 
354, 2492868702, 0.9522292, -0.17851445, -0.2470872, -0.018449299, 4.440885066986084, -4.012372016906738, 7.8158674240112305, 8.050982475280762, 0.18272103369235992, -1.258678674697876, 
355, 2492885369, 0.9523828, -0.17771043, -0.2470596, -0.018651076, 4.51692533493042, -3.7843117713928223, 8.015161514282227, 8.217811584472656, 0.8473707437515259, -3.8347790241241455, 
356, 2492902036, 0.95256466, -0.17690714, -0.24691449, -0.018921249, 4.751088619232178, -3.7307004928588867, 7.980907917022705, 8.118510246276855, 1.7445068359375, -4.137943744659424, 
357, 2492918703, 0.95271534, -0.17588007, -0.2470436, -0.01922312, 4.498248100280762, -3.9563891887664795, 8.093451499938965, 9.529605865478516, -0.0351470410823822, -5.061167240142822, 
358, 2492935370, 0.95278007, -0.17476986, -0.24755417, -0.019566447, 4.612301826477051, -3.7879090309143066, 8.225728034973145, 9.956879615783691, -2.6237599849700928, -5.951082229614258, 
359, 2492952037, 0.9525546, -0.17451374, -0.24857588, -0.01987639, 4.683988571166992, -3.3610780239105225, 8.541363716125488, 4.139038562774658, -6.6244378089904785, -4.934511661529541, 
360, 2492968704, 0.952039, -0.17495747, -0.25021937, -0.020054776, 4.701490879058838, -3.475177526473999, 8.630961418151855, -0.49031051993370056, -11.454625129699707, -3.6589229106903076, 
361, 2492985371, 0.951086, -0.17651771, -0.2527319, -0.020098293, 4.77520751953125, -3.202000856399536, 8.798550605773926, -7.980998516082764, -18.220624923706055, -1.9605845212936401, 
362, 2493002038, 0.9495282, -0.17963237, -0.25635234, -0.020304713, 4.797999858856201, -3.362393379211426, 8.90995979309082, -19.02743148803711, -26.540918350219727, -1.753650426864624, 
363, 2493018705, 0.9474906, -0.18265736, -0.26165903, -0.020797307, 4.498591423034668, -5.235854625701904, 8.846729278564453, -19.323442459106445, -38.0380973815918, -5.937005043029785, 
364, 2493035372, 0.94485563, -0.18454583, -0.26963994, -0.022023715, 4.296483993530273, -4.737558841705322, 9.752436637878418, -13.58849048614502, -55.46513748168945, -16.2357120513916, 
365, 2493052039, 0.9407566, -0.18628702, -0.2822797, -0.024347393, 3.7895636558532715, -6.347263813018799, 10.757658958435059, -15.822750091552734, -87.06373596191406, -29.805715560913086, 
366, 2493068706, 0.9344424, -0.18547088, -0.30270982, -0.028015327, 3.4447715282440186, -7.7062835693359375, 12.059205055236816, -3.411592721939087, -139.66270446777344, -53.88842010498047, 
367, 2493085373, 0.9241936, -0.18356463, -0.3330105, -0.035701506, 2.964221477508545, -6.887872695922852, 12.091779708862305, -7.87462854385376, -206.03720092773438, -95.44532775878906, 
368, 2493102040, 0.9091854, -0.18070361, -0.37171704, -0.05054584, 1.8222250938415527, -6.746385097503662, 12.566449165344238, -22.15037727355957, -261.2195129394531, -155.0419464111328, 
369, 2493118707, 0.88651544, -0.17787796, -0.42097187, -0.072339624, -0.2585846781730652, -5.2396697998046875, 12.904094696044922, -46.0601806640625, -338.3321533203125, -214.40899658203125, 
370, 2493135374, 0.85497177, -0.17125684, -0.4793003, -0.09982887, 1.9647080898284912, -8.401227951049805, 10.38379192352295, -45.8405876159668, -410.79345703125, -275.9059143066406, 
371, 2493152041, 0.82298684, -0.15244104, -0.53187287, -0.12870857, 11.073188781738281, -14.898233413696289, 7.124683856964111, 16.80988883972168, -368.4606628417969, -318.0399475097656, 
372, 2493168708, 0.80184233, -0.11504682, -0.56760454, -0.14710025, 23.579517364501953, -20.419540405273438, 6.961886882781982, 156.88807678222656, -227.89752197265625, -299.59820556640625, 
373, 2493185375, 0.79170835, -0.06805214, -0.58722836, -0.15404554, 17.087005615234375, -8.560677528381348, 12.404074668884277, 247.07736206054688, -95.3614273071289, -250.41677856445312, 
374, 2493202042, 0.7936316, -0.05109441, -0.5821893, -0.16909742, 4.23591947555542, 2.6982333660125732, 14.137812614440918, 30.380292892456055, 59.426937103271484, -149.01837158203125, 
375, 2493218709, 0.79919237, -0.04772515, -0.5709039, -0.18188742, -5.142991065979004, -8.1368989944458, 7.449845790863037, -40.62845230102539, 91.2305908203125, -75.77066040039062, 
376, 2493235376, 0.8077785, -0.047602512, -0.5554245, -0.1916551, -0.9314868450164795, -9.287226676940918, 4.17257833480835, -50.67893600463867, 120.96728515625, -41.3848762512207, 
377, 2493252043, 0.8166535, -0.046828296, -0.5414074, -0.19432572, -2.4606075286865234, -4.8677873611450195, 4.411925792694092, -17.743146896362305, 112.44076538085938, -4.687126636505127, 
378, 2493268710, 0.82572407, -0.05282389, -0.5277985, -0.19188225, -2.8201725482940674, -4.653928279876709, 3.6531898975372314, -35.986263275146484, 100.09602355957031, 49.32727813720703, 
379, 2493285377, 0.8349757, -0.06384944, -0.51424605, -0.1851759, -0.33424079418182373, -3.44773006439209, 3.6813931465148926, -48.841583251953125, 92.16068267822266, 91.96910858154297, 
380, 2493302044, 0.8448428, -0.07891113, -0.4993965, -0.1749775, 0.5667816996574402, -2.9821627140045166, 3.785945177078247, -60.990421295166016, 95.04159545898438, 127.6273422241211, 
381, 2493318711, 0.8546806, -0.0962985, -0.48357168, -0.16250019, 0.929275631904602, -1.9038821458816528, 3.888575553894043, -67.82576751708984, 96.5002212524414, 149.3380126953125, 
382, 2493335378, 0.8636681, -0.115312986, -0.46746004, -0.14920393, 2.4074208736419678, -0.6472265720367432, 3.5728156566619873, -75.53607940673828, 92.9238052368164, 158.80801391601562, 
383, 2493352045, 0.8715569, -0.13396418, -0.45173228, -0.13557494, 4.622580528259277, -0.6692187786102295, 1.885170340538025, -72.80462646484375, 87.17044067382812, 158.21084594726562, 
384, 2493368712, 0.8775431, -0.15059218, -0.43863288, -0.12182623, 5.677727699279785, 1.252994418144226, 0.010822378098964691, -59.6312255859375, 67.29273986816406, 148.47845458984375, 
385, 2493385379, 0.8798154, -0.16880833, -0.43098488, -0.108078666, 6.139166355133057, 4.4898457527160645, -1.285334587097168, -68.56300354003906, 21.929162979125977, 144.56781005859375, 
386, 2493402046, 0.8769582, -0.1906256, -0.4311213, -0.09349209, 8.62561321258545, 5.423373699188232, -1.5113662481307983, -88.17101287841797, -43.914161682128906, 147.56918334960938, 
387, 2493418713, 0.8701555, -0.21345115, -0.43751353, -0.07648587, 12.11073112487793, 3.881539821624756, -1.956398844718933, -88.41577911376953, -97.01239013671875, 154.52406311035156, 
388, 2493435380, 0.86120844, -0.23084226, -0.44918698, -0.057122342, 15.928471565246582, 1.7604632377624512, -2.3756890296936035, -49.341102600097656, -135.48529052734375, 143.51449584960938, 
389, 2493452047, 0.85465145, -0.2376152, -0.46008593, -0.037830222, 19.658945083618164, 1.1980229616165161, -1.8623961210250854, 16.692123413085938, -119.02239990234375, 112.592529296875, 
390, 2493468714, 0.8509158, -0.24166414, -0.4658228, -0.023462476, 18.6109619140625, 6.347508430480957, -0.4229092299938202, 20.30738639831543, -70.78905487060547, 84.38420104980469, 
391, 2493485381, 0.84689164, -0.25068608, -0.4686327, -0.017743094, 16.424964904785156, 7.9648261070251465, -0.05734417960047722, -37.56446075439453, -40.827049255371094, 54.80058288574219, 
392, 2493502048, 0.8414359, -0.26355305, -0.47132906, -0.019362265, 15.52661418914795, 5.280587196350098, -0.27614569664001465, -86.21209716796875, -32.41927719116211, 24.761075973510742, 
393, 2493518715, 0.8348872, -0.27582386, -0.47575423, -0.023299381, 14.919976234436035, 1.7682952880859375, -0.29163700342178345, -92.11331176757812, -41.51026916503906, 6.376095771789551, 
394, 2493535382, 0.82801855, -0.28425315, -0.4826439, -0.02530756, 14.546487808227539, -0.8578270673751831, -0.8379858732223511, -64.00935363769531, -59.592308044433594, 0.3316613435745239, 
395, 2493552049, 0.82238656, -0.28571942, -0.49132943, -0.02530467, 14.362907409667969, -2.0054643154144287, -1.0904710292816162, -14.975814819335938, -68.28825378417969, -14.489855766296387, 
396, 2493568716, 0.8188821, -0.27900136, -0.5009507, -0.025275681, 14.110281944274902, 1.5620442628860474, 0.3453418016433716, 35.7344970703125, -64.8875732421875, -43.35456466674805, 
397, 2493585383, 0.8183832, -0.27080727, -0.5064275, -0.021064686, 15.506987571716309, -4.267757415771484, -2.8353354930877686, 63.44667434692383, -38.86743927001953, -16.269622802734375, 
398, 2493602050, 0.82489455, -0.26031962, -0.50174665, -0.0057718493, 27.10325050354004, 6.01464319229126, -0.8590912818908691, 126.57638549804688, 22.54906463623047, 58.09114074707031, 
399, 2493618717, 0.8420691, -0.2663631, -0.46895927, 0.0069218935, 22.5542049407959, -14.985650062561035, 2.698676109313965, 41.75450897216797, 223.00282287597656, 151.48269653320312, 
400, 2493635384, 0.8648776, -0.25546375, -0.43037128, 0.038802583, -1.8195922374725342, -10.183906555175781, 10.70540714263916, 212.54391479492188, 238.98272705078125, 218.3317108154297, 
401, 2493652051, 0.88083816, -0.25053492, -0.3971684, 0.060117617, 11.223270416259766, -2.271885633468628, 5.893819808959961, 132.29405212402344, 206.552490234375, 165.29685974121094, 
402, 2493668718, 0.8964001, -0.2522291, -0.3577802, 0.06957716, 3.3557534217834473, -10.609620094299316, 4.442105293273926, 61.632389068603516, 266.11578369140625, 122.48153686523438, 
403, 2493685385, 0.91266835, -0.24827094, -0.31674963, 0.07119082, 4.423396587371826, -9.696037292480469, 5.436023235321045, 79.29540252685547, 288.8429260253906, 62.65986251831055, 
404, 2493702052, 0.930564, -0.22691856, -0.27895886, 0.06885256, -0.12229758501052856, -12.240998268127441, 10.313732147216797, 181.15335083007812, 270.2729797363281, -6.391441345214844, 
405, 2493718719, 0.9393687, -0.21062732, -0.2620119, 0.067620024, -5.505212306976318, -1.0293238162994385, 24.491477966308594, 126.88207244873047, 119.93598175048828, -17.917390823364258, 
406, 2493735386, 0.9410314, -0.20092809, -0.2652426, 0.06111192, 2.204341173171997, -5.8217620849609375, 11.442602157592773, 54.86356735229492, -12.889503479003906, -66.08885955810547, 
407, 2493752053, 0.9405574, -0.19860962, -0.26994324, 0.05510878, 6.052083492279053, -1.8783807754516602, 8.023418426513672, 4.451920032501221, -23.962345123291016, -50.52998352050781, 
408, 2493768720, 0.9403128, -0.19582108, -0.273957, 0.049132116, 5.209550857543945, -6.62920618057251, 5.866265296936035, 8.063741683959961, -19.282737731933594, -50.35602569580078, 
409, 2493785387, 0.9408426, -0.19117856, -0.27663654, 0.041694824, 6.348110198974609, -3.3919386863708496, 7.314993858337402, 18.841583251953125, -7.825340270996094, -61.7754020690918, 
410, 2493802054, 0.9405832, -0.18709, -0.28108802, 0.03592199, 4.749671459197998, -3.3200902938842773, 9.226788520812988, 16.86102294921875, -22.783794403076172, -52.04438400268555, 
411, 2493818721, 0.9382639, -0.18419762, -0.29127157, 0.029885564, 3.597611904144287, -5.983959197998047, 11.734922409057617, 4.521219730377197, -63.214508056640625, -58.306949615478516, 
412, 2493835388, 0.9314465, -0.18181425, -0.31441662, 0.022210527, 2.6385345458984375, -7.97384786605835, 16.5996036529541, -10.408430099487305, -153.73056030273438, -83.40518951416016, 
413, 2493852055, 0.91749877, -0.17645286, -0.35627082, 0.011473445, -0.8389553427696228, -9.449490547180176, 19.555078506469727, -9.73978328704834, -285.7997741699219, -131.88572692871094, 
414, 2493868722, 0.8926781, -0.1662615, -0.41882762, -0.008171621, -2.3942551612854004, -8.971970558166504, 18.249120712280273, -15.94432544708252, -433.09033203125, -224.47830200195312, 
415, 2493885389, 0.8537214, -0.14592412, -0.4979728, -0.043464154, -6.06773042678833, -11.715060234069824, 13.33442211151123, -13.994808197021484, -557.9053955078125, -370.08642578125, 
416, 2493902056, 0.7994119, -0.11022984, -0.583865, -0.088836856, -2.9034476280212402, -15.01457405090332, 9.853218078613281, 28.35277557373047, -636.1463012695312, -494.0216369628906, 
417, 2493918723, 0.7594016, -0.052505825, -0.63684875, -0.12237671, 24.524127960205078, -23.43822479248047, 9.993387222290039, 187.9407501220703, -392.6607971191406, -483.65576171875, 
418, 2493935390, 0.7495969, -0.016960913, -0.6483581, -0.13209426, 17.392240524291992, -10.561944007873535, 24.700342178344727, 152.37063598632812, -70.61830139160156, -221.54563903808594, 
419, 2493952057, 0.76122665, -0.023261804, -0.6265247, -0.16571036, -61.202701568603516, -17.327707290649414, 11.31688404083252, -197.47584533691406, 161.2881622314453, -135.03567504882812, 
420, 2493968724, 0.7694476, -0.012501267, -0.6157874, -0.16911593, -7.07851505279541, -20.978418350219727, 14.57728385925293, 34.36521530151367, 102.7632827758789, -56.170318603515625, 
421, 2493985391, 0.79177743, -0.034013215, -0.5858821, -0.1693341, -23.10639190673828, -6.920935153961182, 6.223989963531494, -143.69174194335938, 225.9363555908203, 115.11154174804688, 
422, 2494002058, 0.81401634, -0.06845802, -0.5534692, -0.16236748, -10.71327018737793, -11.746225357055664, 3.793104648590088, -188.0092315673828, 222.34735107421875, 206.8311004638672, 
423, 2494018725, 0.8352929, -0.11107316, -0.5175393, -0.1486677, -0.5734082460403442, -5.184858798980713, 1.3196978569030762, -212.4127655029297, 226.04620361328125, 276.1065979003906, 
424, 2494035392, 0.8524268, -0.15254132, -0.4833562, -0.12832358, 8.867436408996582, 1.5417351722717285, -2.737434148788452, -183.51937866210938, 197.3717041015625, 304.58636474609375, 
425, 2494052059, 0.86058897, -0.19279742, -0.45946044, -0.105415545, 12.515748023986816, 7.896842956542969, -6.830976963043213, -168.30625915527344, 105.73208618164062, 296.9277648925781, 
426, 2494068726, 0.8589695, -0.21924543, -0.45459136, -0.08631274, 18.855350494384766, 9.70582389831543, -8.521735191345215, -97.95655822753906, -22.48564338684082, 198.58334350585938, 
427, 2494085393, 0.85015213, -0.23649359, -0.4648821, -0.07209202, 26.89212989807129, 12.69235897064209, -6.793027877807617, -60.95939254760742, -121.35548400878906, 114.1180191040039, 
428, 2494102060, 0.8373419, -0.25136122, -0.48181275, -0.059437774, 34.594364166259766, 13.131452560424805, -6.224422454833984, -55.52093505859375, -168.8311309814453, 84.934326171875, 
429, 2494118727, 0.8264609, -0.262831, -0.49588004, -0.044559307, 41.593505859375, 10.82827377319336, -7.011786460876465, -26.65650177001953, -148.0126953125, 92.65006256103516, 
430, 2494135394, 0.81963575, -0.26988116, -0.50450927, -0.028847659, 35.30889892578125, 13.339712142944336, -7.575519561767578, 6.802655220031738, -103.03064727783203, 93.8362808227539, 
431, 2494152061, 0.8128498, -0.27182683, -0.5148813, -0.016821697, 27.665607452392578, 15.272345542907715, -8.360373497009277, 23.07189178466797, -104.54422760009766, 52.569210052490234, 
432, 2494168728, 0.8035304, -0.27155933, -0.52967685, -0.0060853297, 27.165281295776367, 9.054644584655762, -6.838743686676025, 26.54904556274414, -135.3156280517578, 29.355371475219727, 
433, 2494185395, 0.813658, -0.26079664, -0.5193728, 0.01407027, 51.64724349975586, 3.077270984649658, 7.383658409118652, 154.05628967285156, 57.24235153198242, 91.12789916992188, 
434, 2494202062, 0.835131, -0.2910667, -0.46576712, 0.029959928, 8.690635681152344, -16.994239807128906, 8.038439750671387, -66.387451171875, 351.9858703613281, 290.8712463378906, 
435, 2494218729, 0.8607147, -0.27752796, -0.4215404, 0.066726945, 3.6271419525146484, -20.999557495117188, 7.650829792022705, 258.5980529785156, 260.3050537109375, 250.6119384765625, 
436, 2494235396, 0.8796967, -0.2738652, -0.3798271, 0.08284416, 9.755719184875488, -2.727043867111206, 7.445284843444824, 126.53951263427734, 270.0460205078125, 154.9332733154297, 
437, 2494252063, 0.9002451, -0.26371226, -0.33582118, 0.085082285, -3.5592150688171387, -16.660213470458984, 3.567486524581909, 133.7461395263672, 310.42803955078125, 57.44446563720703, 
438, 2494268730, 0.9205334, -0.24105546, -0.29746935, 0.0776065, -0.8182541131973267, -11.882850646972656, 12.453518867492676, 185.05731201171875, 285.0184020996094, -41.84297561645508, 
439, 2494285397, 0.9328257, -0.21874554, -0.2775563, 0.07035313, 1.4533841609954834, 1.0745849609375, 21.638174057006836, 160.1880645751953, 151.56520080566406, -66.09880828857422, 
440, 2494302064, 0.935235, -0.20653431, -0.2797116, 0.066639274, -0.3412182331085205, -4.64750337600708, 15.078911781311035, 76.45722198486328, -9.444709777832031, -52.52400207519531, 
441, 2494318731, 0.93346566, -0.20197406, -0.29035535, 0.059519395, 4.9807844161987305, -5.991165637969971, 9.955416679382324, 10.84740161895752, -63.83367156982422, -69.8820571899414, 
442, 2494335398, 0.9303006, -0.19598131, -0.3063888, 0.047520947, 3.8543665409088135, -8.203704833984375, 9.399676322937012, 6.155323505401611, -95.0487289428711, -110.98231506347656, 
443, 2494352065, 0.9241634, -0.18929298, -0.3299437, 0.03503782, 4.806130409240723, -3.5297086238861084, 13.975251197814941, 3.1416878700256348, -149.03236389160156, -124.74918365478516, 
444, 2494368732, 0.91267544, -0.17898083, -0.36661848, 0.024098463, 0.4687403738498688, -5.222794532775879, 15.752814292907715, 19.51202964782715, -247.5184326171875, -138.97291564941406, 
445, 2494385399, 0.89242595, -0.16634785, -0.4193421, 0.007532012, 0.9296357035636902, -4.3617448806762695, 16.976398468017578, 6.433712482452393, -364.02197265625, -198.53973388671875, 
446, 2494402066, 0.85825133, -0.14829029, -0.49090007, -0.020781586, -4.295727729797363, -12.253782272338867, 17.7011661529541, -11.08696460723877, -507.0958251953125, -307.35955810546875, 
447, 2494418733, 0.80381715, -0.11229874, -0.58110994, -0.0598195, -9.385980606079102, -13.841364860534668, 14.534440040588379, 40.7027473449707, -673.1145629882812, -453.8612060546875, 
448, 2494435400, 0.75200415, -0.052620057, -0.6500111, -0.0959516, 22.911251068115234, -17.212078094482422, 7.1762495040893555, 176.81326293945312, -537.0447998046875, -515.0344848632812, 
449, 2494452067, 0.72549415, 0.0113787055, -0.67953926, -0.108422175, 33.376686096191406, -12.764262199401855, 11.812100410461426, 288.0362243652344, -225.2048797607422, -380.4935607910156, 
450, 2494468734, 0.7382509, 0.0039034036, -0.6620784, -0.12892975, -19.30620765686035, 3.4548091888427734, 25.053977966308594, -144.36700439453125, 138.94009399414062, -60.80131149291992, 
451, 2494485401, 0.7400218, 0.018075012, -0.6547949, -0.15259455, -34.31563186645508, -24.827184677124023, 15.85812759399414, -39.45075225830078, 56.19154739379883, -184.77191162109375, 
452, 2494502068, 0.76292926, 0.01364352, -0.6254778, -0.16288288, -15.48822021484375, -7.400638580322266, 12.756734848022461, -99.52967834472656, 245.56517028808594, -13.617156028747559, 
453, 2494518735, 0.7859556, 0.0046245637, -0.59640265, -0.1629616, -18.4698543548584, -14.848284721374512, 3.896775722503662, -79.36238861083984, 240.5665283203125, 59.85862350463867, 
454, 2494535402, 0.8106776, -0.02689285, -0.56356996, -0.15642177, -12.92859935760498, -4.172826290130615, 1.5239129066467285, -178.09112548828125, 242.8732452392578, 189.696533203125, 
455, 2494552069, 0.8307572, -0.07194112, -0.533362, -0.14209817, -1.5674318075180054, -3.3437085151672363, -1.1320053339004517, -221.4653778076172, 194.27755737304688, 280.12371826171875, 
456, 2494568736, 0.8447765, -0.123210855, -0.50788325, -0.115007006, 0.9268338680267334, 0.699643075466156, -3.233773946762085, -208.6350860595703, 132.67062377929688, 367.6877136230469, 
457, 2494585403, 0.84695864, -0.16596708, -0.49781755, -0.08540611, 10.780216217041016, 1.0742706060409546, -5.193081378936768, -148.2747802734375, 6.39094877243042, 330.0339050292969, 
458, 2494602070, 0.8432749, -0.18420328, -0.5007536, -0.06482804, 19.534086227416992, 6.435666561126709, -5.021783351898193, -35.445369720458984, -64.61144256591797, 175.18714904785156, 
459, 2494618737, 0.83676374, -0.1982452, -0.5073695, -0.05569434, 30.58861541748047, 12.386361122131348, -4.551911354064941, -52.541011810302734, -79.19157409667969, 88.54475402832031, 
460, 2494635404, 0.8299829, -0.21959378, -0.5102325, -0.05069626, 32.378700256347656, 7.8985676765441895, -6.7566351890563965, -110.89360809326172, -55.555267333984375, 95.39318084716797, 
461, 2494652071, 0.82310873, -0.2395297, -0.51327544, -0.040819287, 32.811607360839844, 5.291723251342773, -11.386768341064453, -85.84406280517578, -63.63327407836914, 118.09345245361328, 
462, 2494668738, 0.81754804, -0.25079116, -0.51795, -0.021139972, 35.42702102661133, 4.1262946128845215, -15.107292175292969, 0.44185391068458557, -81.78128814697266, 140.74395751953125, 
463, 2494685405, 0.8134812, -0.24605142, -0.5269713, 0.0028918863, 30.381004333496094, 12.884702682495117, -15.222878456115723, 109.09713745117188, -105.90553283691406, 101.05050659179688, 
464, 2494702072, 0.81309766, -0.22777611, -0.5351517, 0.024560358, 64.33843994140625, 11.296906471252441, -12.72300910949707, 182.48182678222656, -83.97732543945312, 40.25709533691406, 
465, 2494718739, 0.8367816, -0.24412863, -0.48915794, 0.030376589, 33.386192321777344, 19.47199249267578, 7.995190143585205, -22.660490036010742, 338.4803161621094, 160.0823211669922, 
466, 2494735406, 0.8517712, -0.25964755, -0.4529803, 0.043336935, -15.661673545837402, -20.45638656616211, 16.801088333129883, -10.558345794677734, 240.51473999023438, 183.8541717529297, 
467, 2494752073, 0.8713925, -0.25069845, -0.41651818, 0.06586798, 17.20464515686035, -19.537370681762695, 7.683586120605469, 170.99351501464844, 232.0979461669922, 162.66317749023438, 
468, 2494768740, 0.8845917, -0.25232118, -0.3850997, 0.07436449, 4.639567852020264, -0.32712578773498535, 11.110920906066895, 54.08998489379883, 212.4333953857422, 102.96297454833984, 
469, 2494785407, 0.8954512, -0.252192, -0.35918358, 0.07452279, 1.5952024459838867, -15.733216285705566, 6.7251296043396, 35.76087951660156, 186.27468872070312, 39.24141311645508, 
470, 2494802074, 0.9056992, -0.2443479, -0.3396375, 0.06818904, 2.077670097351074, -8.871106147766113, 11.315828323364258, 62.93193054199219, 152.81106567382812, -30.586639404296875, 
471, 2494818741, 0.9129672, -0.235836, -0.32739455, 0.06070852, 4.6782402992248535, -4.949812889099121, 10.580361366271973, 55.97795867919922, 101.93318176269531, -50.19380569458008, 
472, 2494835408, 0.9177417, -0.22804457, -0.32037255, 0.0557447, 4.662240028381348, -2.7743842601776123, 10.089011192321777, 50.884544372558594, 59.733795166015625, -40.20884704589844, 
473, 2494852075, 0.92074865, -0.21921666, -0.3184939, 0.052228287, 4.994168758392334, -4.832746982574463, 9.108814239501953, 55.85681915283203, 20.691755294799805, -40.749908447265625, 
474, 2494868742, 0.9221809, -0.21071728, -0.32088912, 0.047022756, 4.8210248947143555, -6.884676933288574, 9.096277236938477, 46.16717529296875, -7.167164325714111, -56.608306884765625, 
475, 2494885409, 0.92200583, -0.20074674, -0.32868773, 0.0396343, 4.746464729309082, -6.506035804748535, 9.47347640991211, 46.610042572021484, -42.305660247802734, -81.02191925048828, 
476, 2494902076, 0.9186528, -0.19088073, -0.34451446, 0.030850671, 3.980318784713745, -5.482882976531982, 13.49084186553955, 36.226680755615234, -98.44953918457031, -99.86026000976562, 
477, 2494918743, 0.9088232, -0.17908521, -0.37625408, 0.020054117, 1.4198750257492065, -6.315670013427734, 18.67859649658203, 31.775543212890625, -212.14599609375, -136.68505859375, 
478, 2494935410, 0.88746965, -0.16273192, -0.43117929, 7.501307E-4, -0.9587661027908325, -11.071653366088867, 20.516334533691406, 20.872543334960938, -377.2657470703125, -228.72573852539062, 
479, 2494952077, 0.8484679, -0.13566305, -0.51044446, -0.033834808, -6.8447489738464355, -9.909928321838379, 19.4949893951416, 21.12935447692871, -561.7998046875, -381.3665466308594, 
480, 2494968744, 0.79313415, -0.09163704, -0.59718066, -0.07691688, -2.6848154067993164, -19.715953826904297, 14.474403381347656, 76.92742919921875, -651.5803833007812, -501.837158203125, 
481, 2494985411, 0.75509197, -0.021478934, -0.6467847, -0.105091475, 27.903303146362305, -20.532480239868164, 7.868556022644043, 272.20025634765625, -372.7690124511719, -494.98370361328125, 
482, 2495002078, 0.7540234, -0.0045128665, -0.6455555, -0.12118919, 15.637553215026855, 2.7719950675964355, 28.933008193969727, 18.0694637298584, 15.93556022644043, -160.84849548339844, 
483, 2495018745, 0.7604445, -0.008433471, -0.6320814, -0.14874889, -65.24122619628906, -19.964275360107422, 10.38815975189209, -151.00335693359375, 95.51763153076172, -120.93960571289062, 
484, 2495035412, 0.772257, -0.00890387, -0.6173489, -0.14973487, -4.114326000213623, -17.610132217407227, 18.854799270629883, -18.367063522338867, 127.42010498046875, 8.572402000427246, 
485, 2495052079, 0.7962115, -0.024728274, -0.5877277, -0.14146362, -32.29188537597656, -19.67327117919922, 6.41946268081665, -75.14830017089844, 241.621337890625, 136.28427124023438, 
486, 2495068746, 0.8216544, -0.06031278, -0.5525249, -0.12634432, -14.080272674560547, -9.52908706665039, 4.637750148773193, -160.862548828125, 257.8176574707031, 256.0681457519531, 
487, 2495085413, 0.8421728, -0.10241445, -0.5194631, -0.102051124, -3.694504976272583, -6.429349899291992, 2.4957616329193115, -163.03009033203125, 217.5066680908203, 327.5253601074219, 
488, 2495102080, 0.8561632, -0.14686224, -0.4894765, -0.07634872, 5.740079402923584, -1.9511895179748535, -0.19092074036598206, -174.0512237548828, 173.70388793945312, 337.2884216308594, 
489, 2495118747, 0.85944855, -0.18139103, -0.47503996, -0.052752204, 13.173731803894043, 0.8032612800598145, -3.7307448387145996, -125.37564849853516, 53.409542083740234, 270.0568542480469, 
490, 2495135414, 0.8530184, -0.20393659, -0.4790915, -0.03523191, 24.91608238220215, 2.8820981979370117, -6.783914089202881, -79.84307861328125, -75.6089859008789, 168.3773193359375, 
491, 2495152081, 0.8398838, -0.22565192, -0.49326667, -0.019097986, 38.61391067504883, 5.1991868019104, -10.37149429321289, -86.55109405517578, -154.82899475097656, 141.7241668701172, 
492, 2495168748, 0.826113, -0.24559017, -0.50716937, -0.0015347307, 45.02741241455078, 5.915458679199219, -14.900654792785645, -72.51525115966797, -157.24864196777344, 144.36227416992188, 
493, 2495185415, 0.8155085, -0.25923643, -0.5172129, 0.015280137, 40.68037033081055, 12.69885540008545, -16.163156509399414, -34.11026382446289, -122.77214813232422, 124.80570983886719, 
494, 2495202082, 0.8054972, -0.26635754, -0.52883506, 0.023702018, 35.911895751953125, 24.998226165771484, -14.154844284057617, -26.49970817565918, -115.08106994628906, 51.78517532348633, 
495, 2495218749, 0.7946621, -0.27040932, -0.5431272, 0.0201057, 31.76189613342285, 22.510953903198242, -13.913049697875977, -55.16594314575195, -111.23894500732422, -30.513118743896484, 
496, 2495235416, 0.80076283, -0.24638341, -0.54463464, 0.038045093, 48.018699645996094, -10.219481468200684, -14.170968055725098, 211.9368133544922, -21.956912994384766, 3.880836248397827, 
497, 2495252083, 0.8278437, -0.23714398, -0.50584537, 0.050577626, 9.625652313232422, 11.995460510253906, 7.761228084564209, 156.38861083984375, 291.76690673828125, 92.31045532226562, 
498, 2495268750, 0.8483478, -0.23365572, -0.47123188, 0.060428802, 15.346183776855469, -20.429548263549805, 21.344287872314453, 102.09065246582031, 251.42123413085938, 92.56977844238281, 
499, 2495285417, 0.8738443, -0.22151496, -0.4251167, 0.08125961, 7.340512275695801, -14.746384620666504, 10.42667007446289, 201.008544921875, 313.4991149902344, 144.96678161621094, 
500, 2495302084, 0.89201456, -0.2156746, -0.38670042, 0.090870135, 9.827218055725098, 5.799023628234863, 9.065627098083496, 114.83323669433594, 266.3337707519531, 88.2206802368164, 
501, 2495318751, 0.9060063, -0.21657766, -0.35110387, 0.09472505, -0.1459977626800537, -10.887149810791016, 9.851917266845703, 50.15985107421875, 250.64093017578125, 69.30538940429688, 
502, 2495335418, 0.91590935, -0.21193327, -0.3279643, 0.0929193, 1.3850321769714355, -10.510263442993164, 14.707258224487305, 56.85187911987305, 167.9115447998047, 4.704601287841797, 
503, 2495352085, 0.92191976, -0.20414962, -0.31711948, 0.08844437, 1.2158904075622559, -6.04238748550415, 16.022916793823242, 57.07282638549805, 83.5357894897461, -34.64266586303711, 
504, 2495368752, 0.92227817, -0.196962, -0.321707, 0.08434288, 2.9615514278411865, -4.219780921936035, 14.56991958618164, 36.78266906738281, -26.822778701782227, -49.2088508605957, 
505, 2495385419, 0.91998816, -0.1896484, -0.33385307, 0.07872597, 4.621767997741699, -5.959377288818359, 9.58144474029541, 26.256624221801758, -78.6754379272461, -67.79488372802734, 
506, 2495402086, 0.91736406, -0.18156207, -0.3470767, 0.07082753, 5.191991329193115, -5.595815658569336, 5.81395959854126, 24.89246940612793, -83.71923828125, -85.23307800292969, 
507, 2495418753, 0.9151093, -0.17401621, -0.35848933, 0.061475255, 7.766129970550537, -1.4242075681686401, 5.277593612670898, 19.363183975219727, -69.33718872070312, -91.04302978515625, 
508, 2495435420, 0.91194135, -0.16920641, -0.37007937, 0.052666303, 6.490525722503662, 0.09404883533716202, 8.762369155883789, 2.3138957023620605, -72.19034576416016, -80.6968765258789, 
509, 2495452087, 0.90643543, -0.16455565, -0.38631645, 0.045343667, 4.046670436859131, -2.517402172088623, 10.300531387329102, 0.6889218091964722, -108.96859741210938, -75.51437377929688, 
510, 2495468754, 0.89832586, -0.1585613, -0.40795293, 0.037992254, 5.607293605804443, -2.7671732902526855, 9.732298851013184, 4.361299514770508, -149.958984375, -84.55656433105469, 
511, 2495485421, 0.8871967, -0.15129152, -0.43498626, 0.027933493, 4.913939952850342, -5.807226181030273, 9.390810012817383, -0.04920389875769615, -189.18267822265625, -109.95169067382812, 
512, 2495502088, 0.8717669, -0.13963719, -0.46942723, 0.012741033, 4.633865833282471, -7.766122817993164, 10.239476203918457, 5.4631733894348145, -242.79917907714844, -161.298095703125, 
513, 2495518755, 0.84838086, -0.12253464, -0.51492864, -0.009166523, 3.1639509201049805, -6.361495494842529, 12.355302810668945, 7.859991550445557, -328.9463806152344, -229.15658569335938, 
514, 2495535422, 0.8129958, -0.097331814, -0.57282543, -0.037893996, 2.890796422958374, -5.934720516204834, 13.026521682739258, 21.68144416809082, -437.77813720703125, -309.0133056640625, 
515, 2495552089, 0.76905507, -0.06726257, -0.63195986, -0.068240896, 6.639688014984131, -8.27455997467041, 8.894394874572754, 37.1630973815918, -476.2306213378906, -340.4115295410156, 
516, 2495568756, 0.7288212, -0.035466786, -0.67751604, -0.09238054, 22.025484085083008, -6.91197395324707, 3.0134644508361816, 68.64642333984375, -390.18487548828125, -306.979248046875, 
517, 2495585423, 0.7031575, -0.0067615146, -0.7033951, -0.10372749, 16.260597229003906, -7.513136863708496, 6.3063645362854, 103.7834701538086, -228.53363037109375, -214.282958984375, 
518, 2495602090, 0.689918, 0.014730912, -0.71579367, -0.106938474, 3.249025344848633, -9.363283157348633, 12.349132537841797, 99.19902801513672, -108.75370788574219, -130.567138671875, 
519, 2495618757, 0.6936966, 0.026736476, -0.708676, -0.12589276, -20.19915199279785, 0.9706018567085266, 18.35271644592285, -39.34342575073242, 58.96260070800781, -148.068359375, 
520, 2495635424, 0.7112722, 0.03904626, -0.68793386, -0.13897613, -4.2319769859313965, -16.6160888671875, 14.09982681274414, -23.525049209594727, 192.46043395996094, -112.08892822265625, 
521, 2495652091, 0.73879623, 0.035895344, -0.65853125, -0.13866656, -9.299142837524414, -6.429223537445068, 7.427948474884033, -46.70459747314453, 270.663330078125, 33.67244338989258, 
522, 2495668758, 0.7634791, 0.023259085, -0.6322821, -0.12953056, -7.036252498626709, -10.17972469329834, 3.8478074073791504, -51.19437789916992, 234.861083984375, 119.53392791748047, 
523, 2495685425, 0.78677374, -0.0038568012, -0.60720134, -0.11081036, 0.22256459295749664, -4.74514627456665, 5.458250522613525, -84.29283142089844, 211.3173828125, 231.7585906982422, 
524, 2495702092, 0.809506, -0.043321922, -0.57943815, -0.08411292, 6.393408298492432, -5.666997909545898, 6.35939884185791, -119.9015121459961, 213.86903381347656, 326.1924133300781, 
525, 2495718759, 0.82992095, -0.08893757, -0.5483292, -0.051541753, 10.423381805419922, -4.536067962646484, 8.147940635681152, -133.410400390625, 217.95668029785156, 383.1034240722656, 
526, 2495735426, 0.84856975, -0.13362232, -0.5115797, -0.018992245, 15.980072975158691, -5.961495876312256, 8.280202865600586, -131.29183959960938, 243.82611083984375, 382.2821044921875, 
527, 2495752093, 0.8665188, -0.17083977, -0.4689071, 0.009250376, 19.707246780395508, -4.834511756896973, 7.993590831756592, -104.29171752929688, 280.8568115234375, 336.1558532714844, 
528, 2495768760, 0.88051564, -0.20804729, -0.4248364, 0.030378133, 24.26589584350586, -1.1234276294708252, 7.6523237228393555, -131.75929260253906, 284.803955078125, 295.5819396972656, 
529, 2495785427, 0.8891195, -0.24390568, -0.3840215, 0.050042637, 25.901708602905273, -4.804634094238281, 7.296432018280029, -136.2808837890625, 251.15200805664062, 279.25, 
530, 2495802094, 0.89273435, -0.2740567, -0.3501655, 0.07281977, 25.22602653503418, -3.7833285331726074, 5.494674205780029, -103.92925262451172, 188.26193237304688, 273.24505615234375, 
531, 2495818761, 0.8886341, -0.30486524, -0.3296762, 0.093277276, 25.391780853271484, 2.5120646953582764, 3.5929503440856934, -134.80206298828125, 92.37132263183594, 239.2653045654297, 
532, 2495835428, 0.87839955, -0.33949572, -0.31782502, 0.11020117, 28.390535354614258, 0.9097508788108826, 1.9678983688354492, -184.60711669921875, 35.615692138671875, 212.23773193359375, 
533, 2495852095, 0.8650361, -0.37222832, -0.31218863, 0.1252883, 25.265579223632812, 0.8829652667045593, 0.5098567008972168, -189.18751525878906, -5.816036701202393, 184.94509887695312, 
534, 2495868762, 0.8499011, -0.4026029, -0.31177655, 0.1355526, 20.40604019165039, 2.8610031604766846, -1.1485544443130493, -194.55343627929688, -30.299461364746094, 139.44012451171875, 
535, 2495885429, 0.8377794, -0.42192513, -0.3170743, 0.13988948, 17.542367935180664, -4.939728260040283, -1.5249700546264648, -139.6315460205078, -51.03656768798828, 62.5743408203125, 
536, 2495902096, 0.83255476, -0.43000513, -0.3229919, 0.13275795, 16.328044891357422, 1.3587350845336914, 3.8923962116241455, -80.44065856933594, -17.046558380126953, -36.36844253540039, 
537, 2495918763, 0.8358781, -0.43030605, -0.31813636, 0.12220508, 13.804513931274414, -13.74128246307373, 3.068343162536621, -8.425061225891113, 66.6327133178711, -49.0911979675293, 
538, 2495935430, 0.8447122, -0.41795307, -0.31173453, 0.12082417, -2.912048101425171, -10.00636100769043, 3.2557623386383057, 101.97045135498047, 49.85436248779297, -24.09353256225586, 
539, 2495952097, 0.855632, -0.39869103, -0.30667445, 0.122026026, 8.14205551147461, -7.613830089569092, 5.367222785949707, 152.52195739746094, 33.37284851074219, -29.543109893798828, 
540, 2495968764, 0.86675423, -0.3767129, -0.30238628, 0.124045365, 2.359300374984741, -9.919839859008789, 5.565884113311768, 170.12864685058594, 24.761383056640625, -32.73905563354492, 
541, 2495985431, 0.87770313, -0.35436288, -0.29908338, 0.12088735, 2.700458526611328, -8.394926071166992, 7.459688186645508, 160.29083251953125, 31.63099479675293, -66.8001937866211, 
542, 2496002098, 0.8873386, -0.3306306, -0.29967615, 0.11622484, 3.9516050815582275, -6.4207072257995605, 7.753084659576416, 159.09315490722656, 7.932547569274902, -87.14220428466797, 
543, 2496018765, 0.8944101, -0.3117255, -0.2999075, 0.113638334, 7.287221431732178, -2.8403358459472656, 8.73426342010498, 128.3638916015625, 3.985633611679077, -61.66025161743164, 
544, 2496035432, 0.89980567, -0.29700816, -0.2989048, 0.113103636, 6.46770715713501, -4.2707672119140625, 7.74727201461792, 104.19086456298828, 6.989034652709961, -36.42164611816406, 
545, 2496052099, 0.9037608, -0.2854336, -0.29810682, 0.113476954, 4.9303717613220215, -4.9688310623168945, 7.662825584411621, 83.5011978149414, 3.3548147678375244, -23.627939224243164, 
546, 2496068766, 0.90774983, -0.27430713, -0.29648206, 0.113334, 5.232813358306885, -5.65075159072876, 6.700988292694092, 80.36439514160156, 9.922813415527344, -24.318273544311523, 
547, 2496085433, 0.91101575, -0.26528335, -0.2947226, 0.11319841, 5.1088056564331055, -3.6447880268096924, 7.903099060058594, 65.9947280883789, 10.91999340057373, -19.16932487487793, 
548, 2496102100, 0.91282874, -0.2597125, -0.29394728, 0.11352682, 4.895168781280518, -3.950521945953369, 8.154763221740723, 41.88128662109375, 3.6476566791534424, -9.919100761413574, 
549, 2496118767, 0.91414243, -0.25518486, -0.29363823, 0.114022635, 4.919896602630615, -4.377000331878662, 7.804821014404297, 34.411224365234375, 0.2175680547952652, -7.190099239349365, 
550, 2496135434, 0.91498286, -0.2519103, -0.2936706, 0.11447875, 4.853597164154053, -4.581168174743652, 7.66959285736084, 25.353254318237305, -1.8357371091842651, -5.1312031745910645, 
551, 2496152101, 0.9151839, -0.25037128, -0.29417568, 0.114950836, 5.052656173706055, -4.274846076965332, 7.627912521362305, 12.985736846923828, -4.767020225524902, -1.8356825113296509, 
552, 2496168768, 0.9151963, -0.24942915, -0.29484177, 0.11519239, 4.853404998779297, -4.591461181640625, 7.497217178344727, 8.308095932006836, -5.298353672027588, -2.1981658935546875, 
553, 2496185435, 0.9149308, -0.24945325, -0.29568595, 0.115085535, 4.8659138679504395, -4.613207817077637, 7.473121643066406, 0.9042692184448242, -5.624145984649658, -2.510255813598633, 
554, 2496202102, 0.914511, -0.24985833, -0.29672033, 0.11488109, 5.031451225280762, -4.996647834777832, 7.114053249359131, -2.109328031539917, -6.671297073364258, -2.5489187240600586, 
555, 2496218769, 0.9144089, -0.24975939, -0.2972023, 0.114663854, 5.1297407150268555, -5.173492908477783, 6.883978366851807, 2.0174612998962402, -2.9274230003356934, -2.9565188884735107, 
556, 2496235436, 0.91508484, -0.24822865, -0.29657578, 0.11421577, 4.9393630027771, -6.051496505737305, 6.4104790687561035, 12.756797790527344, 4.900045871734619, -6.043237686157227, 
557, 2496252103, 0.91657573, -0.24501754, -0.29496294, 0.113369904, 5.175511360168457, -5.541326999664307, 6.53444242477417, 24.685121536254883, 12.13338851928711, -10.935907363891602, 
558, 2496268770, 0.91843, -0.24098787, -0.2927939, 0.112618454, 5.0417656898498535, -5.145450592041016, 6.844842433929443, 31.082326889038086, 15.585542678833008, -11.351507186889648, 
559, 2496285437, 0.9203724, -0.23655051, -0.29054207, 0.11199976, 4.9156813621521, -4.364058494567871, 7.3594183921813965, 34.132781982421875, 15.754007339477539, -11.267182350158691, 
560, 2496302104, 0.9217895, -0.23307696, -0.28891775, 0.111830235, 4.738012313842773, -3.3904237747192383, 8.11553955078125, 27.589460372924805, 10.745779037475586, -7.111472129821777, 
561, 2496318771, 0.9225337, -0.2311399, -0.2880534, 0.11194372, 4.60943078994751, -3.755441427230835, 8.282833099365234, 16.744409561157227, 5.310235023498535, -2.952167510986328, 
562, 2496335438, 0.9225928, -0.23083243, -0.2879922, 0.11224768, 4.706971168518066, -3.4595606327056885, 8.317706108093262, 5.073825359344482, -0.19870975613594055, 0.7434086799621582, 
563, 2496352105, 0.9220685, -0.23244049, -0.28823045, 0.112626135, 4.8416266441345215, -3.5816709995269775, 8.008719444274902, -8.091368675231934, -1.9051436185836792, 4.998665809631348, 
564, 2496368772, 0.9210263, -0.23580411, -0.2885712, 0.11328828, 4.911860942840576, -4.18025016784668, 7.716249465942383, -19.57033348083496, -2.685336112976074, 10.527695655822754, 
565, 2496385439, 0.9199113, -0.23949796, -0.2888059, 0.11399691, 4.794204235076904, -4.930293560028076, 7.3144636154174805, -21.606258392333984, -1.9835219383239746, 11.712584495544434, 
566, 2496402106, 0.9189725, -0.24266185, -0.28887403, 0.1147034, 4.805567264556885, -5.227503776550293, 7.173923015594482, -17.83866310119629, -0.9962266683578491, 10.784858703613281, 
567, 2496418773, 0.9183814, -0.2447276, -0.28882575, 0.11517013, 4.738042831420898, -5.485229969024658, 7.107901573181152, -10.702214241027832, -0.03699116036295891, 7.010481357574463, 
568, 2496435440, 0.9178955, -0.2463361, -0.2888653, 0.115514606, 4.832045555114746, -4.980198860168457, 7.314079761505127, -7.94807767868042, -0.5409467816352844, 5.097799301147461, 
569, 2496452107, 0.91739655, -0.24796475, -0.28889444, 0.11591973, 4.886099338531494, -4.67582368850708, 7.402933120727539, -7.969171047210693, -0.5895726084709167, 5.549711227416992, 
570, 2496468774, 0.9168312, -0.2499937, -0.28879443, 0.11628261, 4.899981498718262, -4.773243427276611, 7.309609413146973, -10.58945369720459, 0.4789576828479767, 6.359175205230713, 
571, 2496485441, 0.91623014, -0.25202164, -0.28873512, 0.11678877, 4.818890571594238, -4.853193283081055, 7.290883541107178, -10.394875526428223, -0.09787257760763168, 7.223809719085693, 
572, 2496502108, 0.91553056, -0.25415108, -0.28878683, 0.11753065, 4.763199329376221, -4.799252986907959, 7.382781505584717, -10.826732635498047, -1.3243887424468994, 8.80040168762207, 
573, 2496518775, 0.91464126, -0.25655934, -0.28906897, 0.118523896, 4.7376532554626465, -4.8626604080200195, 7.376987934112549, -12.601838111877441, -3.370525598526001, 10.693235397338867, 
574, 2496535442, 0.91369265, -0.2589571, -0.2894954, 0.11958147, 4.634377956390381, -5.190005302429199, 7.2553181648254395, -12.630664825439453, -4.522649765014648, 10.87643051147461, 
575, 2496552109, 0.91270715, -0.2616306, -0.28982264, 0.12049148, 4.776340484619141, -5.044122695922852, 7.290233135223389, -14.642675399780273, -3.4881272315979004, 10.708413124084473, 
576, 2496568776, 0.91169506, -0.26429117, -0.29025406, 0.12130604, 4.5593156814575195, -5.492798328399658, 7.155915260314941, -14.884764671325684, -4.039927005767822, 9.923317909240723, 
577, 2496585443, 0.9106193, -0.26683736, -0.29099002, 0.12204728, 4.685513019561768, -5.280305862426758, 7.134040832519531, -14.683887481689453, -6.0413713455200195, 8.735748291015625, 
578, 2496602110, 0.90948164, -0.26942775, -0.29186064, 0.12275794, 4.6908159255981445, -5.339546203613281, 7.149186134338379, -15.247610092163086, -6.920680522918701, 8.441572189331055, 
579, 2496618777, 0.9082943, -0.27271163, -0.29231077, 0.123224445, 4.8334550857543945, -5.0173163414001465, 7.374214172363281, -19.811309814453125, -3.3577346801757812, 9.129354476928711, 
580, 2496635444, 0.90676486, -0.27716735, -0.2926368, 0.12377268, 5.016436576843262, -4.649113178253174, 7.506219387054443, -27.504541397094727, -2.4405908584594727, 12.526705741882324, 
581, 2496652111, 0.90473884, -0.2833413, -0.29272616, 0.12440682, 4.758565902709961, -5.476400852203369, 7.051268100738525, -38.7933464050293, -0.6751229763031006, 17.405258178710938, 
582, 2496668778, 0.90263826, -0.29012126, -0.29248565, 0.12460522, 4.2038445472717285, -6.049798488616943, 6.877421855926514, -43.303714752197266, 2.5864410400390625, 16.625545501708984, 
583, 2496685445, 0.9004794, -0.29660645, -0.29242918, 0.12508723, 5.227353572845459, -5.289089202880859, 7.032052040100098, -41.17936325073242, 0.4989645779132843, 17.47433853149414, 
584, 2496702112, 0.8980674, -0.30399927, -0.29205334, 0.12555653, 4.847000598907471, -5.891121864318848, 6.69027853012085, -47.06861877441406, 2.766799211502075, 20.099227905273438, 
585, 2496718779, 0.89552534, -0.311964, -0.29132774, 0.12586293, 4.551776885986328, -6.089333534240723, 6.840570449829102, -50.89868927001953, 5.49080753326416, 21.089468002319336, 
586, 2496735446, 0.89263564, -0.32048815, -0.29101634, 0.12569395, 4.413547515869141, -6.038476467132568, 7.118631839752197, -56.401268005371094, 3.738361120223999, 18.698694229125977, 
587, 2496752113, 0.8890268, -0.33033878, -0.2914474, 0.124764875, 4.188124656677246, -6.080957889556885, 7.263246536254883, -68.29219055175781, 0.546725332736969, 15.67998218536377, 
588, 2496768780, 0.884286, -0.34233823, -0.29282632, 0.122866206, 4.898323059082031, -5.9907145500183105, 7.335019111633301, -86.76074981689453, -3.4908175468444824, 12.882640838623047, 
589, 2496785447, 0.87912637, -0.35549718, -0.29426107, 0.11903582, 4.102294921875, -6.298297882080078, 6.9876275062561035, -98.73915100097656, 0.8303923010826111, 3.703493356704712, 
590, 2496802114, 0.8742363, -0.37095317, -0.2936191, 0.10905396, 4.841000556945801, -6.099158763885498, 7.164771556854248, -122.72008514404297, 30.813377380371094, -23.972190856933594, 
591, 2496818781, 0.87074614, -0.3871584, -0.2888819, 0.09196314, 3.7936599254608154, -8.34483814239502, 5.173764705657959, -134.95579528808594, 76.91699981689453, -55.79072189331055, 
592, 2496835448, 0.86896235, -0.40166625, -0.2806075, 0.06948496, 4.428689479827881, -9.397595405578613, 3.988029718399048, -128.7256622314453, 114.73822021484375, -83.10572814941406, 
593, 2496852115, 0.8690401, -0.4134301, -0.2684192, 0.04238475, 5.23783540725708, -9.325687408447266, 4.141308307647705, -114.24384307861328, 153.17323303222656, -106.13006591796875, 
594, 2496868782, 0.8710772, -0.42098993, -0.2527587, 0.0102622835, 6.766548156738281, -8.744925498962402, 4.641001224517822, -91.822998046875, 190.60401916503906, -134.63357543945312, 
595, 2496885449, 0.8737406, -0.4262571, -0.23252657, -0.02852865, 7.534776210784912, -5.865264415740967, 5.138161659240723, -87.57039642333984, 238.2470245361328, -165.40167236328125, 
596, 2496902116, 0.87482095, -0.43003368, -0.2110586, -0.07220901, 6.237328052520752, -5.433339595794678, 4.170860290527344, -91.35575103759766, 257.78033447265625, -193.86572265625, 
597, 2496918783, 0.874529, -0.42950016, -0.19246645, -0.11698575, 5.291503429412842, -7.688210964202881, 3.992352247238159, -69.6710205078125, 243.86053466796875, -215.91339111328125, 
598, 2496935450, 0.87189627, -0.42719698, -0.17748807, -0.16061705, 4.227810382843018, -4.194022178649902, 4.722655296325684, -61.5257568359375, 217.0526123046875, -223.9441680908203, 
599, 2496952117, 0.86654997, -0.42547038, -0.16516127, -0.20196052, 4.878437519073486, -6.371300220489502, 5.369585037231445, -67.25101470947266, 190.44544982910156, -220.30911254882812, 
600, 2496968784, 0.85994476, -0.4233558, -0.15281765, -0.24064869, 4.750756740570068, -5.695248603820801, 5.795256614685059, -65.63775634765625, 181.85910034179688, -206.6384735107422, 
601, 2496985451, 0.85151464, -0.42185086, -0.1415686, -0.27735052, 3.672258138656616, -5.268003463745117, 5.910567760467529, -70.66358947753906, 166.6455078125, -200.46786499023438, 
602, 2497002118, 0.84195614, -0.4195753, -0.13184363, -0.3125443, 4.107687473297119, -5.837078094482422, 6.3566765785217285, -65.05182647705078, 153.676513671875, -198.97412109375, 
603, 2497018785, 0.8317329, -0.4153493, -0.12259042, -0.34738624, 4.61838960647583, -5.389881134033203, 6.859218597412109, -54.34242248535156, 153.48654174804688, -201.51332092285156, 
604, 2497035452, 0.8201041, -0.40997416, -0.11317521, -0.38280818, 4.193423748016357, -4.713845252990723, 6.969947814941406, -52.66001510620117, 157.60162353515625, -208.7130889892578, 
605, 2497052119, 0.8067115, -0.4030939, -0.10450232, -0.41929898, 4.356241703033447, -5.3247151374816895, 6.892209529876709, -48.02110290527344, 158.98341369628906, -222.66697692871094, 
606, 2497068786, 0.7914925, -0.39474627, -0.096515335, -0.4565084, 4.492839336395264, -5.570148468017578, 6.601256370544434, -43.47023391723633, 160.05792236328125, -234.89895629882812, 
607, 2497085453, 0.77418995, -0.38521802, -0.08952379, -0.494189, 4.8911004066467285, -5.647371292114258, 6.558427810668945, -39.8668327331543, 158.2164764404297, -247.51515197753906, 
608, 2497102120, 0.7546401, -0.37463856, -0.08289044, -0.5322535, 5.734960556030273, -5.8300461769104, 6.940939426422119, -39.21634292602539, 159.49417114257812, -258.81866455078125, 
609, 2497118787, 0.7325746, -0.36511222, -0.07485792, -0.5695824, 5.360881328582764, -4.894745349884033, 6.756200790405273, -55.836402893066406, 159.55751037597656, -260.0277099609375, 
610, 2497135454, 0.70872945, -0.35723585, -0.06704884, -0.6046401, 5.263952255249023, -5.611905097961426, 6.287867069244385, -66.54302215576172, 145.33070373535156, -255.28176879882812, 
611, 2497152121, 0.68406254, -0.34996492, -0.059667934, -0.6371993, 6.089409828186035, -5.499621868133545, 6.3934478759765625, -68.53678131103516, 134.1957550048828, -247.31192016601562, 
612, 2497168788, 0.658672, -0.3440893, -0.052155178, -0.6671087, 5.511695384979248, -4.777968883514404, 6.459590435028076, -76.28817749023438, 122.02511596679688, -237.14007568359375, 
613, 2497185455, 0.63292545, -0.33906868, -0.04507529, -0.6945547, 5.987420082092285, -5.022304534912109, 6.650221824645996, -78.09349060058594, 110.18179321289062, -228.3451690673828, 
614, 2497202122, 0.6064665, -0.3345527, -0.037646852, -0.7203165, 5.218545436859131, -3.988668203353882, 7.072450160980225, -83.05290985107422, 105.14690399169922, -223.46287536621094, 
615, 2497218789, 0.57932234, -0.33148617, -0.02988007, -0.74404985, 4.8598127365112305, -3.9464361667633057, 7.199188709259033, -91.78982543945312, 94.53191375732422, -217.2555389404297, 
616, 2497235456, 0.552218, -0.32841435, -0.022112451, -0.76597035, 4.8559184074401855, -3.867870569229126, 7.527557373046875, -91.27249145507812, 90.43498229980469, -209.83651733398438, 
617, 2497252123, 0.52572113, -0.32569885, -0.014229822, -0.78570694, 4.052868843078613, -3.6591899394989014, 7.227057456970215, -91.49185180664062, 84.15336608886719, -198.03692626953125, 
618, 2497268790, 0.49991977, -0.32342404, -0.0070760716, -0.803385, 4.327826023101807, -4.055576324462891, 7.20512580871582, -87.34999084472656, 74.58857727050781, -188.4311981201172, 
619, 2497285457, 0.47525096, -0.3218865, -3.7742087E-5, -0.8188566, 3.53070068359375, -3.9334750175476074, 7.0519232749938965, -86.57937622070312, 65.26548767089844, -174.81434631347656, 
620, 2497302124, 0.4525058, -0.32225475, 0.0063855113, -0.83147454, 2.793907403945923, -3.6520442962646484, 7.187280178070068, -85.04436492919922, 46.201271057128906, -156.0214385986328, 
621, 2497318791, 0.43294615, -0.32493922, 0.014022715, -0.8406996, 2.426929235458374, -2.9892537593841553, 7.567654132843018, -92.24381256103516, 29.06415557861328, -124.66780853271484, 
622, 2497335458, 0.4181921, -0.33038634, 0.024415772, -0.8457921, 1.5570061206817627, -3.096637010574341, 7.43021297454834, -106.03695678710938, 11.584054946899414, -78.70504760742188, 
623, 2497352125, 0.4098797, -0.3391881, 0.039307978, -0.8458163, 0.8261816501617432, -2.4874424934387207, 7.385506629943848, -128.04949951171875, -7.611020088195801, -17.028444290161133, 
624, 2497368792, 0.40775177, -0.34760296, 0.059701215, -0.8422271, 6.15224552154541, -5.627284049987793, 10.602152824401855, -145.51217651367188, 0.007799697574228048, 42.03013229370117, 
625, 2497385459, 0.40986025, -0.34088406, 0.066559836, -0.84343505, 10.246649742126465, 0.4559890329837799, 9.02680778503418, -12.604403495788574, 59.40980529785156, 26.966184616088867, 
626, 2497402126, 0.4113003, -0.34106472, 0.07737906, -0.8417361, 15.829849243164062, 3.994235038757324, 10.313156127929688, -57.98942565917969, 24.110828399658203, 37.40401840209961, 
627, 2497418793, 0.4160859, -0.34164464, 0.08414807, -0.8384931, 0.014416081830859184, -13.338884353637695, 8.02922534942627, -28.792646408081055, 5.067457675933838, 51.42231369018555, 
628, 2497435460, 0.4167081, -0.34162, 0.0839757, -0.8382115, 3.247246265411377, -9.142436981201172, 7.71401834487915, 5.002269268035889, -2.0249783992767334, 2.9941823482513428, 
629, 2497452127, 0.416393, -0.34180617, 0.08332437, -0.8383572, 5.013656139373779, -2.8182618618011475, 8.301422119140625, 5.263570308685303, -3.1014292240142822, -4.8749680519104, 
630, 2497468794, 0.41662544, -0.34206766, 0.08448917, -0.8380183, 5.990310192108154, -2.9491775035858154, 7.56804895401001, -4.434462070465088, 0.21549248695373535, 3.8930673599243164, 
631, 2497485461, 0.41713634, -0.3418398, 0.08757077, -0.8375406, 5.372250080108643, -3.170987129211426, 8.083597183227539, -13.523144721984863, 8.05405044555664, 10.687450408935547, 
632, 2497502128, 0.41790137, -0.34250712, 0.09241811, -0.83636504, 5.167794227600098, -3.1520838737487793, 8.269569396972656, -26.10149574279785, 6.1765313148498535, 17.761274337768555, 
633, 2497518795, 0.41897845, -0.34428248, 0.09815593, -0.8344414, 4.8914475440979, -3.8512256145477295, 7.905942916870117, -34.17039108276367, 0.4091717302799225, 23.094552993774414, 
634, 2497535462, 0.41993362, -0.3459685, 0.10317991, -0.83265585, 4.264597415924072, -6.1202287673950195, 7.036915302276611, -30.025907516479492, -0.7220893502235413, 20.363475799560547, 
635, 2497552129, 0.42017606, -0.34679395, 0.10625904, -0.8318025, 4.3842997550964355, -5.706562042236328, 7.1199750900268555, -17.423641204833984, 1.3030672073364258, 9.572856903076172, 
636, 2497568796, 0.41999608, -0.3468772, 0.1077029, -0.8316728, 4.432036876678467, -5.599045753479004, 7.037322998046875, -6.392289638519287, 2.8520703315734863, 1.7123051881790161, 
637, 2497585463, 0.42018217, -0.34661165, 0.10800199, -0.83165085, 4.810701370239258, -4.721257209777832, 7.558079242706299, 2.125258684158325, 1.5220539569854736, 1.0236436128616333, 
638, 2497602130, 0.42084342, -0.34696883, 0.10932644, -0.8309944, 4.885380268096924, -3.7742228507995605, 8.060440063476562, -4.878042697906494, -0.9404600858688354, 7.555447578430176, 
639, 2497618797, 0.42152363, -0.3482005, 0.112002715, -0.829777, 4.639723777770996, -4.18292760848999, 8.045282363891602, -15.526799201965332, -3.373222827911377, 11.853412628173828, 
640, 2497635464, 0.42200142, -0.3499642, 0.11570446, -0.8282829, 4.700675964355469, -4.8000569343566895, 7.602370262145996, -23.63072967529297, -3.9436299800872803, 13.543646812438965, 
641, 2497652131, 0.42229992, -0.3516403, 0.11921708, -0.82692164, 4.37031888961792, -5.497031211853027, 7.253788948059082, -22.630176544189453, -3.5315639972686768, 11.74920654296875, 
642, 2497668798, 0.42246908, -0.35313383, 0.12246529, -0.8257233, 4.634207248687744, -4.8742146492004395, 7.294391632080078, -20.770618438720703, -2.764256000518799, 10.048579216003418, 
643, 2497685465, 0.4224848, -0.35428473, 0.12522578, -0.8248075, 4.24896240234375, -5.886977672576904, 6.976738452911377, -17.14523696899414, -1.4201360940933228, 7.459585189819336, 
644, 2497702132, 0.42260137, -0.35522154, 0.12731875, -0.82402414, 4.80381441116333, -4.67356538772583, 7.434784412384033, -12.367011070251465, -1.9154216051101685, 6.204418182373047, 
