sep=,
DeviceTag:,R Lower Leg - 3,,,,,,,,,,,,,,,,,
FirmwareVersion:,3.0.0,,,,,,,,,,,,,,,,,
AppVersion:,2023.6.1,,,,,,,,,,,,,,,,,
StartTime:,2024-05-23 11:49:42.000 +0200,,,,,,,,,,,,,,,,,
 2024,,,,,,,,,,,,,,,,,,,

PacketCounter,SampleTimeFine,Quat_W,Quat_X,Quat_Y,Quat_Z,Acc_X,Acc_Y,Acc_Z,Gyr_X,Gyr_Y,Gyr_Z,
0, 2491516494, 0.49650663, 0.33476233, -0.7194035, 0.3519572, 0.0, 0.0, 0.0, 0.0, 0.0, 0.0, 
1, 2491533161, 0.49679548, 0.33475477, -0.7189392, 0.35250562, 9.581818580627441, -1.7170912027359009, -2.554365634918213, 5.156061172485352, 0.4185819923877716, -0.19570665061473846, 
2, 2491549828, 0.49735877, 0.33472583, -0.7184411, 0.35275424, 9.589516639709473, -1.6555595397949219, -2.5702381134033203, 4.554444313049316, 0.5140789151191711, 0.00804879143834114, 
3, 2491566495, 0.49801055, 0.33495963, -0.7179804, 0.3525504, 9.529541969299316, -1.653768539428711, -2.6187546253204346, 3.7970895767211914, 0.6674350500106812, 0.08363188058137894, 
4, 2491583162, 0.49836236, 0.3351227, -0.71787745, 0.35210782, 9.58576488494873, -1.562488317489624, -2.610548496246338, 3.1257288455963135, 0.7535576224327087, 0.3486592471599579, 
5, 2491599829, 0.49869543, 0.33551973, -0.7177505, 0.35151654, 9.590686798095703, -1.6100308895111084, -2.5657742023468018, 1.4094347953796387, 0.6514269709587097, 0.4820758104324341, 
6, 2491616496, 0.49903956, 0.33578607, -0.7175901, 0.3511009, 9.519638061523438, -1.7990854978561401, -2.543790578842163, 1.1643468141555786, 0.8842591643333435, 0.5005682110786438, 
7, 2491633163, 0.49925825, 0.33559585, -0.7175805, 0.35099134, 9.54187297821045, -1.7851742506027222, -2.4806315898895264, 2.287271738052368, 0.8125565052032471, 0.4138692021369934, 
8, 2491649830, 0.49927, 0.3356194, -0.71737254, 0.3513772, 9.522018432617188, -1.7106925249099731, -2.4109222888946533, 3.741394519805908, 0.7042787671089172, 0.24417227506637573, 
9, 2491666497, 0.49930704, 0.33557802, -0.7171601, 0.3517974, 9.60906982421875, -1.5786621570587158, -2.324915885925293, 3.379704475402832, 0.3287069797515869, 0.5000430941581726, 
10, 2491683164, 0.49951982, 0.33543107, -0.71696436, 0.3520343, 9.595333099365234, -1.6320641040802002, -2.464427947998047, 1.6696213483810425, 0.035275090485811234, 0.8593508005142212, 
11, 2491699831, 0.49973252, 0.33528438, -0.71678174, 0.3522439, 9.54305648803711, -1.7596429586410522, -2.6394171714782715, 2.0991721153259277, 0.13831499218940735, 0.840218186378479, 
12, 2491716498, 0.49969786, 0.335357, -0.71658534, 0.35262334, 9.54814624786377, -1.7170689105987549, -2.5679452419281006, 3.1860342025756836, 0.060260284692049026, 0.7548255324363708, 
13, 2491733165, 0.49961236, 0.3355142, -0.71639174, 0.3529882, 9.588922500610352, -1.7341140508651733, -2.4708070755004883, 2.9609498977661133, 0.08352941274642944, 0.43972522020339966, 
14, 2491749832, 0.4994922, 0.33561403, -0.7162484, 0.3533541, 9.555469512939453, -1.7087595462799072, -2.3619017601013184, 3.538451910018921, -0.3000015616416931, 0.5972304940223694, 
15, 2491766499, 0.4994732, 0.33544803, -0.71623117, 0.35357362, 9.584118843078613, -1.6494559049606323, -2.321152925491333, 3.3978893756866455, -0.5516719818115234, 0.8860008716583252, 
16, 2491783166, 0.49919176, 0.33576268, -0.7160206, 0.35409862, 9.578609466552734, -1.6682003736495972, -2.4233014583587646, 2.6366546154022217, -0.9974225759506226, 1.2137924432754517, 
17, 2491799833, 0.49902034, 0.33578727, -0.7159529, 0.35445362, 9.556032180786133, -1.7546418905258179, -2.480175018310547, 2.3708715438842773, -0.9722325205802917, 1.6207398176193237, 
18, 2491816500, 0.4987943, 0.33581373, -0.7159029, 0.35484752, 9.569206237792969, -1.7695218324661255, -2.5519566535949707, 2.4116854667663574, -1.019078016281128, 1.8794021606445312, 
19, 2491833167, 0.49853727, 0.33580306, -0.7158825, 0.35525942, 9.572089195251465, -1.7517684698104858, -2.571324110031128, 2.770685911178589, -0.9840527772903442, 2.081627130508423, 
20, 2491849834, 0.49829093, 0.33579332, -0.7158586, 0.3556621, 9.544608116149902, -1.788569688796997, -2.598332643508911, 2.462218999862671, -0.6944113969802856, 2.0565524101257324, 
21, 2491866501, 0.4980334, 0.3358099, -0.71582013, 0.35608438, 9.508299827575684, -1.8129119873046875, -2.634925603866577, 2.74208927154541, -0.5283514857292175, 1.9212404489517212, 
22, 2491883168, 0.49774647, 0.33580297, -0.7157751, 0.35658237, 9.516477584838867, -1.7389370203018188, -2.570295810699463, 3.3255343437194824, -0.2526565194129944, 2.2297585010528564, 
23, 2491899835, 0.49740487, 0.3358042, -0.7157815, 0.35704464, 9.610793113708496, -1.6314290761947632, -2.412393093109131, 2.279728651046753, -0.5425025820732117, 2.5896167755126953, 
24, 2491916502, 0.49721792, 0.33550417, -0.71595526, 0.357239, 9.628268241882324, -1.6528196334838867, -2.3681094646453857, -0.042926888912916183, -0.47375816106796265, 3.1021785736083984, 
25, 2491933169, 0.49723017, 0.3349424, -0.71624196, 0.35717413, 9.583940505981445, -1.4855483770370483, -2.325779438018799, -2.8951315879821777, 0.04011588916182518, 3.365604877471924, 
26, 2491949836, 0.4976995, 0.333751, -0.71684384, 0.35642734, 9.579608917236328, -1.6395858526229858, -2.5016448497772217, -8.868041038513184, 0.8222383260726929, 3.5965044498443604, 
27, 2491966503, 0.49817997, 0.33266607, -0.71734047, 0.35577068, 9.542431831359863, -1.9028191566467285, -2.85783052444458, -9.080638885498047, 1.455077052116394, 3.505899429321289, 
28, 2491983170, 0.49885845, 0.33117786, -0.718032, 0.3548123, 9.71402645111084, -1.646849274635315, -2.952239990234375, -12.259424209594727, 2.213297128677368, 4.133520603179932, 
29, 2491999837, 0.49982947, 0.32923007, -0.71901834, 0.35325757, 9.639657020568848, -1.6040985584259033, -3.070359706878662, -18.495529174804688, 2.727839231491089, 4.48652458190918, 
30, 2492016504, 0.50098723, 0.3271203, -0.7200673, 0.35143593, 9.453836441040039, -1.9377610683441162, -3.1042537689208984, -21.56879425048828, 3.6325523853302, 4.3151960372924805, 
31, 2492033171, 0.5021796, 0.32511675, -0.72095466, 0.3497702, 9.435552597045898, -2.0453786849975586, -2.8821792602539062, -19.6429443359375, 4.636641502380371, 3.623030662536621, 
32, 2492049838, 0.5032119, 0.32347262, -0.7216076, 0.34846216, 9.528118133544922, -1.9735198020935059, -2.637359857559204, -16.251224517822266, 4.79974889755249, 2.9050469398498535, 
33, 2492066505, 0.50423187, 0.3218194, -0.7222389, 0.3472084, 9.524580001831055, -1.8602089881896973, -2.4753777980804443, -15.184081077575684, 4.78364372253418, 2.809760570526123, 
34, 2492083172, 0.50538677, 0.3199089, -0.7229703, 0.34576973, 9.520920753479004, -1.7410459518432617, -2.4347646236419678, -15.739339828491211, 4.877616882324219, 2.823591709136963, 
35, 2492099839, 0.5063417, 0.31827596, -0.72361106, 0.34453663, 9.52762508392334, -1.8074945211410522, -2.4019155502319336, -15.333158493041992, 4.309321403503418, 3.0287747383117676, 
36, 2492116506, 0.5072716, 0.31663704, -0.72425383, 0.3433264, 9.464091300964355, -1.9171764850616455, -2.3475136756896973, -13.503704071044922, 3.8304011821746826, 2.734727621078491, 
37, 2492133173, 0.5078126, 0.31569344, -0.7246055, 0.34265274, 9.533114433288574, -1.9857234954833984, -2.4192192554473877, -10.592226028442383, 3.02345871925354, 2.3346304893493652, 
38, 2492149840, 0.5083159, 0.3148312, -0.7248751, 0.34212923, 9.61042308807373, -1.8756345510482788, -2.4212639331817627, -7.6769208908081055, 2.888453483581543, 1.860602855682373, 
39, 2492166507, 0.5086991, 0.31416225, -0.7250685, 0.34176457, 9.561441421508789, -1.8726792335510254, -2.450167417526245, -5.951329231262207, 2.4153482913970947, 1.5890568494796753, 
40, 2492183174, 0.50899184, 0.31365612, -0.7251735, 0.34157068, 9.506821632385254, -1.8780150413513184, -2.486809253692627, -4.194463729858398, 2.2307186126708984, 1.3898539543151855, 
41, 2492199841, 0.5092129, 0.31320876, -0.7252499, 0.34148964, 9.507160186767578, -1.8126349449157715, -2.480527639389038, -2.9957900047302246, 2.0191197395324707, 1.5164192914962769, 
42, 2492216508, 0.5094137, 0.31274158, -0.7253682, 0.34136754, 9.569439888000488, -1.681296467781067, -2.4256293773651123, -3.8973701000213623, 1.8188925981521606, 1.757473349571228, 
43, 2492233175, 0.50957894, 0.31224632, -0.72554296, 0.34120247, 9.561923027038574, -1.881812334060669, -2.388369560241699, -3.770369052886963, 1.2917574644088745, 1.861178994178772, 
44, 2492249842, 0.5096152, 0.31205586, -0.7255691, 0.34126717, 9.526411056518555, -2.035857677459717, -2.4559545516967773, -1.2260286808013916, 0.9599446654319763, 1.1844656467437744, 
45, 2492266509, 0.5095959, 0.31197673, -0.7254777, 0.34156218, 9.513567924499512, -1.967973232269287, -2.456035852432251, 2.2827508449554443, 1.0169585943222046, 0.8464676737785339, 
46, 2492283176, 0.5095239, 0.31206316, -0.7252936, 0.34198186, 9.595423698425293, -1.7681190967559814, -2.435492992401123, 2.8220396041870117, 1.1274775266647339, 0.6051321029663086, 
47, 2492299843, 0.5093792, 0.31224644, -0.72511065, 0.34241745, 9.574423789978027, -1.7550013065338135, -2.4478402137756348, 1.659709095954895, 0.8723363876342773, 0.8233264684677124, 
48, 2492316510, 0.50934553, 0.3123001, -0.72496724, 0.34272197, 9.55319595336914, -1.8931903839111328, -2.5634758472442627, 1.4233040809631348, 1.0752147436141968, 0.5463253259658813, 
49, 2492333177, 0.5093013, 0.31243703, -0.7247438, 0.34313536, 9.570503234863281, -1.8385378122329712, -2.5929794311523438, 2.822641372680664, 1.2857383489608765, 0.2639452815055847, 
50, 2492349844, 0.5092467, 0.31258434, -0.7245145, 0.34356642, 9.594950675964355, -1.7768733501434326, -2.5376338958740234, 3.089672565460205, 1.2686481475830078, 0.2634522318840027, 
51, 2492366511, 0.5092136, 0.3127391, -0.7242781, 0.3439728, 9.522053718566895, -1.8198692798614502, -2.453605890274048, 2.5688962936401367, 1.4097037315368652, 0.19249865412712097, 
52, 2492383178, 0.50925934, 0.31271842, -0.7241293, 0.34423655, 9.530364036560059, -1.8150851726531982, -2.391256093978882, 2.2546024322509766, 1.3376294374465942, 0.21890532970428467, 
53, 2492399845, 0.5092436, 0.3127812, -0.72396296, 0.34455252, 9.573556900024414, -1.7756094932556152, -2.348820209503174, 2.012876510620117, 1.173612356185913, 0.3518288731575012, 
54, 2492416512, 0.5091346, 0.31302422, -0.7237628, 0.34491342, 9.59638786315918, -1.7385424375534058, -2.3146753311157227, 1.0504215955734253, 0.8702491521835327, 0.3103298842906952, 
55, 2492433179, 0.5090929, 0.31304714, -0.72369814, 0.34508982, 9.582880020141602, -1.7475459575653076, -2.3149139881134033, 0.851020336151123, 0.45872339606285095, 0.4118778109550476, 
56, 2492449846, 0.50900936, 0.31306612, -0.72367555, 0.34524322, 9.557587623596191, -1.7891868352890015, -2.344092845916748, 0.901086688041687, 0.0023627716582268476, 0.5126190185546875, 
57, 2492466513, 0.50884914, 0.31320035, -0.7236177, 0.3454789, 9.574922561645508, -1.8618886470794678, -2.354898452758789, 1.444940447807312, -0.2709183394908905, 0.47333547472953796, 
58, 2492483180, 0.5087123, 0.31328118, -0.72356665, 0.34571382, 9.545321464538574, -1.8645880222320557, -2.411085367202759, 2.258636951446533, -0.2719044089317322, 0.420259565114975, 
59, 2492499847, 0.50854564, 0.31342852, -0.72348267, 0.34600112, 9.550375938415527, -1.7981477975845337, -2.4652113914489746, 2.4778940677642822, -0.2731594443321228, 0.37719184160232544, 
60, 2492516514, 0.50824016, 0.31378698, -0.72333634, 0.34643057, 9.559904098510742, -1.7646338939666748, -2.4629740715026855, 2.272864580154419, -0.5356384515762329, 0.5633192658424377, 
61, 2492533181, 0.508068, 0.31398508, -0.723233, 0.34671938, 9.584912300109863, -1.797126054763794, -2.4953720569610596, 1.8285033702850342, -0.16964572668075562, 0.35131657123565674, 
62, 2492549848, 0.5078401, 0.31432235, -0.72304815, 0.34713307, 9.552767753601074, -1.8530504703521729, -2.5295190811157227, 3.056933641433716, -0.18087689578533173, 0.11156253516674042, 
63, 2492566515, 0.5077066, 0.31448367, -0.72291917, 0.34745073, 9.59174919128418, -1.8411102294921875, -2.492163896560669, 3.9058287143707275, -0.11907346546649933, -0.03229761868715286, 
64, 2492583182, 0.5074687, 0.31485078, -0.72269654, 0.34792867, 9.558096885681152, -1.8165124654769897, -2.4179675579071045, 3.8252503871917725, -0.0587555356323719, 0.07433445751667023, 
65, 2492599849, 0.507244, 0.315138, -0.7225317, 0.34833834, 9.542259216308594, -1.850344181060791, -2.3020339012145996, 3.913409948348999, -0.3226175904273987, 0.11043557524681091, 
66, 2492616516, 0.5069071, 0.31559765, -0.72228444, 0.3489252, 9.545430183410645, -1.9431896209716797, -2.3164479732513428, 5.047028064727783, -0.4850020706653595, 0.1631464958190918, 
67, 2492633183, 0.5064627, 0.31620228, -0.7219375, 0.34973988, 9.515434265136719, -2.011120319366455, -2.237478017807007, 7.811906814575195, -0.6673902273178101, 0.10090765357017517, 
68, 2492649850, 0.505825, 0.3171021, -0.7214128, 0.35092875, 9.481258392333984, -2.1191537380218506, -2.2904536724090576, 12.216219902038574, -1.0584965944290161, -0.17157956957817078, 
69, 2492666517, 0.50483096, 0.3185761, -0.7205808, 0.3527298, 9.511345863342285, -2.0400121212005615, -2.295090436935425, 17.291519165039062, -1.5350861549377441, -0.3598332405090332, 
70, 2492683184, 0.5036559, 0.32022384, -0.7196437, 0.3548248, 9.552428245544434, -1.8630212545394897, -2.2241640090942383, 21.211902618408203, -2.096069812774658, -0.3137432634830475, 
71, 2492699851, 0.50226957, 0.32209378, -0.7186257, 0.3571528, 9.569504737854004, -1.6931180953979492, -2.234792470932007, 23.221956253051758, -2.7971298694610596, -0.11665325611829758, 
72, 2492716518, 0.5008036, 0.32391852, -0.7176771, 0.3594611, 9.582500457763672, -1.6330126523971558, -2.2568485736846924, 23.13753890991211, -3.4139106273651123, 0.37350431084632874, 
73, 2492733185, 0.49936032, 0.32555637, -0.7168984, 0.36153716, 9.60311222076416, -1.547484278678894, -2.3636763095855713, 20.90125846862793, -3.9566433429718018, 0.8467379808425903, 
74, 2492749852, 0.4980564, 0.3268845, -0.7163453, 0.36322993, 9.617430686950684, -1.6329362392425537, -2.439126968383789, 16.8554630279541, -4.0908894538879395, 1.3209376335144043, 
75, 2492766519, 0.49706596, 0.327817, -0.7160011, 0.36442295, 9.69397258758545, -1.805373191833496, -2.69942045211792, 12.500028610229492, -3.5302577018737793, 1.1075704097747803, 
76, 2492783186, 0.49632257, 0.3285253, -0.7156907, 0.36540654, 9.644607543945312, -1.7199087142944336, -2.8942227363586426, 10.233455657958984, -2.345682382583618, 0.9323154091835022, 
77, 2492799853, 0.49585795, 0.3288812, -0.7155422, 0.3660077, 9.598987579345703, -1.4983797073364258, -2.8911449909210205, 5.348995685577393, -1.293908953666687, 1.2479020357131958, 
78, 2492816520, 0.4957159, 0.32868043, -0.7157617, 0.36595097, 9.644316673278809, -1.5607128143310547, -2.801717758178711, -0.5774703025817871, -1.177883267402649, 1.5985653400421143, 
79, 2492833187, 0.4956796, 0.3284449, -0.71594036, 0.36586207, 9.517181396484375, -2.0205507278442383, -2.7995035648345947, -1.447219967842102, -0.36970648169517517, 1.4615567922592163, 
80, 2492849854, 0.49575755, 0.3280858, -0.71613014, 0.36570755, 9.461512565612793, -1.9184309244155884, -2.6401305198669434, -1.21536123752594, 0.08593060821294785, 1.2582240104675293, 
81, 2492866521, 0.4960237, 0.32754362, -0.71638113, 0.36534056, 9.608652114868164, -1.7513612508773804, -2.5524702072143555, -4.493626594543457, 1.021793246269226, 1.3663990497589111, 
82, 2492883188, 0.49648535, 0.32667908, -0.71681654, 0.36463296, 9.605121612548828, -1.881934642791748, -2.553722858428955, -7.895833492279053, 1.352555751800537, 1.667067050933838, 
83, 2492899855, 0.49696848, 0.32584432, -0.71720964, 0.36394826, 9.459840774536133, -2.0744876861572266, -2.5658113956451416, -8.277116775512695, 1.7247146368026733, 1.6214698553085327, 
84, 2492916522, 0.49745092, 0.3250763, -0.71752626, 0.36335117, 9.487567901611328, -1.9358819723129272, -2.5971007347106934, -7.759400844573975, 2.0955288410186768, 1.4928876161575317, 
85, 2492933189, 0.4980685, 0.32399565, -0.71801883, 0.3624964, 9.585616111755371, -1.6424723863601685, -2.5203092098236084, -9.993765830993652, 2.2026546001434326, 1.9974839687347412, 
86, 2492949856, 0.49873316, 0.32275194, -0.71865404, 0.36143175, 9.548138618469238, -1.9107959270477295, -2.4826858043670654, -12.441701889038086, 1.9712822437286377, 2.414433717727661, 
87, 2492966523, 0.49926165, 0.32179558, -0.7190834, 0.36070022, 9.517647743225098, -2.178879976272583, -2.5208678245544434, -9.056544303894043, 2.0459940433502197, 2.0340843200683594, 
88, 2492983190, 0.4995716, 0.32130775, -0.7191867, 0.36049992, 9.469006538391113, -2.0666868686676025, -2.426462173461914, -4.191294193267822, 2.238985300064087, 1.5076913833618164, 
89, 2492999857, 0.49982175, 0.32088315, -0.71925056, 0.36040398, 9.542305946350098, -1.7139204740524292, -2.361166000366211, -2.7047204971313477, 2.0398850440979004, 1.4724997282028198, 
90, 2493016524, 0.5001173, 0.32022658, -0.71952003, 0.36003977, 9.650589942932129, -1.7092663049697876, -2.3347835540771484, -4.905107498168945, 1.4202754497528076, 1.9231168031692505, 
91, 2493033191, 0.50034493, 0.3196322, -0.7197754, 0.35974148, 9.495925903320312, -2.0906713008880615, -2.388725519180298, -4.156531810760498, 1.1098880767822266, 1.9929499626159668, 
92, 2493049858, 0.5003497, 0.3194808, -0.71976167, 0.3598966, 9.482888221740723, -2.065715789794922, -2.450472593307495, -0.37343311309814453, 1.068177580833435, 1.5955814123153687, 
93, 2493066525, 0.50035894, 0.31927773, -0.7197758, 0.36003578, 9.54546070098877, -1.692931890487671, -2.424781560897827, -0.108725905418396, 0.9606170058250427, 1.6848417520523071, 
94, 2493083192, 0.5004785, 0.31872395, -0.72005254, 0.35980675, 9.604029655456543, -1.6457403898239136, -2.394592523574829, -3.7465107440948486, 0.6023402810096741, 2.409508466720581, 
95, 2493099859, 0.5006136, 0.31815475, -0.72035545, 0.35951588, 9.526954650878906, -2.067643880844116, -2.4947524070739746, -4.143815040588379, 0.4746866226196289, 2.3024091720581055, 
96, 2493116526, 0.50056744, 0.31802928, -0.72035015, 0.3597018, 9.494964599609375, -2.127948045730591, -2.557631015777588, 0.013510697521269321, 0.7795864939689636, 1.734709620475769, 
97, 2493133193, 0.50043577, 0.31806543, -0.7202455, 0.36006236, 9.60257339477539, -1.8624062538146973, -2.4562244415283203, 1.722383737564087, 0.7214649319648743, 1.5506762266159058, 
98, 2493149860, 0.50042546, 0.31781596, -0.72032136, 0.36014527, 9.57494068145752, -1.7765029668807983, -2.381521463394165, -0.7552289366722107, 0.6755350232124329, 1.9667096138000488, 
99, 2493166527, 0.50052047, 0.31734577, -0.7205218, 0.3600268, 9.579421997070312, -1.9797749519348145, -2.4172441959381104, -2.371486186981201, 0.7247369885444641, 2.22334885597229, 
100, 2493183194, 0.500567, 0.31701013, -0.72063226, 0.3600366, 9.46685791015625, -2.027055263519287, -2.451841354370117, -1.6164430379867554, 0.8825047612190247, 2.0920515060424805, 
101, 2493199861, 0.5006686, 0.3166123, -0.72079223, 0.35992542, 9.588052749633789, -1.8459261655807495, -2.4524900913238525, -2.4017536640167236, 0.8294352293014526, 1.8777885437011719, 
102, 2493216528, 0.50080603, 0.31615824, -0.72101045, 0.35969627, 9.592206954956055, -1.8344935178756714, -2.5232534408569336, -4.497231960296631, 0.9162431955337524, 2.0780608654022217, 
103, 2493233195, 0.5009608, 0.31570396, -0.72121215, 0.35947558, 9.493331909179688, -1.986946702003479, -2.5248000621795654, -3.938042402267456, 0.9708430171012878, 1.9159514904022217, 
104, 2493249862, 0.50109637, 0.31537107, -0.7213168, 0.35936856, 9.522557258605957, -2.0041773319244385, -2.5625882148742676, -2.6812844276428223, 1.167349934577942, 1.539912223815918, 
105, 2493266529, 0.5013017, 0.31489164, -0.72147197, 0.35919112, 9.603429794311523, -1.7720822095870972, -2.452322006225586, -3.1336755752563477, 1.4098705053329468, 1.7902063131332397, 
106, 2493283196, 0.50159454, 0.31416792, -0.7218171, 0.35872203, 9.53576374053955, -1.8349858522415161, -2.4050636291503906, -6.326394557952881, 1.219753623008728, 2.2752530574798584, 
107, 2493299863, 0.5018984, 0.31346384, -0.72214466, 0.35825366, 9.506689071655273, -2.1693577766418457, -2.496288776397705, -6.092750072479248, 1.252307653427124, 2.090816020965576, 
108, 2493316530, 0.50209415, 0.3130353, -0.7222789, 0.35808334, 9.511228561401367, -2.1451077461242676, -2.4476847648620605, -3.165883779525757, 1.394361972808838, 1.6397572755813599, 
109, 2493333197, 0.5023089, 0.31262732, -0.72238636, 0.3579219, 9.560323715209961, -1.8346483707427979, -2.386998414993286, -3.0424814224243164, 1.557277798652649, 1.4556208848953247, 
110, 2493349864, 0.50257885, 0.31210405, -0.72259444, 0.35757926, 9.563305854797363, -1.8496206998825073, -2.4143826961517334, -4.704624652862549, 1.3742624521255493, 1.4952056407928467, 
111, 2493366531, 0.50273526, 0.31180575, -0.72266793, 0.35747108, 9.539952278137207, -2.045607089996338, -2.530487060546875, -2.9468305110931396, 1.3945794105529785, 1.3792630434036255, 
112, 2493383198, 0.502867, 0.31156075, -0.7226585, 0.3575185, 9.498486518859863, -1.9454572200775146, -2.505432605743408, -0.6961339712142944, 1.5372869968414307, 1.274462342262268, 
113, 2493399865, 0.5029087, 0.31147122, -0.7226104, 0.35763523, 9.558740615844727, -1.8721764087677002, -2.5269362926483154, -0.786495566368103, 1.2724772691726685, 1.1982004642486572, 
114, 2493416532, 0.503015, 0.31122887, -0.7226405, 0.35763553, 9.582098960876465, -1.944753885269165, -2.5115902423858643, -1.3647022247314453, 1.2697495222091675, 1.359880805015564, 
115, 2493433199, 0.50314856, 0.3109773, -0.7226579, 0.35763142, 9.495190620422363, -2.0358171463012695, -2.441281318664551, -1.474196434020996, 1.4775327444076538, 1.3074642419815063, 
116, 2493449866, 0.5032804, 0.31079605, -0.72260994, 0.35770056, 9.504738807678223, -1.9653161764144897, -2.4492478370666504, -1.1395987272262573, 1.7765034437179565, 1.1803548336029053, 
117, 2493466533, 0.50348836, 0.31045786, -0.7226647, 0.35759088, 9.59999942779541, -1.7888251543045044, -2.417160987854004, -2.686579942703247, 1.7383850812911987, 1.3022648096084595, 
118, 2493483200, 0.50369906, 0.3100548, -0.7227878, 0.35739493, 9.570301055908203, -1.9396072626113892, -2.4050559997558594, -3.608419179916382, 1.5141267776489258, 1.5038048028945923, 
119, 2493499867, 0.50379986, 0.3098024, -0.7228462, 0.3573533, 9.499520301818848, -2.037595510482788, -2.3886585235595703, -2.003053903579712, 1.1686561107635498, 1.4461824893951416, 
120, 2493516534, 0.5038168, 0.30972052, -0.7228245, 0.35744423, 9.535954475402832, -1.8924570083618164, -2.3898766040802, -1.332487940788269, 1.1012115478515625, 1.3276535272598267, 
121, 2493533201, 0.5039182, 0.30944785, -0.7229189, 0.3573469, 9.613064765930176, -1.7656300067901611, -2.400446891784668, -2.8683724403381348, 1.070610761642456, 1.5428192615509033, 
122, 2493549868, 0.50414604, 0.3089281, -0.723153, 0.35700172, 9.526759147644043, -1.9878549575805664, -2.4601662158966064, -4.348927974700928, 1.0179383754730225, 1.6156237125396729, 
123, 2493566535, 0.5043202, 0.3085459, -0.7232898, 0.35680893, 9.480628967285156, -2.1223111152648926, -2.4930450916290283, -2.9714250564575195, 1.1287132501602173, 1.439062237739563, 
124, 2493583202, 0.50436985, 0.30840993, -0.7232945, 0.3568463, 9.558897018432617, -1.9214529991149902, -2.470954656600952, -1.932805061340332, 1.2043476104736328, 1.4121947288513184, 
125, 2493599869, 0.5045897, 0.3079923, -0.7234337, 0.3566143, 9.58797836303711, -1.8341171741485596, -2.4224300384521484, -3.45914888381958, 1.3744032382965088, 1.3873631954193115, 
126, 2493616536, 0.5048855, 0.3073937, -0.72367615, 0.35622016, 9.51301383972168, -1.9419481754302979, -2.4533772468566895, -4.4415106773376465, 1.301265835762024, 1.559800386428833, 
127, 2493633203, 0.50501204, 0.30710688, -0.7237649, 0.3561079, 9.51712417602539, -2.02964186668396, -2.425286293029785, -3.148550033569336, 1.261425495147705, 1.5538456439971924, 
128, 2493649870, 0.50518733, 0.30669868, -0.7238931, 0.3559501, 9.515856742858887, -1.9726651906967163, -2.367335796356201, -2.0005247592926025, 1.1216826438903809, 1.4703611135482788, 
129, 2493666537, 0.50538355, 0.306251, -0.72406447, 0.35570848, 9.558100700378418, -1.8462421894073486, -2.361572027206421, -3.2539334297180176, 1.1184426546096802, 1.55397367477417, 
130, 2493683204, 0.50568634, 0.3054597, -0.7244917, 0.35508814, 9.548868179321289, -1.6685155630111694, -2.2961575984954834, -7.98734712600708, 0.9819397926330566, 2.4345641136169434, 
131, 2493699871, 0.50615174, 0.30432087, -0.7251839, 0.35398817, 9.602555274963379, -2.002793073654175, -2.4227542877197266, -12.354125022888184, 0.6546289324760437, 2.6293563842773438, 
132, 2493716538, 0.50651926, 0.30341887, -0.7256961, 0.3531865, 9.53963851928711, -2.165219306945801, -2.5281386375427246, -9.744227409362793, 0.9171206951141357, 2.434366226196289, 
133, 2493733205, 0.5067163, 0.30287683, -0.7259985, 0.35274726, 9.539599418640137, -1.939277172088623, -2.439988136291504, -5.964839935302734, 0.7196722030639648, 1.9044262170791626, 
134, 2493749872, 0.5067905, 0.3025693, -0.72618496, 0.3525207, 9.561264038085938, -1.8463326692581177, -2.3932604789733887, -3.6237235069274902, 0.4083753228187561, 1.557822346687317, 
135, 2493766539, 0.50675464, 0.302351, -0.72634816, 0.35242286, 9.582669258117676, -1.925041675567627, -2.356083631515503, -1.636305809020996, -0.1834893822669983, 1.6028876304626465, 
136, 2493783206, 0.50657874, 0.30233756, -0.7264066, 0.35256737, 9.549260139465332, -2.0511512756347656, -2.2964284420013428, 0.7854647040367126, -0.5034240484237671, 1.561273455619812, 
137, 2493799873, 0.5063153, 0.3023877, -0.72645175, 0.35280967, 9.536811828613281, -1.970542073249817, -2.2546093463897705, 2.3398993015289307, -0.9940159320831299, 1.6131901741027832, 
138, 2493816540, 0.50600094, 0.30247995, -0.7265012, 0.35307926, 9.519492149353027, -1.9724515676498413, -2.282386302947998, 2.2530083656311035, -1.2145479917526245, 1.7492194175720215, 
139, 2493833207, 0.50570524, 0.30250704, -0.7265908, 0.3532951, 9.521321296691895, -1.9583064317703247, -2.3782618045806885, 1.7730389833450317, -1.2656195163726807, 1.8909342288970947, 
140, 2493849874, 0.5054258, 0.30249625, -0.7267122, 0.35345462, 9.527960777282715, -2.0033578872680664, -2.447124481201172, 1.6454428434371948, -1.4025514125823975, 1.8155624866485596, 
141, 2493866541, 0.5050404, 0.30271947, -0.7267083, 0.35382238, 9.500560760498047, -2.095398426055908, -2.4768755435943604, 3.0056183338165283, -1.3936893939971924, 1.6234289407730103, 
142, 2493883208, 0.50462455, 0.303026, -0.7266377, 0.3542981, 9.50597095489502, -1.9932377338409424, -2.511469602584839, 4.48737096786499, -1.3883620500564575, 1.4047797918319702, 
143, 2493899875, 0.50420684, 0.30325726, -0.72663856, 0.3546929, 9.557380676269531, -1.8547650575637817, -2.4314393997192383, 3.59480619430542, -1.6105713844299316, 1.6717664003372192, 
144, 2493916542, 0.50381535, 0.3033938, -0.726709, 0.35498786, 9.541991233825684, -1.9885927438735962, -2.4658756256103516, 2.494523525238037, -1.6880370378494263, 1.9073266983032227, 
145, 2493933209, 0.5034079, 0.30358967, -0.7267465, 0.35532168, 9.547788619995117, -2.049227714538574, -2.445601463317871, 2.762835741043091, -1.6548107862472534, 1.780063271522522, 
146, 2493949876, 0.5030537, 0.30369857, -0.72680557, 0.35560906, 9.513596534729004, -2.053943395614624, -2.483886241912842, 3.4128921031951904, -1.6715039014816284, 1.6314009428024292, 
147, 2493966543, 0.5026631, 0.30389288, -0.7268095, 0.35598746, 9.494762420654297, -2.0940330028533936, -2.487473487854004, 4.34300422668457, -1.6644541025161743, 1.505271077156067, 
148, 2493983210, 0.50221866, 0.30427995, -0.72670287, 0.35650125, 9.488781929016113, -2.1089444160461426, -2.49478816986084, 4.980863571166992, -1.5018006563186646, 1.1838958263397217, 
149, 2493999877, 0.5018887, 0.304476, -0.7266686, 0.3568682, 9.517277717590332, -1.8201744556427002, -2.572352647781372, 3.4978630542755127, -1.071814775466919, 1.4176888465881348, 
150, 2494016544, 0.501727, 0.30429697, -0.72687876, 0.35682043, 9.559257507324219, -1.7622352838516235, -2.582963466644287, -0.8957785964012146, -0.9954632520675659, 1.9918934106826782, 
151, 2494033211, 0.5017184, 0.3039633, -0.72713757, 0.35658973, 9.456109046936035, -2.13950252532959, -2.710756778717041, -2.667421817779541, -0.4248506426811218, 1.8510361909866333, 
152, 2494049878, 0.5015303, 0.3041133, -0.72709185, 0.3568194, 9.549786567687988, -2.1838812828063965, -2.7556378841400146, 0.644473135471344, -0.05662968009710312, 1.2762870788574219, 
153, 2494066545, 0.50144565, 0.30413845, -0.72703403, 0.35703444, 9.519200325012207, -2.011873483657837, -2.5550034046173096, 1.7843279838562012, 0.36525630950927734, 1.101083517074585, 
154, 2494083212, 0.5014224, 0.30406612, -0.7270557, 0.35708454, 9.515870094299316, -1.9944980144500732, -2.443937063217163, 0.07066543400287628, 0.3520081341266632, 1.0974528789520264, 
155, 2494099879, 0.50144756, 0.30392176, -0.7271133, 0.3570549, 9.523144721984863, -2.070352077484131, -2.501436471939087, -0.6178743243217468, 0.44292041659355164, 1.1044580936431885, 
156, 2494116546, 0.50153506, 0.30372253, -0.727186, 0.35695332, 9.546185493469238, -1.9721705913543701, -2.511204242706299, -1.2497780323028564, 0.6713088154792786, 0.9956679344177246, 
157, 2494133213, 0.50169444, 0.3033393, -0.72739357, 0.35663253, 9.567911148071289, -1.8114951848983765, -2.4843642711639404, -3.4604039192199707, 0.5600152611732483, 1.270844578742981, 
158, 2494149880, 0.5019017, 0.3028289, -0.7277045, 0.3561397, 9.541484832763672, -1.9588373899459839, -2.529974937438965, -5.201146125793457, 0.415213942527771, 1.4518240690231323, 
159, 2494166547, 0.50207597, 0.3023758, -0.72797036, 0.35573593, 9.473272323608398, -2.127284049987793, -2.505587339401245, -4.109602928161621, 0.39488381147384644, 1.4007073640823364, 
160, 2494183214, 0.50218564, 0.30206195, -0.7281271, 0.35552648, 9.433865547180176, -2.1681058406829834, -2.4864137172698975, -2.1605019569396973, 0.48557838797569275, 1.2793673276901245, 
161, 2494199881, 0.5021642, 0.302028, -0.7281296, 0.35558063, 9.4772310256958, -2.1600992679595947, -2.480999231338501, -0.6621522903442383, 0.5820037722587585, 1.1503368616104126, 
162, 2494216548, 0.5022379, 0.30181852, -0.7281813, 0.35554844, 9.51479434967041, -2.1146159172058105, -2.467061996459961, -0.11060843616724014, 0.6749714016914368, 1.105892300605774, 
163, 2494233215, 0.50224507, 0.30174583, -0.7281721, 0.35561886, 9.519343376159668, -2.056596517562866, -2.4908201694488525, 0.06939761340618134, 0.7052584886550903, 1.0904991626739502, 
164, 2494249882, 0.5022631, 0.3016572, -0.7281638, 0.35568574, 9.508031845092773, -1.9540778398513794, -2.488966226577759, -0.12334434688091278, 0.8050199747085571, 1.162573218345642, 
165, 2494266549, 0.50234646, 0.30143663, -0.7282558, 0.35556638, 9.55229377746582, -1.9534772634506226, -2.5298006534576416, -1.4566326141357422, 0.6096206307411194, 1.1242949962615967, 
166, 2494283216, 0.50241864, 0.30128074, -0.7282966, 0.35551322, 9.528982162475586, -2.024414300918579, -2.5614712238311768, -1.0881683826446533, 0.8024779558181763, 1.0456321239471436, 
167, 2494299883, 0.5024547, 0.30119094, -0.72828597, 0.35556015, 9.492643356323242, -2.0301403999328613, -2.5104928016662598, -0.22090952098369598, 0.864447832107544, 1.0608203411102295, 
168, 2494316550, 0.5025919, 0.300929, -0.7283545, 0.35544747, 9.534388542175293, -1.991943597793579, -2.4816391468048096, -0.7095678448677063, 0.8811153173446655, 0.9605145454406738, 
169, 2494333217, 0.5027175, 0.30072588, -0.7283931, 0.35536277, 9.579825401306152, -1.9982075691223145, -2.4320058822631836, -1.4436663389205933, 1.1243079900741577, 1.0367765426635742, 
170, 2494349884, 0.5028086, 0.30048838, -0.7284984, 0.3552191, 9.505374908447266, -1.9868216514587402, -2.4265952110290527, -2.0454111099243164, 0.6980100870132446, 1.2594916820526123, 
171, 2494366551, 0.5029372, 0.3002008, -0.7286298, 0.3550104, 9.50594425201416, -2.0250678062438965, -2.413233757019043, -2.194361686706543, 0.6576700806617737, 1.127342939376831, 
172, 2494383218, 0.5031036, 0.2998062, -0.7288156, 0.35472673, 9.540384292602539, -2.0305235385894775, -2.4523978233337402, -1.7212566137313843, 0.41579657793045044, 1.060045599937439, 
173, 2494399885, 0.5031381, 0.2996462, -0.7289219, 0.35459456, 9.51733684539795, -1.997267246246338, -2.4391427040100098, -1.9132879972457886, 0.3285340964794159, 1.1430691480636597, 
174, 2494416552, 0.50317526, 0.29943824, -0.7290589, 0.3544356, 9.512611389160156, -2.0667123794555664, -2.499574899673462, -1.8585023880004883, 0.17566470801830292, 1.2430226802825928, 
175, 2494433219, 0.503235, 0.29918554, -0.7291879, 0.35429895, 9.47375202178955, -2.0493969917297363, -2.4929115772247314, -0.8739756941795349, 0.2111254781484604, 1.2018117904663086, 
176, 2494449886, 0.5031805, 0.29912907, -0.72923106, 0.3543351, 9.498625755310059, -2.035296678543091, -2.469520330429077, -0.035716909915208817, 0.09893545508384705, 1.2168785333633423, 
177, 2494466553, 0.50305265, 0.29911843, -0.72926855, 0.35444865, 9.498454093933105, -2.072331190109253, -2.4457931518554688, 0.9068047404289246, -0.2581183612346649, 1.3646190166473389, 
178, 2494483220, 0.50287026, 0.2991668, -0.7292763, 0.3546502, 9.479408264160156, -2.054917335510254, -2.4704127311706543, 1.7580301761627197, -0.3959019184112549, 1.4418028593063354, 
179, 2494499887, 0.5026759, 0.29918346, -0.72930825, 0.35484615, 9.513431549072266, -1.992782473564148, -2.506904363632202, 1.5758150815963745, -0.47416797280311584, 1.6661381721496582, 
180, 2494516554, 0.502545, 0.29906932, -0.72940403, 0.35493094, 9.548741340637207, -1.9602371454238892, -2.573054790496826, 1.0345672369003296, -0.4709278345108032, 1.7238563299179077, 
181, 2494533221, 0.502214, 0.29930046, -0.7293401, 0.35533574, 9.462596893310547, -2.1106224060058594, -2.550959348678589, 3.3772592544555664, -0.7903440594673157, 1.5921945571899414, 
182, 2494549888, 0.50166214, 0.2998409, -0.7291256, 0.35609913, 9.492013931274414, -2.0935206413269043, -2.437368869781494, 7.091324329376221, -1.3856663703918457, 1.5030173063278198, 
183, 2494566555, 0.5009105, 0.3005116, -0.7288358, 0.35718337, 9.44177532196045, -1.8637309074401855, -2.2904703617095947, 10.413459777832031, -1.9666908979415894, 2.117223024368286, 
184, 2494583222, 0.50004756, 0.30118737, -0.7285955, 0.35831153, 9.457045555114746, -1.7559068202972412, -2.2419803142547607, 11.51259994506836, -2.816488742828369, 2.4359030723571777, 
185, 2494599889, 0.49888805, 0.30231878, -0.72812635, 0.3599251, 9.452032089233398, -1.9829914569854736, -2.3475253582000732, 16.310470581054688, -3.5387816429138184, 2.198756217956543, 
186, 2494616556, 0.49729472, 0.30423015, -0.7271609, 0.3624624, 9.071797370910645, -2.2444863319396973, -2.3533334732055664, 25.963865280151367, -4.074856281280518, 1.4549202919006348, 
187, 2494633223, 0.49536777, 0.30682394, -0.7258061, 0.3656163, 9.34789752960205, -2.1844234466552734, -2.4946577548980713, 32.28239440917969, -4.626407623291016, 0.35426339507102966, 
188, 2494649890, 0.49373624, 0.30870155, -0.7248211, 0.36818787, 9.691248893737793, -1.5163607597351074, -2.153484582901001, 26.594694137573242, -4.161542892456055, 1.6674294471740723, 
189, 2494666557, 0.49252078, 0.30960843, -0.7246009, 0.36948586, 9.771368980407715, -2.1248655319213867, -2.0288338661193848, 14.11788558959961, -4.938126087188721, 2.7953338623046875, 
190, 2494683224, 0.49152285, 0.31037292, -0.72446644, 0.3704353, 9.55665111541748, -2.9445440769195557, -2.3277955055236816, 10.903497695922852, -4.472639083862305, 2.041691780090332, 
191, 2494699891, 0.49063262, 0.31133536, -0.72409457, 0.37153345, 9.637996673583984, -2.9111928939819336, -2.4183712005615234, 14.058730125427246, -3.6892237663269043, 0.3832046687602997, 
192, 2494716558, 0.4898485, 0.3123671, -0.72369593, 0.37247756, 9.593118667602539, -2.2694854736328125, -2.3315365314483643, 11.279043197631836, -3.0262250900268555, -0.30451592803001404, 
193, 2494733225, 0.48950163, 0.31258944, -0.72383195, 0.3724826, 9.488679885864258, -1.8869162797927856, -2.2559244632720947, 2.4300944805145264, -2.848151445388794, 0.3636362850666046, 
194, 2494749892, 0.48952278, 0.31191525, -0.7246213, 0.37148404, 9.41776180267334, -1.6978422403335571, -2.1161046028137207, -8.196533203125, -3.048584461212158, 1.9700398445129395, 
195, 2494766559, 0.48987117, 0.31034765, -0.7261042, 0.36943632, 9.481224060058594, -1.7695902585983276, -2.139859914779663, -19.12361717224121, -3.666713237762451, 3.627147674560547, 
196, 2494783226, 0.4903974, 0.30828983, -0.7280063, 0.36670798, 9.485278129577637, -1.9657952785491943, -2.35691499710083, -26.35306739807129, -4.2183003425598145, 4.443122863769531, 
197, 2494799893, 0.49103108, 0.30584773, -0.73014355, 0.36364278, 9.448687553405762, -1.9501898288726807, -2.429105758666992, -29.134267807006836, -4.506133079528809, 5.196313858032227, 
198, 2494816560, 0.49146962, 0.3034086, -0.73242027, 0.36050177, 9.402389526367188, -1.7932621240615845, -2.2904510498046875, -30.509035110473633, -5.841009140014648, 6.014228820800781, 
199, 2494833227, 0.49175182, 0.3010103, -0.7348104, 0.35724875, 9.451109886169434, -1.897117018699646, -2.3732078075408936, -30.49797248840332, -7.465731620788574, 5.96397066116333, 
200, 2494849894, 0.49171677, 0.29909727, -0.7369832, 0.35441697, 9.343084335327148, -2.5385892391204834, -2.5044336318969727, -24.911602020263672, -8.843279838562012, 5.099814414978027, 
201, 2494866561, 0.49117404, 0.298075, -0.7386187, 0.35262153, 9.419594764709473, -2.4806315898895264, -2.4625651836395264, -14.620723724365234, -9.58422565460205, 4.288851261138916, 
202, 2494883228, 0.49030307, 0.29750732, -0.7401257, 0.35115, 9.574600219726562, -2.3072261810302734, -2.2556023597717285, -10.378384590148926, -11.293027877807617, 3.562448263168335, 
203, 2494899895, 0.48914382, 0.2972406, -0.741564, 0.34995618, 9.446850776672363, -2.180300712585449, -2.395358085632324, -6.63633918762207, -12.846271514892578, 3.347928524017334, 
204, 2494916562, 0.4875865, 0.29745063, -0.7429059, 0.34910378, 9.28986644744873, -1.978469729423523, -2.3235182762145996, -3.626614570617676, -14.660243034362793, 3.2402656078338623, 
205, 2494933229, 0.48580748, 0.29776758, -0.7443878, 0.3481557, 9.267285346984863, -2.4524760246276855, -2.4061248302459717, -2.222294807434082, -17.10248374938965, 2.7632803916931152, 
206, 2494949896, 0.48370585, 0.2984353, -0.7457659, 0.3475605, 9.359649658203125, -2.6230714321136475, -2.460280179977417, 2.5631752014160156, -18.807315826416016, 2.385845184326172, 
207, 2494966563, 0.48127195, 0.29935366, -0.74715626, 0.34716323, 9.275782585144043, -2.367626667022705, -2.3976426124572754, 4.739643573760986, -20.659055709838867, 2.652794599533081, 
208, 2494983230, 0.4787188, 0.30017146, -0.7486946, 0.34667245, 9.086881637573242, -2.1732237339019775, -2.254807710647583, 4.820209503173828, -22.034223556518555, 3.081911325454712, 
209, 2494999897, 0.47578815, 0.30140892, -0.7502907, 0.34618247, 9.25629997253418, -2.2782742977142334, -2.4139506816864014, 5.323784828186035, -24.79266357421875, 2.4346911907196045, 
210, 2495016564, 0.47240055, 0.30289996, -0.7519827, 0.34584898, 9.408020973205566, -2.454556703567505, -2.572594404220581, 8.067389488220215, -27.862598419189453, 2.7820911407470703, 
211, 2495033231, 0.46867782, 0.30436432, -0.75388, 0.3454975, 9.312225341796875, -2.1896729469299316, -2.364993095397949, 8.011263847351074, -30.245819091796875, 4.086911201477051, 
212, 2495049898, 0.46474907, 0.3053632, -0.7563855, 0.3444452, 9.352766990661621, -1.7538913488388062, -1.7179415225982666, 0.7609755992889404, -33.39119338989258, 6.382307529449463, 
213, 2495066565, 0.46072286, 0.3053095, -0.75993055, 0.34209064, 9.446503639221191, -0.9526104927062988, -1.3721094131469727, -11.478306770324707, -37.60322952270508, 10.0433988571167, 
214, 2495083232, 0.45653155, 0.3041649, -0.7647241, 0.33802345, 9.379223823547363, -0.4838205873966217, -1.2780495882034302, -24.738954544067383, -43.98735046386719, 12.721034049987793, 
215, 2495099899, 0.45187593, 0.30265525, -0.7703544, 0.3328092, 9.185644149780273, -0.6302940249443054, -1.5465259552001953, -34.3162727355957, -50.30076217651367, 14.513550758361816, 
216, 2495116566, 0.4464564, 0.3014482, -0.77630436, 0.32734895, 9.15190315246582, -1.024582862854004, -2.597696304321289, -34.395668029785156, -56.455970764160156, 14.8924560546875, 
217, 2495133233, 0.4404582, 0.30037105, -0.7824251, 0.3218462, 9.128827095031738, -1.4164904356002808, -4.010272026062012, -33.15289306640625, -60.569122314453125, 15.661783218383789, 
218, 2495149900, 0.43457752, 0.29883716, -0.78851014, 0.3163714, 8.847901344299316, -1.9156500101089478, -5.204525947570801, -34.47752380371094, -58.77454376220703, 17.86453628540039, 
219, 2495166567, 0.42866233, 0.2966396, -0.79484046, 0.31061593, 8.767171859741211, -1.7772268056869507, -5.388540267944336, -38.290313720703125, -58.81846237182617, 21.130395889282227, 
220, 2495183234, 0.4226605, 0.29403305, -0.8013446, 0.3045485, 9.142659187316895, -2.0234546661376953, -4.6003618240356445, -41.42243576049805, -59.50780487060547, 23.006879806518555, 
221, 2495199901, 0.41643474, 0.291423, -0.8078739, 0.29831973, 9.593626022338867, -2.192244291305542, -4.1711812019348145, -41.93182373046875, -61.13814926147461, 23.076129913330078, 
222, 2495216568, 0.41024214, 0.28941613, -0.81409526, 0.29187092, 9.382076263427734, -2.857506513595581, -4.49028205871582, -40.80392837524414, -61.813446044921875, 18.364023208618164, 
223, 2495233235, 0.4042073, 0.28853658, -0.81959283, 0.28571084, 8.644055366516113, -3.7570786476135254, -5.844858169555664, -34.86465072631836, -60.61771011352539, 11.056180953979492, 
224, 2495249902, 0.39836302, 0.2888962, -0.82396394, 0.28094363, 8.309188842773438, -4.178905010223389, -6.770569324493408, -21.702428817749023, -56.070533752441406, 5.212437152862549, 
225, 2495266569, 0.3926613, 0.29038346, -0.82730335, 0.27760375, 8.299527168273926, -4.022059917449951, -7.245509624481201, -8.922847747802734, -51.68971252441406, 0.3617765009403229, 
226, 2495283236, 0.38774145, 0.29242048, -0.8296842, 0.2752655, 8.092494010925293, -3.445002317428589, -7.337164402008057, -1.4923851490020752, -43.626338958740234, -3.555757761001587, 
227, 2495299903, 0.38367474, 0.29420397, -0.83152056, 0.2735168, 7.926211833953857, -2.956432580947876, -7.23176383972168, 0.4677732586860657, -35.55249786376953, -3.284843683242798, 
228, 2495316570, 0.38033172, 0.29553682, -0.83294874, 0.272401, 7.907163143157959, -2.7867352962493896, -7.166626453399658, 2.2460930347442627, -28.150474548339844, -1.2978248596191406, 
229, 2495333237, 0.37852728, 0.29664376, -0.83354324, 0.2718922, 7.74379825592041, -2.0763039588928223, -7.027893543243408, 3.5303103923797607, -15.424941062927246, -2.994344711303711, 
230, 2495349904, 0.37828046, 0.29737425, -0.8334349, 0.27177003, 7.932207107543945, -1.3263581991195679, -6.273844242095947, 2.9588756561279297, -3.1265811920166016, -4.205170631408691, 
231, 2495366571, 0.37892476, 0.29782188, -0.8331458, 0.2712685, 8.423813819885254, -1.1544736623764038, -5.807578086853027, -1.4207619428634644, 2.2342917919158936, -5.561682224273682, 
232, 2495383238, 0.38015547, 0.29821596, -0.8326734, 0.27056265, 8.547237396240234, -1.3678585290908813, -5.890758514404297, -3.607677698135376, 5.76485013961792, -7.178768157958984, 
233, 2495399905, 0.3812399, 0.29904827, -0.83178693, 0.27084485, 8.486640930175781, -1.6443737745285034, -6.103959083557129, 4.234979152679443, 7.231485843658447, -7.6067705154418945, 
234, 2495416572, 0.38247505, 0.30013108, -0.83055806, 0.27167583, 8.362692832946777, -1.8341463804244995, -5.966484069824219, 8.497076988220215, 9.626931190490723, -8.652950286865234, 
235, 2495433239, 0.38401106, 0.30135944, -0.8291474, 0.27245656, 8.187482833862305, -2.354274272918701, -6.1252055168151855, 8.289064407348633, 11.464888572692871, -10.512319564819336, 
236, 2495449906, 0.386044, 0.303013, -0.82715386, 0.27380565, 8.229772567749023, -2.2748448848724365, -6.261643409729004, 12.691944122314453, 16.244714736938477, -13.563565254211426, 
237, 2495466573, 0.3888484, 0.30467188, -0.8247344, 0.27529085, 7.88049840927124, -1.8117790222167969, -5.93161678314209, 12.628143310546875, 22.077747344970703, -15.536812782287598, 
238, 2495483240, 0.39261308, 0.3059156, -0.82223785, 0.276036, 7.742800712585449, -1.6923096179962158, -5.830836296081543, 5.475393772125244, 26.988845825195312, -17.13434410095215, 
239, 2495499907, 0.39719498, 0.3069774, -0.8194577, 0.2765685, 7.729691982269287, -1.96867835521698, -5.986405849456787, 2.579192638397217, 32.3120231628418, -18.787919998168945, 
240, 2495516574, 0.4023266, 0.30817878, -0.81618124, 0.2775019, 7.751187801361084, -2.280794620513916, -6.133660316467285, 5.085145950317383, 37.36592102050781, -20.622608184814453, 
241, 2495533241, 0.4078108, 0.3097081, -0.8123593, 0.2790048, 7.905167579650879, -2.376286268234253, -6.145741939544678, 9.455370903015137, 41.49128341674805, -22.706382751464844, 
242, 2495549908, 0.41347748, 0.31170756, -0.80786705, 0.28147045, 7.888539791107178, -2.4683680534362793, -5.961081027984619, 17.01718521118164, 45.59740447998047, -24.403423309326172, 
243, 2495566575, 0.4191737, 0.31391004, -0.80299884, 0.28451127, 7.918948650360107, -2.2772250175476074, -5.796769618988037, 21.495128631591797, 47.70804977416992, -24.805551528930664, 
244, 2495583242, 0.42471582, 0.31620032, -0.7979067, 0.28806037, 8.075437545776367, -2.031543254852295, -5.561286449432373, 25.335411071777344, 48.475650787353516, -24.02684783935547, 
245, 2495599909, 0.42986932, 0.3185256, -0.79278564, 0.29196715, 8.244782447814941, -1.960625171661377, -5.187317848205566, 28.311853408813477, 47.17679977416992, -22.473783493041992, 
246, 2495616576, 0.4344491, 0.32095057, -0.78776073, 0.29610503, 8.397305488586426, -2.4036149978637695, -4.784593105316162, 30.91524314880371, 44.10523223876953, -20.96135711669922, 
247, 2495633243, 0.43851927, 0.32359633, -0.7827515, 0.30047733, 8.551885604858398, -2.5110902786254883, -4.877758502960205, 33.89535903930664, 41.390506744384766, -20.385892868041992, 
248, 2495649910, 0.44233873, 0.32593864, -0.77793545, 0.30482346, 8.599115371704102, -1.8033262491226196, -4.814385414123535, 33.040809631347656, 40.03828430175781, -17.935049057006836, 
249, 2495666577, 0.4461482, 0.32727832, -0.7738511, 0.30821323, 8.65085506439209, -1.477634310722351, -4.934561729431152, 23.341508865356445, 37.74760055541992, -13.799638748168945, 
250, 2495683244, 0.44994542, 0.3274509, -0.77061063, 0.31061965, 8.473331451416016, -1.9506516456604004, -5.1858229637146, 12.778364181518555, 35.38815689086914, -8.663694381713867, 
251, 2495699911, 0.45376447, 0.3270903, -0.76769376, 0.31265995, 8.248056411743164, -2.372281074523926, -5.509751796722412, 8.505114555358887, 34.8552360534668, -6.319874286651611, 
252, 2495716578, 0.45796275, 0.32661462, -0.76467156, 0.3144372, 8.301980972290039, -3.180166006088257, -5.637989521026611, 6.130706310272217, 36.9099006652832, -7.604589939117432, 
253, 2495733245, 0.46184516, 0.3268792, -0.7610973, 0.31714374, 8.286499977111816, -3.1311867237091064, -5.439748287200928, 15.20820140838623, 37.55698013305664, -9.164932250976562, 
254, 2495749912, 0.46519107, 0.3276567, -0.7573651, 0.3203697, 8.414172172546387, -2.885965585708618, -4.852445125579834, 21.06769561767578, 35.37664031982422, -9.423969268798828, 
255, 2495766579, 0.46769476, 0.32839322, -0.7540235, 0.32383385, 8.63440227508545, -2.474052906036377, -4.446776866912842, 23.303035736083984, 30.39781951904297, -5.802114486694336, 
256, 2495783246, 0.4696786, 0.3296176, -0.75057817, 0.3276996, 9.02567195892334, -1.31614089012146, -3.8971567153930664, 28.33634376525879, 27.894264221191406, -6.133392810821533, 
257, 2495799913, 0.4721248, 0.33102968, -0.74670297, 0.33159074, 9.556025505065918, -0.396233469247818, -2.642822742462158, 29.023536682128906, 31.30902671813965, -9.02370834350586, 
258, 2495816580, 0.4742117, 0.33223003, -0.74326926, 0.33510825, 10.238768577575684, -0.18336956202983856, -2.0834176540374756, 26.274869918823242, 27.615354537963867, -7.276209354400635, 
259, 2495833247, 0.47515514, 0.3334993, -0.7406326, 0.33833295, 10.997557640075684, -0.1360762119293213, -2.763636589050293, 25.71571159362793, 18.295751571655273, -4.025190830230713, 
260, 2495849914, 0.4763588, 0.33399898, -0.7384957, 0.34080976, 10.33041000366211, -0.02289986051619053, -3.3892569541931152, 17.75135612487793, 17.994958877563477, -1.9685324430465698, 
261, 2495866581, 0.4781605, 0.33267933, -0.73753095, 0.34166524, 9.04916000366211, 0.017813434824347496, -3.850898504257202, -0.5913979411125183, 17.73436164855957, 3.3505096435546875, 
262, 2495883248, 0.48054725, 0.32950997, -0.73796916, 0.34043962, 8.941932678222656, -0.43305954337120056, -4.000202178955078, -21.835439682006836, 15.69849681854248, 7.795035362243652, 
263, 2495899915, 0.48343396, 0.32540205, -0.7389033, 0.33827093, 9.115555763244629, -1.6539257764816284, -4.016659736633301, -31.994876861572266, 16.687437057495117, 9.449122428894043, 
264, 2495916582, 0.48609594, 0.32168245, -0.7396051, 0.33647543, 9.358513832092285, -2.692197322845459, -3.6060879230499268, -27.714008331298828, 16.269025802612305, 8.713237762451172, 
265, 2495933249, 0.48846492, 0.31893268, -0.7396661, 0.33552656, 9.618036270141602, -3.241838216781616, -3.173055648803711, -18.0947208404541, 16.571971893310547, 5.860870838165283, 
266, 2495949916, 0.49031034, 0.31754348, -0.7389331, 0.33576742, 9.634416580200195, -3.3523824214935303, -2.956347703933716, -4.4338698387146, 16.025453567504883, 2.3267815113067627, 
267, 2495966583, 0.49183053, 0.31701756, -0.7376644, 0.33682925, 9.486957550048828, -2.52172589302063, -2.7123920917510986, 4.588705062866211, 15.964200019836426, 0.23119963705539703, 
268, 2495983250, 0.4932644, 0.3167162, -0.7362881, 0.3380253, 9.270424842834473, -1.7767152786254883, -2.52866792678833, 6.402214527130127, 15.657975196838379, -0.49129053950309753, 
269, 2495999917, 0.4946381, 0.3164303, -0.735051, 0.33897662, 9.449464797973633, -1.5427699089050293, -2.631471633911133, 5.060938358306885, 14.28572940826416, -0.9694797396659851, 
270, 2496016584, 0.49587092, 0.3161979, -0.7338535, 0.33998516, 9.536712646484375, -1.463696002960205, -2.835796356201172, 5.63356876373291, 13.447419166564941, -0.5782392024993896, 
271, 2496033251, 0.49672237, 0.31609935, -0.732674, 0.34137487, 9.487510681152344, -1.2086102962493896, -2.576786756515503, 8.854297637939453, 11.962721824645996, 0.9741221070289612, 
272, 2496049918, 0.49762264, 0.31562072, -0.7319196, 0.34212402, 9.757268905639648, -1.2085636854171753, -2.5067970752716064, 3.251776695251465, 10.237386703491211, 1.52678644657135, 
273, 2496066585, 0.49851403, 0.3149628, -0.7313166, 0.34272194, 9.429086685180664, -1.8291845321655273, -2.602071523666382, 1.5218943357467651, 9.755881309509277, 2.294757843017578, 
274, 2496083252, 0.4991697, 0.31461126, -0.7306222, 0.34357038, 9.398141860961914, -1.9384304285049438, -2.317237377166748, 4.637904644012451, 8.678770065307617, 1.9424102306365967, 
275, 2496099919, 0.49968526, 0.3143825, -0.7299387, 0.34448183, 9.5873441696167, -1.9086436033248901, -2.3571157455444336, 5.603811264038086, 7.774423599243164, 1.9078842401504517, 
276, 2496116586, 0.49995372, 0.31417367, -0.7292638, 0.3457101, 9.522154808044434, -1.335189700126648, -2.085986375808716, 7.759715557098389, 7.12617301940918, 3.5026021003723145, 
277, 2496133253, 0.5003248, 0.31344587, -0.72911, 0.346158, 9.611225128173828, -1.0851904153823853, -1.8603030443191528, 0.5186253190040588, 5.3898420333862305, 4.350645065307617, 
278, 2496149920, 0.50055224, 0.31242537, -0.72934353, 0.3462597, 9.620664596557617, -1.5945903062820435, -1.8370469808578491, -2.7390096187591553, 3.233469009399414, 5.80005407333374, 
279, 2496166587, 0.50064385, 0.31144992, -0.72958684, 0.34649348, 9.733086585998535, -1.8114879131317139, -1.735976219177246, -1.6783685684204102, 2.66580867767334, 6.390869140625, 
280, 2496183254, 0.50050414, 0.31045228, -0.7299745, 0.34677413, 9.897444725036621, -1.634690284729004, -2.0139646530151367, -1.47176992893219, 1.1426403522491455, 7.556817054748535, 
281, 2496199921, 0.50059307, 0.30895936, -0.7305853, 0.3466928, 9.637187004089355, -1.842124342918396, -2.4404783248901367, -5.968087673187256, 1.890820026397705, 8.724893569946289, 
282, 2496216588, 0.50087845, 0.30721015, -0.7313586, 0.34620434, 9.562984466552734, -1.8270725011825562, -2.988278865814209, -9.759808540344238, 2.0651915073394775, 8.507891654968262, 
283, 2496233255, 0.501255, 0.30568317, -0.7318505, 0.34597138, 9.533282279968262, -2.3708717823028564, -3.4444546699523926, -7.083277225494385, 3.479473352432251, 7.415787696838379, 
284, 2496249922, 0.501626, 0.3044806, -0.73207814, 0.34601265, 9.263956069946289, -2.033151865005493, -3.535982608795166, -3.972984790802002, 4.197320461273193, 6.179922580718994, 
285, 2496266589, 0.50205034, 0.30343366, -0.73211884, 0.34623063, 9.242533683776855, -1.9592567682266235, -3.2045183181762695, -2.2628118991851807, 5.152699947357178, 5.499803066253662, 
286, 2496283256, 0.5026077, 0.30224603, -0.73225445, 0.34617427, 9.519591331481934, -2.1054670810699463, -2.9906301498413086, -4.498865127563477, 5.247978687286377, 5.099053859710693, 
287, 2496299923, 0.5032277, 0.30096537, -0.7323708, 0.34614268, 9.532543182373047, -2.237474203109741, -2.77559232711792, -4.938584327697754, 5.946002960205078, 5.510035991668701, 
288, 2496316590, 0.50402415, 0.29970598, -0.73239934, 0.34601614, 9.433859825134277, -2.343635320663452, -2.9454574584960938, -5.5026655197143555, 6.893442153930664, 4.465537071228027, 
289, 2496333257, 0.5047489, 0.29874915, -0.73218745, 0.34623575, 9.17994213104248, -2.2730536460876465, -3.12241268157959, -1.874945878982544, 7.342841148376465, 3.7681150436401367, 
290, 2496349924, 0.5052819, 0.2983866, -0.73165715, 0.34689087, 9.257109642028809, -2.358865976333618, -2.969280242919922, 3.518378734588623, 6.983713626861572, 2.084477186203003, 
291, 2496366591, 0.50569326, 0.29852536, -0.73081535, 0.34794554, 9.360152244567871, -2.4657533168792725, -2.8356025218963623, 8.2905912399292, 7.084001541137695, 0.5792314410209656, 
292, 2496383258, 0.50607914, 0.29887447, -0.7297809, 0.34925327, 9.329207420349121, -2.2345166206359863, -2.605698347091675, 10.763039588928223, 7.65993070602417, 0.06500507146120071, 
293, 2496399925, 0.50650245, 0.29910734, -0.72885597, 0.35037023, 9.43674087524414, -1.89378023147583, -2.471895694732666, 8.463388442993164, 7.487057209014893, 0.2864909768104553, 
294, 2496416592, 0.50707275, 0.29907432, -0.7281345, 0.3510728, 9.508627891540527, -1.913311243057251, -2.532052993774414, 5.037416458129883, 7.22061824798584, 0.13520947098731995, 
295, 2496433259, 0.5076364, 0.29909086, -0.72742105, 0.35172242, 9.526265144348145, -1.9956481456756592, -2.574350357055664, 5.046535491943359, 6.905953407287598, -0.2895579934120178, 
296, 2496449926, 0.50813025, 0.29925925, -0.72663075, 0.3524992, 9.551656723022461, -2.069275379180908, -2.524693250656128, 6.682994842529297, 6.689385414123535, -0.6341385841369629, 
297, 2496466593, 0.50858593, 0.29961395, -0.7256823, 0.3534927, 9.524395942687988, -2.0333266258239746, -2.5719215869903564, 8.760982513427734, 7.072962760925293, -1.0074056386947632, 
298, 2496483260, 0.50900143, 0.300069, -0.72468376, 0.35455564, 9.450241088867188, -1.903572678565979, -2.420060873031616, 9.783856391906738, 6.922481536865234, -1.3048267364501953, 
299, 2496499927, 0.5094691, 0.3003389, -0.7238226, 0.3554134, 9.670816421508789, -1.7969005107879639, -2.2381105422973633, 7.481331825256348, 6.77182149887085, -0.8881015181541443, 
300, 2496516594, 0.5100193, 0.30024648, -0.72318685, 0.35599622, 9.6212797164917, -1.71854829788208, -2.118635654449463, 4.240836143493652, 6.677859306335449, 0.19250506162643433, 
301, 2496533261, 0.510636, 0.2998553, -0.7228126, 0.3562018, 9.579092025756836, -1.8374295234680176, -2.138702154159546, 0.4580831825733185, 6.051205635070801, 0.7628102898597717, 
302, 2496549928, 0.51122546, 0.29944572, -0.72248495, 0.35636562, 9.518048286437988, -1.9445382356643677, -2.1819052696228027, -0.02317309007048607, 5.737052917480469, 0.921442449092865, 
303, 2496566595, 0.511683, 0.29917073, -0.72214496, 0.35662895, 9.538686752319336, -1.973108172416687, -1.973199725151062, 1.2697112560272217, 4.987753868103027, 0.8956376910209656, 
304, 2496583262, 0.51200736, 0.29900667, -0.72180843, 0.35698217, 9.71121597290039, -1.9861935377120972, -1.8890053033828735, 2.5008111000061035, 4.186997413635254, 0.9606554508209229, 
305, 2496599929, 0.5122074, 0.29884186, -0.7215043, 0.35744774, 9.551064491271973, -1.8879902362823486, -1.8136684894561768, 3.281743288040161, 3.6602604389190674, 1.7244138717651367, 
306, 2496616596, 0.51231503, 0.29857323, -0.7214083, 0.35771143, 9.58123779296875, -1.8560742139816284, -1.9229717254638672, 1.416907548904419, 2.3320751190185547, 2.225615978240967, 
307, 2496633263, 0.5123854, 0.2983709, -0.72131115, 0.35797536, 9.523301124572754, -1.8554021120071411, -2.1090505123138428, 1.7770986557006836, 1.9641352891921997, 1.9771980047225952, 
308, 2496649930, 0.51231223, 0.2983938, -0.72116303, 0.35835946, 9.428071975708008, -1.9046037197113037, -2.107853889465332, 3.6498606204986572, 1.1059178113937378, 1.5278998613357544, 
309, 2496666597, 0.5120393, 0.29859814, -0.7210275, 0.35885146, 9.618569374084473, -1.7064660787582397, -2.078871250152588, 5.063913345336914, -0.12894074618816376, 1.572594404220581, 
310, 2496683264, 0.511651, 0.29876438, -0.7210257, 0.35927024, 9.587733268737793, -1.7276750802993774, -1.944962739944458, 4.594752311706543, -1.2633146047592163, 2.0312154293060303, 
311, 2496699931, 0.5110507, 0.29890248, -0.7211798, 0.3597002, 9.480366706848145, -1.7455601692199707, -1.8408979177474976, 4.499895095825195, -2.757520914077759, 3.0870862007141113, 
312, 2496716598, 0.5102533, 0.2989817, -0.72151095, 0.36010218, 9.453593254089355, -1.6140588521957397, -1.6030195951461792, 4.100785255432129, -4.278416156768799, 4.146965026855469, 
313, 2496733265, 0.50928736, 0.29895929, -0.7221214, 0.3602646, 9.472692489624023, -1.5964540243148804, -1.5422345399856567, 2.152888774871826, -6.342057704925537, 4.826099872589111, 
314, 2496749932, 0.50808066, 0.2988764, -0.7230289, 0.36021695, 9.655963897705078, -1.8103834390640259, -1.530997633934021, 0.7977205514907837, -8.915482521057129, 5.574439525604248, 
315, 2496766599, 0.50670826, 0.29879558, -0.7240638, 0.36013842, 9.620979309082031, -2.0037035942077637, -1.8519071340560913, 0.6816182732582092, -10.27910327911377, 6.129223346710205, 
316, 2496783266, 0.50538707, 0.29855004, -0.725206, 0.35990027, 9.485244750976562, -2.083059310913086, -2.168034791946411, -0.955936849117279, -10.359606742858887, 6.474778652191162, 
317, 2496799933, 0.50399876, 0.29824698, -0.72640705, 0.3596764, 9.454444885253906, -2.1864001750946045, -2.442150831222534, -1.1281952857971191, -10.725753784179688, 7.106221675872803, 
318, 2496816600, 0.50270224, 0.297911, -0.72753894, 0.35948107, 9.494802474975586, -2.4849841594696045, -2.676889419555664, -1.2302424907684326, -9.8598051071167, 7.01057767868042, 
319, 2496833267, 0.5015409, 0.29788905, -0.72823745, 0.35970727, 9.494131088256836, -2.6333248615264893, -2.9180891513824463, 2.8565850257873535, -7.61525297164917, 5.642082214355469, 
320, 2496849934, 0.5002212, 0.29831234, -0.7285424, 0.3605754, 9.417265892028809, -2.473569393157959, -3.1458568572998047, 9.43591594696045, -6.956943511962891, 5.07149600982666, 
321, 2496866601, 0.49898556, 0.29888922, -0.7286301, 0.36163086, 9.403365135192871, -2.2208948135375977, -3.1091666221618652, 10.991657257080078, -5.695466995239258, 4.3465800285339355, 
322, 2496883268, 0.4978254, 0.29962522, -0.7285207, 0.36283904, 9.289287567138672, -2.463965892791748, -2.9635565280914307, 12.422602653503418, -4.651070594787598, 3.528458833694458, 
323, 2496899935, 0.4966129, 0.3007443, -0.7280197, 0.36457637, 9.588377952575684, -2.768336534500122, -2.4373936653137207, 17.555526733398438, -3.4455840587615967, 2.716191530227661, 
324, 2496916602, 0.4953299, 0.30209175, -0.72720087, 0.36683512, 9.51314640045166, -2.435539960861206, -2.0833446979522705, 21.839115142822266, -2.200730085372925, 2.869267463684082, 
325, 2496933269, 0.49401495, 0.30316013, -0.72674215, 0.36863148, 9.347089767456055, -2.3073506355285645, -2.001366138458252, 17.65887451171875, -3.8381505012512207, 3.5361828804016113, 
326, 2496949936, 0.49237242, 0.30441546, -0.7262861, 0.3706873, 9.40809154510498, -2.829484224319458, -1.9362715482711792, 20.393516540527344, -5.465252876281738, 4.278685092926025, 
327, 2496966603, 0.4904083, 0.3059047, -0.72583276, 0.3729462, 9.665136337280273, -2.1736512184143066, -1.6705522537231445, 22.658218383789062, -7.212506294250488, 4.6523261070251465, 
328, 2496983270, 0.48863125, 0.30699584, -0.72572523, 0.374588, 9.84264850616455, -2.2219035625457764, -1.6381640434265137, 17.95347785949707, -8.016050338745117, 4.548399448394775, 
329, 2496999937, 0.48660412, 0.30862197, -0.72541326, 0.37648982, 9.18768310546875, -2.892132520675659, -1.687970757484436, 21.156387329101562, -9.185583114624023, 3.2280516624450684, 
330, 2497016604, 0.484353, 0.3106916, -0.7249201, 0.37863386, 9.341277122497559, -3.3106632232666016, -1.4305886030197144, 24.97694206237793, -10.39882755279541, 1.9456737041473389, 
331, 2497033271, 0.48224723, 0.31296805, -0.7239981, 0.38120255, 9.379929542541504, -3.817173957824707, -1.7479437589645386, 28.782209396362305, -7.970831871032715, 0.9632967114448547, 
332, 2497049938, 0.48016444, 0.3157075, -0.722553, 0.38430238, 8.893590927124023, -3.792492151260376, -2.828023672103882, 34.05686569213867, -6.1556220054626465, -0.746619701385498, 
333, 2497066605, 0.47786325, 0.31866086, -0.7209802, 0.38767225, 9.23660659790039, -1.9326231479644775, -3.736297369003296, 37.377601623535156, -6.91864538192749, -0.7826446890830994, 
334, 2497083272, 0.4760568, 0.32099298, -0.7198918, 0.38998625, 9.90664005279541, -1.0832420587539673, -3.8143627643585205, 27.53525161743164, -6.618858337402344, -1.3716087341308594, 
335, 2497099939, 0.47458002, 0.32282415, -0.719186, 0.3915736, 9.370173454284668, -2.023857831954956, -3.7092154026031494, 20.841611862182617, -6.553359031677246, -1.3327653408050537, 
336, 2497116606, 0.4730084, 0.32497692, -0.71815664, 0.39357895, 9.385278701782227, -2.8237698078155518, -3.6815855503082275, 24.98411750793457, -5.8547749519348145, -1.988452672958374, 
337, 2497133273, 0.47140265, 0.327225, -0.7168789, 0.39596525, 9.407366752624512, -2.3002851009368896, -2.907188653945923, 27.56640625, -4.479884624481201, -1.6050688028335571, 
338, 2497149940, 0.47017533, 0.32879356, -0.7161369, 0.39746484, 9.386007308959961, -1.9972773790359497, -2.347216844558716, 18.78770637512207, -4.515505313873291, -0.9780797958374023, 
339, 2497166607, 0.4691412, 0.32982767, -0.7159127, 0.398233, 9.390497207641602, -2.1440556049346924, -2.2586591243743896, 11.4365234375, -5.383798122406006, -0.010968643240630627, 
340, 2497183274, 0.467988, 0.33081344, -0.71585876, 0.3988684, 9.401180267333984, -2.3453891277313232, -2.089477062225342, 10.48753547668457, -6.710306644439697, 0.5017402768135071, 
341, 2497199941, 0.46672136, 0.3317071, -0.7159754, 0.39940086, 9.413049697875977, -2.073835849761963, -1.9768922328948975, 10.062057495117188, -7.992671012878418, 1.1785178184509277, 
342, 2497216608, 0.46515262, 0.33252794, -0.7163966, 0.3997927, 9.305815696716309, -1.8560478687286377, -1.6697325706481934, 8.430002212524414, -10.423023223876953, 2.7627153396606445, 
343, 2497233275, 0.46326655, 0.33322874, -0.71724325, 0.39988145, 9.388372421264648, -1.97194504737854, -1.4119278192520142, 6.224019527435303, -13.767765045166016, 4.210475444793701, 
344, 2497249942, 0.46091923, 0.33406475, -0.718282, 0.40003178, 9.352100372314453, -2.002077102661133, -1.2607440948486328, 7.524431228637695, -16.925460815429688, 5.442320823669434, 
345, 2497266609, 0.4581047, 0.33493888, -0.7196974, 0.39998978, 9.443538665771484, -1.9482311010360718, -1.1257553100585938, 6.924752235412598, -21.079862594604492, 6.756080150604248, 
346, 2497283276, 0.45516047, 0.3355844, -0.72159964, 0.39938256, 9.44945240020752, -2.367306709289551, -1.7738606929779053, 1.8366010189056396, -23.80008316040039, 7.739444732666016, 
347, 2497299943, 0.45209122, 0.33617318, -0.7235526, 0.39883965, 9.116820335388184, -2.7008187770843506, -2.6391890048980713, 2.4411518573760986, -24.40542984008789, 8.59231185913086, 
348, 2497316610, 0.44911686, 0.33666956, -0.72553873, 0.39817262, 9.17099380493164, -2.7961320877075195, -3.2418060302734375, 0.9688920974731445, -23.994192123413086, 8.55055046081543, 
349, 2497333277, 0.44624138, 0.33715105, -0.72739285, 0.3976153, 9.198678970336914, -2.7427690029144287, -3.5036306381225586, 1.8490997552871704, -22.863637924194336, 8.295393943786621, 
350, 2497349944, 0.44330636, 0.3378023, -0.7290707, 0.39727208, 9.153005599975586, -2.6584067344665527, -3.178393602371216, 3.817260503768921, -22.492393493652344, 7.925392150878906, 
351, 2497366611, 0.44026384, 0.3385222, -0.73077863, 0.39690468, 9.37531852722168, -2.704179048538208, -3.0095667839050293, 4.158077239990234, -23.398744583129883, 7.842830657958984, 
352, 2497383278, 0.43711957, 0.33916828, -0.7325559, 0.39655185, 9.280694961547852, -2.6831390857696533, -2.847400426864624, 4.073311805725098, -23.879520416259766, 8.678281784057617, 
353, 2497399945, 0.43358174, 0.33991772, -0.7344029, 0.39637792, 9.416147232055664, -2.2566771507263184, -2.2427594661712646, 5.9164228439331055, -25.914613723754883, 9.960769653320312, 
354, 2497416612, 0.43007043, 0.34018716, -0.73674667, 0.39562201, 9.42841911315918, -2.044904947280884, -1.5732795000076294, 0.06869348138570786, -27.31853485107422, 11.766575813293457, 
355, 2497433279, 0.42601165, 0.3405246, -0.73964024, 0.3943216, 9.248201370239258, -2.161073923110962, -1.0914993286132812, -2.7091760635375977, -33.220619201660156, 12.600057601928711, 
356, 2497449946, 0.4211018, 0.34099817, -0.7430121, 0.39284447, 9.347929000854492, -2.396193265914917, -0.642615020275116, -2.4278881549835205, -39.82028579711914, 14.786422729492188, 
357, 2497466613, 0.4156696, 0.34120846, -0.74717045, 0.39055362, 9.438932418823242, -2.1093802452087402, -0.1974831372499466, -8.258713722229004, -46.032989501953125, 17.029508590698242, 
358, 2497483280, 0.4098381, 0.3407653, -0.7525108, 0.38683236, 9.246280670166016, -1.4918928146362305, -0.5956391096115112, -19.848020553588867, -53.104164123535156, 20.19977569580078, 
359, 2497499947, 0.4031762, 0.3399882, -0.7589033, 0.38199866, 9.236926078796387, -1.276034951210022, -1.315309762954712, -27.311344146728516, -62.19367980957031, 23.439973831176758, 
360, 2497516614, 0.39566624, 0.33909893, -0.7660006, 0.376435, 8.99305248260498, -1.8110400438308716, -1.672379970550537, -31.389623641967773, -70.01625061035156, 25.934999465942383, 
361, 2497533281, 0.38707238, 0.338252, -0.77352077, 0.3707107, 8.893486976623535, -1.9617161750793457, -2.2001068592071533, -30.674571990966797, -77.4234848022461, 29.060382843017578, 
362, 2497549948, 0.37772524, 0.3368913, -0.7817157, 0.3643469, 9.202840805053711, -1.0215446949005127, -2.329962730407715, -35.45343017578125, -83.43928527832031, 33.59642791748047, 
363, 2497566615, 0.36769155, 0.3348422, -0.790977, 0.35642555, 9.942686080932617, -0.8743569850921631, -2.131402015686035, -46.7206916809082, -91.82862091064453, 37.4790153503418, 
364, 2497583282, 0.35669392, 0.3319685, -0.801042, 0.3477043, 11.31958293914795, -0.7245472073554993, -1.02008056640625, -53.476295471191406, -98.76751708984375, 44.54124069213867, 
365, 2497599949, 0.3434073, 0.32902944, -0.81238455, 0.3374059, 13.919904708862305, -1.2611775398254395, -0.5774391293525696, -60.14979553222656, -118.0775146484375, 49.47856903076172, 
366, 2497616616, 0.3274948, 0.32699284, -0.823732, 0.32754934, 17.63429832458496, 0.567832887172699, -0.6090210676193237, -49.62517547607422, -134.02426147460938, 51.647186279296875, 
367, 2497633283, 0.30930635, 0.3253536, -0.83491385, 0.3184235, 18.534635543823242, 2.40588116645813, -0.13737939298152924, -39.07978057861328, -146.0281219482422, 55.923583984375, 
368, 2497649950, 0.28954256, 0.3222263, -0.8472279, 0.3074745, 17.943204879760742, 2.691516876220703, -0.47652751207351685, -51.62043762207031, -158.57432556152344, 66.73185729980469, 
369, 2497666617, 0.27037245, 0.31725156, -0.86062115, 0.29254323, 18.58890151977539, 2.374629497528076, -2.707451820373535, -82.04134368896484, -162.46109008789062, 70.84781646728516, 
370, 2497683284, 0.25547758, 0.3108421, -0.87434834, 0.2713363, 15.71222972869873, 0.7679618000984192, -5.730171203613281, -131.7775115966797, -148.8701629638672, 59.90924835205078, 
371, 2497699951, 0.2457268, 0.30318227, -0.8879848, 0.24327348, 10.003575325012207, -5.135745048522949, -9.954488754272461, -185.96055603027344, -130.32693481445312, 45.60762405395508, 
372, 2497716618, 0.23951001, 0.29411367, -0.89981073, 0.21557531, 4.777462005615234, -9.38086223602295, -13.982207298278809, -190.46730041503906, -102.64186096191406, 44.99680709838867, 
373, 2497733285, 0.23309223, 0.28717804, -0.90670156, 0.20270447, 3.57755708694458, -10.563892364501953, -14.652271270751953, -87.57086181640625, -68.83120727539062, 46.33172607421875, 
374, 2497749952, 0.22865048, 0.2854198, -0.9072779, 0.2076087, 5.769918441772461, -6.311553478240967, -11.83024787902832, 36.30912399291992, -18.367279052734375, 27.173864364624023, 
375, 2497766619, 0.22811633, 0.2869488, -0.9036756, 0.2213461, 6.034850597381592, -1.8540964126586914, -9.74377155303955, 94.8130874633789, 25.294801712036133, 6.7572503089904785, 
376, 2497783286, 0.23218301, 0.2887793, -0.89891964, 0.23375437, 4.628978252410889, 0.21727301180362701, -7.6897454261779785, 79.72016906738281, 52.656585693359375, -6.423514366149902, 
377, 2497799953, 0.24276689, 0.28927076, -0.8943821, 0.23972325, 3.3023171424865723, -0.2728365361690521, -6.556201457977295, 24.53614616394043, 82.00035095214844, -18.410329818725586, 
378, 2497816620, 0.26041228, 0.28827554, -0.8895903, 0.24023269, 1.9476125240325928, -1.273526906967163, -6.698857307434082, -25.11821174621582, 117.49187469482422, -30.508939743041992, 
379, 2497833287, 0.28295326, 0.28661335, -0.883421, 0.23949465, 1.2274739742279053, -2.830198287963867, -7.892728805541992, -41.36485290527344, 148.6095428466797, -39.503334045410156, 
380, 2497849954, 0.30806726, 0.28577667, -0.8743453, 0.2427893, 0.7492033839225769, -4.0333123207092285, -8.601895332336426, -15.560649871826172, 176.5949249267578, -46.68458557128906, 
381, 2497866621, 0.33378524, 0.28703704, -0.8620781, 0.2510355, -0.10362547636032104, -3.8966727256774902, -8.374719619750977, 22.765113830566406, 193.3609619140625, -56.14310073852539, 
382, 2497883288, 0.35811728, 0.29074916, -0.84733844, 0.2631248, -0.3644503355026245, -3.1656758785247803, -7.56565523147583, 58.15739440917969, 194.33541870117188, -64.39601135253906, 
383, 2497899955, 0.38324857, 0.29459542, -0.8310936, 0.2749863, -0.6958209276199341, -2.33414888381958, -6.734327793121338, 58.27383041381836, 202.1626739501953, -70.23674011230469, 
384, 2497916622, 0.4094382, 0.29694727, -0.8144226, 0.28442678, -1.072318196296692, -1.3612982034683228, -6.932031631469727, 39.1568489074707, 207.40548706054688, -70.97607421875, 
385, 2497933289, 0.43467125, 0.29801813, -0.79841983, 0.29115638, -1.407164216041565, -0.704332709312439, -7.4902849197387695, 21.021320343017578, 197.2908477783203, -68.22264099121094, 
386, 2497949956, 0.4574516, 0.29911733, -0.7835892, 0.29538926, -0.7123833298683167, -1.8521149158477783, -7.294245719909668, 10.091726303100586, 175.3159942626953, -68.54399871826172, 
387, 2497966623, 0.47698015, 0.30172372, -0.7693893, 0.2991537, 0.4869421124458313, -4.292922496795654, -8.026714324951172, 17.719655990600586, 151.9439239501953, -70.273681640625, 
388, 2497983290, 0.49253947, 0.30587357, -0.7554661, 0.30515125, 1.9587639570236206, -4.774831771850586, -8.182550430297852, 42.24937438964844, 131.66197204589844, -62.46041488647461, 
389, 2497999957, 0.50482714, 0.30948555, -0.743133, 0.3116435, 3.713686943054199, -4.023381233215332, -7.448329448699951, 46.530792236328125, 111.60880279541016, -47.87360763549805, 
390, 2498016624, 0.513817, 0.31305355, -0.7324843, 0.31852248, 6.0620503425598145, -2.895449161529541, -7.222166538238525, 51.756351470947266, 89.9614028930664, -35.72809982299805, 
391, 2498033291, 0.5204564, 0.31596193, -0.7239942, 0.3242308, 8.37243938446045, -1.0176039934158325, -6.395446300506592, 43.86365509033203, 69.53580474853516, -26.791433334350586, 
392, 2498049958, 0.525844, 0.31670249, -0.71869165, 0.32660398, 10.066704750061035, 0.43148088455200195, -5.749203205108643, 15.12554931640625, 49.57135009765625, -18.217323303222656, 
393, 2498066625, 0.5303973, 0.31516826, -0.7163435, 0.32588342, 10.518828392028809, -0.3939770460128784, -5.633368015289307, -13.189462661743164, 33.20561218261719, -9.815422058105469, 
394, 2498083292, 0.53299254, 0.31324348, -0.7157356, 0.32483864, 10.39608383178711, -1.5142463445663452, -5.062257289886475, -15.85625171661377, 17.450300216674805, -0.8921561241149902, 
395, 2498099959, 0.53303766, 0.3123661, -0.71587396, 0.3253041, 9.5211820602417, -2.244065046310425, -3.8602330684661865, -0.7546399831771851, 3.131742238998413, 6.787598133087158, 
396, 2498116626, 0.5296727, 0.31344864, -0.71683836, 0.3276274, 8.032069206237793, -1.840080738067627, -3.33471417427063, 21.050582885742188, -17.04229736328125, 13.328110694885254, 
397, 2498133293, 0.52174693, 0.31437647, -0.721035, 0.33023655, 6.417890548706055, -0.7493311166763306, -1.0505512952804565, 24.449443817138672, -50.30149841308594, 32.35006332397461, 
398, 2498149960, 0.5073657, 0.3159987, -0.7302636, 0.3308171, 4.75708532333374, -3.037212610244751, -0.45797982811927795, 19.418970108032227, -106.3361587524414, 47.16335678100586, 
399, 2498166627, 0.48759294, 0.32353565, -0.73770463, 0.33670458, 6.171569347381592, -6.2032904624938965, -0.7363322377204895, 82.47867584228516, -129.1223602294922, 44.30171585083008, 
400, 2498183294, 0.46674007, 0.3362699, -0.73910624, 0.3504262, 11.869839668273926, -1.4196083545684814, 2.8132941722869873, 156.00514221191406, -108.9929428100586, 33.14937973022461, 
401, 2498199961, 0.44930765, 0.34196863, -0.742186, 0.36102644, 11.567967414855957, 1.4342939853668213, 6.188868045806885, 105.58468627929688, -87.39651489257812, 54.53313064575195, 
402, 2498216628, 0.4325341, 0.33961952, -0.7521482, 0.36310586, 8.25456428527832, 1.054650068283081, 2.959188461303711, 18.587467193603516, -105.55817413330078, 83.90303039550781, 
403, 2498233295, 0.41464773, 0.33639458, -0.764866, 0.36039752, 8.80368423461914, -3.4649741649627686, 1.1615824699401855, -13.066015243530273, -128.6238555908203, 83.4705581665039, 
404, 2498249962, 0.40013033, 0.33545297, -0.77271694, 0.36093745, 17.87814712524414, -9.706469535827637, 7.1353960037231445, 14.761507034301758, -95.26301574707031, 61.0977783203125, 
405, 2498266629, 0.37121174, 0.35209686, -0.7745637, 0.37186116, 56.24488830566406, 0.6771683096885681, -3.418728828430176, 166.33338928222656, -175.26004028320312, 18.068756103515625, 
406, 2498283296, 0.34165105, 0.36184323, -0.777821, 0.3838472, 2.0674304962158203, 1.3947224617004395, -4.319155216217041, 152.35775756835938, -162.49111938476562, 62.987396240234375, 
407, 2498299963, 0.31345302, 0.3591556, -0.79091495, 0.38367692, -13.41960620880127, 6.7130303382873535, -10.817220687866211, 28.810287475585938, -175.6598663330078, 121.8674087524414, 
408, 2498316630, 0.29566374, 0.34826738, -0.81106824, 0.3653233, 0.24841457605361938, 2.091254711151123, -12.4498872756958, -131.94541931152344, -157.22862243652344, 117.24698638916016, 
409, 2498333297, 0.28832662, 0.3339007, -0.8310957, 0.33861223, 4.931239604949951, -8.582669258117676, -10.853987693786621, -210.22943115234375, -109.78982543945312, 93.11251068115234, 
410, 2498349964, 0.27398422, 0.32522053, -0.84650004, 0.3203156, 10.451866149902344, -13.058512687683105, -11.507080078125, -124.00957489013672, -134.48907470703125, 82.87662506103516, 
411, 2498366631, 0.253845, 0.32220784, -0.8542304, 0.31943035, 17.407724380493164, -7.647268772125244, -6.056085586547852, 17.809860229492188, -127.28982543945312, 78.1718521118164, 
412, 2498383298, 0.2273646, 0.32080114, -0.85990584, 0.32550585, 29.807252883911133, 3.803380012512207, -0.9762824773788452, 80.01129913330078, -149.21018981933594, 90.29409790039062, 
413, 2498399965, 0.19644894, 0.3158077, -0.8711224, 0.3206544, 28.89494514465332, 11.350341796875, 2.818338394165039, 7.231443405151367, -200.57569885253906, 116.867431640625, 
414, 2498416632, 0.16512617, 0.30727762, -0.8887165, 0.29748404, 25.435712814331055, 8.882140159606934, -1.6033337116241455, -120.33814239501953, -244.10072326660156, 128.4154815673828, 
415, 2498433299, 0.13878977, 0.29732007, -0.90494883, 0.27093554, 24.32265281677246, 3.9998579025268555, -3.5484204292297363, -150.20318603515625, -216.69911193847656, 120.44419860839844, 
416, 2498449966, 0.117773026, 0.28899112, -0.91757834, 0.24630024, 14.573912620544434, -1.651664137840271, -3.5782978534698486, -140.80178833007812, -179.6662139892578, 94.97079467773438, 
417, 2498466633, 0.10156582, 0.2775713, -0.9299105, 0.21887234, -2.7487735748291016, -10.480518341064453, -8.333142280578613, -169.9925994873047, -149.6569366455078, 103.44535064697266, 
418, 2498483300, 0.09084728, 0.26455724, -0.9374392, 0.20727807, -8.570137977600098, -7.91375732421875, -12.334787368774414, -73.24105072021484, -78.49322509765625, 107.05967712402344, 
419, 2498499967, 0.10057838, 0.2599108, -0.93640137, 0.21326746, 3.128718137741089, -4.228321552276611, -7.220457553863525, 20.245269775390625, 78.95919799804688, 19.244915008544922, 
420, 2498516634, 0.1329057, 0.2598522, -0.9283395, 0.23021463, 2.5304441452026367, -5.310192584991455, -8.717616081237793, 63.837501525878906, 242.21995544433594, -48.389076232910156, 
421, 2498533301, 0.17723995, 0.25996506, -0.9177135, 0.24250017, -0.19163373112678528, -4.920205593109131, -8.620166778564453, 16.76991081237793, 312.70574951171875, -77.33867645263672, 
422, 2498549968, 0.22839282, 0.2586274, -0.90528333, 0.2478118, -4.459725379943848, -6.4241228103637695, -10.547136306762695, -38.26271438598633, 348.01812744140625, -91.33856964111328, 
423, 2498566635, 0.2823918, 0.25900277, -0.88800734, 0.25419557, -11.923632621765137, -7.45252799987793, -11.324338912963867, -25.7565860748291, 372.552001953125, -113.914306640625, 
424, 2498583302, 0.3336525, 0.26059914, -0.867509, 0.26113698, -16.78227424621582, -4.577993869781494, -11.157499313354492, -9.510436058044434, 361.2455749511719, -121.41838836669922, 
425, 2498599969, 0.38042802, 0.25658315, -0.8494548, 0.26051077, -12.777900695800781, -4.06051778793335, -11.19277572631836, -63.89506149291992, 325.7264099121094, -93.02019500732422, 
426, 2498616636, 0.421984, 0.24896897, -0.83246243, 0.2587477, -7.641640663146973, -5.026132583618164, -15.193975448608398, -72.63301849365234, 297.1833801269531, -63.879302978515625, 
427, 2498633303, 0.45495796, 0.2451259, -0.8145261, 0.26357925, -6.068984031677246, -8.231223106384277, -19.468994140625, -7.53701639175415, 255.659912109375, -52.78628921508789, 
428, 2498649970, 0.4765037, 0.2479657, -0.79792386, 0.27344996, -2.15598726272583, -8.147836685180664, -16.776784896850586, 58.45366668701172, 184.2039337158203, -51.64624786376953, 
429, 2498666637, 0.48780647, 0.25460735, -0.78484565, 0.28502184, 4.182345390319824, -7.43524169921875, -13.685773849487305, 91.09036254882812, 112.4942855834961, -41.81428146362305, 
430, 2498683304, 0.4889517, 0.2668657, -0.77513254, 0.29812515, 9.790464401245117, -6.726662635803223, -11.943349838256836, 129.38320922851562, 38.25299072265625, -41.32105255126953, 
431, 2498699971, 0.48394755, 0.28507727, -0.76594883, 0.31280726, 10.575730323791504, -3.1197118759155273, -9.469764709472656, 168.01385498046875, -5.4917426109313965, -54.2757453918457, 
432, 2498716638, 0.47538832, 0.29943088, -0.7607117, 0.3250612, 6.18468713760376, 1.777711272239685, -3.6865248680114746, 140.86439514160156, -33.74211502075195, -26.69976043701172, 
433, 2498733305, 0.45785478, 0.30784887, -0.76503843, 0.33213618, 6.561224460601807, 1.8250881433486938, -3.142563581466675, 91.48651885986328, -109.33821868896484, 27.196617126464844, 
434, 2498749972, 0.43636608, 0.31811005, -0.7692907, 0.34144175, 13.128010749816895, 2.517951488494873, 0.33739015460014343, 117.58007049560547, -129.4103546142578, 33.4361457824707, 
435, 2498766639, 0.4191821, 0.32645065, -0.7720908, 0.34870067, 16.147289276123047, 0.8326650857925415, 1.698838472366333, 94.98709869384766, -102.36021423339844, 24.251256942749023, 
436, 2498783306, 0.40452915, 0.33314908, -0.77289605, 0.35777023, 15.208653450012207, -7.643308639526367, 3.398921012878418, 98.95745849609375, -75.33129119873047, 27.719152450561523, 
437, 2498799973, 0.3870757, 0.3338633, -0.77529705, 0.37097487, 15.854667663574219, -3.1317734718322754, 4.515481472015381, 106.7132339477539, -70.64564514160156, 81.51422119140625, 
438, 2498816640, 0.36782205, 0.33553788, -0.7794051, 0.38032788, 27.455812454223633, 1.3872771263122559, 6.143375873565674, 88.46546173095703, -96.27974700927734, 74.69265747070312, 
439, 2498833307, 0.34759614, 0.34306395, -0.78511494, 0.3808918, 33.94686508178711, 5.735464572906494, 0.8569245338439941, 54.184268951416016, -141.43539428710938, 27.540998458862305, 
440, 2498849974, 0.3188935, 0.34784174, -0.7951761, 0.3807993, 12.453690528869629, -0.08765237033367157, -8.746891021728516, 52.71076583862305, -192.24449157714844, 73.59451293945312, 
441, 2498866641, 0.29191127, 0.34248984, -0.8078881, 0.38053304, 2.725708484649658, 5.847670555114746, -10.482810974121094, 18.546375274658203, -162.5147705078125, 130.5235137939453, 
442, 2498883308, 0.27024254, 0.32847956, -0.8270661, 0.36746714, 5.251999855041504, 4.129518985748291, -7.633808612823486, -99.25299835205078, -153.35635375976562, 154.35470581054688, 
443, 2498899975, 0.253258, 0.3119843, -0.8502003, 0.34012643, 11.814087867736816, -6.437301635742188E-5, -5.105267524719238, -205.56100463867188, -160.03004455566406, 139.1450653076172, 
444, 2498916642, 0.2314634, 0.302079, -0.8698637, 0.3138633, 23.43394660949707, -6.47724723815918, -7.275791168212891, -169.29010009765625, -195.31149291992188, 106.343017578125, 
445, 2498933309, 0.20336401, 0.2975845, -0.883807, 0.29828185, 29.824758529663086, -3.428738594055176, -4.5133957862854, -71.33580017089844, -213.6210479736328, 92.75778198242188, 
446, 2498949976, 0.17188829, 0.2946265, -0.8928662, 0.29400674, 34.49968338012695, 3.998847484588623, -0.572196900844574, 16.459579467773438, -207.6605987548828, 96.31450653076172, 
447, 2498966643, 0.14542995, 0.28995478, -0.9010971, 0.28775033, 20.4256591796875, 4.224795818328857, -1.9104442596435547, -6.159505367279053, -176.86537170410156, 92.94175720214844, 
448, 2498983310, 0.12340805, 0.28335953, -0.91142076, 0.2716439, 2.833531618118286, -3.3317699432373047, -4.9066667556762695, -82.02745819091797, -167.5779266357422, 90.54959106445312, 
449, 2498999977, 0.106716976, 0.26818419, -0.92450064, 0.24897273, -16.5159969329834, -5.3079094886779785, -10.916213035583496, -146.0159149169922, -133.3160400390625, 134.08709716796875, 
450, 2499016644, 0.09588316, 0.2608622, -0.9299972, 0.24054678, -5.872758388519287, 1.7251919507980347, -9.011394500732422, -47.51295852661133, -77.38548278808594, 70.37227630615234, 
451, 2499033311, 0.116906784, 0.2607629, -0.92696804, 0.24303474, 4.174089431762695, -4.492648124694824, -4.77044677734375, -15.936535835266113, 139.72157287597656, -36.64200210571289, 
452, 2499049978, 0.15283878, 0.26174477, -0.91998607, 0.24850737, 0.7257874011993408, -3.860597848892212, -5.932907581329346, -16.23434829711914, 241.4814453125, -73.13619232177734, 
453, 2499066645, 0.19444603, 0.2618288, -0.91176856, 0.24962881, -0.3156845271587372, -3.4597201347351074, -7.624868392944336, -52.86557388305664, 272.4483337402344, -83.97459411621094, 
454, 2499083312, 0.24057393, 0.26121604, -0.90199727, 0.24554282, -4.31678581237793, -5.825403690338135, -9.580066680908203, -91.96590423583984, 294.781982421875, -97.1722412109375, 
455, 2499099979, 0.2922183, 0.2634972, -0.8856207, 0.24668555, -11.394843101501465, -6.734568119049072, -13.449220657348633, -53.55183029174805, 344.62982177734375, -127.759765625, 
456, 2499116646, 0.34050402, 0.27169403, -0.86310583, 0.2555149, -14.943872451782227, -5.788646697998047, -10.918157577514648, 21.63483428955078, 340.7011413574219, -153.89601135253906, 
457, 2499133313, 0.38417572, 0.27542996, -0.8418848, 0.260341, -8.135284423828125, -8.727068901062012, -9.487278938293457, -6.263985633850098, 310.9186096191406, -126.3747329711914, 
458, 2499149980, 0.42367715, 0.27436137, -0.82162017, 0.2648849, -3.727041482925415, -7.069814682006836, -13.858242988586426, -14.462358474731445, 292.5018310546875, -90.15946197509766, 
459, 2499166647, 0.45875567, 0.27400583, -0.8003383, 0.27188727, -3.300231695175171, -4.338095664978027, -15.782855033874512, 11.684942245483398, 274.0297546386719, -80.9909439086914, 
460, 2499183314, 0.48277977, 0.27612385, -0.78360176, 0.27685362, 0.14962121844291687, -5.521506309509277, -15.138932228088379, 20.618501663208008, 190.612548828125, -71.85603332519531, 
461, 2499199981, 0.49709848, 0.28025284, -0.7708581, 0.28307116, 6.859960556030273, -9.438776969909668, -12.624005317687988, 44.86008071899414, 123.82317352294922, -52.56147384643555, 
462, 2499216648, 0.5035067, 0.28871608, -0.75933826, 0.29415885, 10.309304237365723, -11.389386177062988, -10.62574577331543, 98.32915496826172, 78.80523681640625, -41.271427154541016, 
463, 2499233315, 0.5013038, 0.30062374, -0.7502168, 0.30902246, 9.577564239501953, -6.649404525756836, -6.473999977111816, 142.18704223632812, 26.1618595123291, -24.179256439208984, 
464, 2499249982, 0.48434076, 0.3059714, -0.75373465, 0.32199302, 11.348186492919922, -3.3725879192352295, -4.773502349853516, 113.45491027832031, -83.48970031738281, 60.51878356933594, 
465, 2499266649, 0.455152, 0.31704992, -0.7609268, 0.33661026, 15.247784614562988, 8.025714874267578, -1.7410660982131958, 158.67527770996094, -168.3423309326172, 71.0619888305664, 
466, 2499283316, 0.44400665, 0.31964824, -0.7673972, 0.33434218, 14.296024322509766, 7.3538970947265625, 5.238788604736328, 6.140676498413086, -88.90919494628906, 19.4013729095459, 
467, 2499299983, 0.4358782, 0.32278913, -0.7726946, 0.32978868, 8.916659355163574, -7.61695671081543, -0.4920549988746643, -8.181870460510254, -75.84973907470703, 0.2127947062253952, 
468, 2499316650, 0.41151443, 0.32643375, -0.7798338, 0.34052363, 21.46996307373047, -1.7231190204620361, -2.8794639110565186, 106.37798309326172, -134.90809631347656, 84.17994689941406, 
469, 2499333317, 0.39108709, 0.32839647, -0.7834271, 0.35418764, 24.71895980834961, 0.8440922498703003, 0.9294131398200989, 116.78925323486328, -93.36414337158203, 84.35903930664062, 
470, 2499349984, 0.379226, 0.3231006, -0.79157, 0.3538515, 10.801207542419434, 7.045261859893799, 0.5343189239501953, -8.570481300354004, -73.57688903808594, 75.34325408935547, 
471, 2499366651, 0.36157638, 0.31551692, -0.80756384, 0.34285897, 8.661832809448242, 0.46349313855171204, -5.9398674964904785, -78.73883819580078, -143.76011657714844, 91.6904296875, 
472, 2499383318, 0.3422386, 0.31075332, -0.8219378, 0.33275136, 8.695277214050293, -7.781958103179932, -9.23428726196289, -59.29542922973633, -153.8292694091797, 78.74382781982422, 
473, 2499399985, 0.32466033, 0.3089624, -0.8302099, 0.3314959, 7.96202278137207, -9.568965911865234, -9.88939380645752, 7.924480438232422, -117.36634063720703, 65.64908599853516, 
474, 2499416652, 0.30582008, 0.30694336, -0.8365107, 0.3354247, 9.781012535095215, -4.786259651184082, -7.15745735168457, 44.159053802490234, -108.59190368652344, 77.13469696044922, 
475, 2499433319, 0.28659877, 0.30263084, -0.8448428, 0.3354349, 12.998003959655762, -2.3743321895599365, -4.649530410766602, 12.918810844421387, -118.04594421386719, 87.24878692626953, 
476, 2499449986, 0.26670685, 0.29647893, -0.8563318, 0.328121, 18.605615615844727, 0.7943161129951477, -2.052675724029541, -39.132198333740234, -139.239990234375, 91.67018127441406, 
477, 2499466653, 0.24283825, 0.292416, -0.86836916, 0.31852385, 32.5463981628418, 2.405381679534912, -1.0332173109054565, -41.85625076293945, -173.20071411132812, 85.3975830078125, 
478, 2499483320, 0.21420287, 0.28898194, -0.8807358, 0.30807647, 37.70526885986328, 7.936588287353516, 1.3979233503341675, -36.98923110961914, -205.6434326171875, 91.55391693115234, 
479, 2499499987, 0.18588728, 0.28231677, -0.8943684, 0.29299918, 33.21504211425781, 9.000005722045898, 1.4199072122573853, -73.02804565429688, -208.3660430908203, 106.44105529785156, 
480, 2499516654, 0.16452879, 0.27545452, -0.90694624, 0.27295354, 15.729113578796387, 0.3018905818462372, -4.711082935333252, -115.11912536621094, -173.8896484375, 85.47801208496094, 
481, 2499533321, 0.14961794, 0.26122177, -0.9213288, 0.24603032, -6.110433101654053, -4.960996150970459, -9.863247871398926, -181.93197631835938, -135.11402893066406, 115.0072021484375, 
482, 2499549988, 0.13699844, 0.24569534, -0.9312104, 0.23176023, -18.38779640197754, -0.03728032112121582, -9.932754516601562, -99.60750579833984, -90.92659759521484, 124.09949493408203, 
483, 2499566655, 0.14781098, 0.24410017, -0.9306663, 0.22897011, 0.2633705139160156, -4.725674629211426, -3.9872982501983643, -35.90711975097656, 66.41460418701172, -9.378524780273438, 
484, 2499583322, 0.18661658, 0.24767193, -0.9201049, 0.23924887, -1.3371952772140503, -8.0261812210083, -5.052433013916016, 21.705842971801758, 269.6212158203125, -90.08612823486328, 
485, 2499599989, 0.23014046, 0.25444984, -0.9044681, 0.25343263, -3.7764344215393066, -5.730945110321045, -4.639160633087158, 50.7576789855957, 307.4716491699219, -121.82759857177734, 
486, 2499616656, 0.27627626, 0.26420707, -0.8852725, 0.26487485, -5.455223560333252, -4.542882919311523, -5.979569911956787, 39.99704360961914, 319.48211669921875, -155.5392608642578, 
487, 2499633323, 0.32992446, 0.27001005, -0.86378574, 0.26854956, -8.212719917297363, -5.547705173492432, -7.383382320404053, -24.33133888244629, 362.8398132324219, -164.15232849121094, 
488, 2499649990, 0.38774478, 0.27244318, -0.83869356, 0.26836896, -9.821337699890137, -7.1064133644104, -13.5342378616333, -56.017059326171875, 395.0815734863281, -167.39981079101562, 
489, 2499666657, 0.4397427, 0.27294663, -0.812907, 0.26703694, -5.511367321014404, -7.5136847496032715, -16.865537643432617, -55.627174377441406, 364.9527893066406, -149.99627685546875, 
490, 2499683324, 0.4838939, 0.27368236, -0.78594804, 0.27061126, -2.7096309661865234, -5.861550807952881, -16.909154891967773, -10.610343933105469, 333.6239318847656, -124.33728790283203, 
491, 2499699991, 0.5181858, 0.27355605, -0.7617, 0.27652082, 0.9088503122329712, -8.985732078552246, -16.038366317749023, 12.65648078918457, 277.5049743652344, -88.51895904541016, 
492, 2499716658, 0.5392233, 0.2773431, -0.7402632, 0.29039592, 5.884171962738037, -10.57601547241211, -13.823874473571777, 87.90286254882812, 205.78744506835938, -50.257938385009766, 
493, 2499733325, 0.54981667, 0.28301468, -0.7241529, 0.3052982, 11.163146018981934, -7.694465637207031, -9.767377853393555, 109.3890151977539, 131.21839904785156, -25.178224563598633, 
494, 2499749992, 0.55098176, 0.29130003, -0.7142252, 0.31850556, 11.99765396118164, -2.7457242012023926, -5.8323893547058105, 116.1994857788086, 52.197486877441406, -12.884182929992676, 
495, 2499766659, 0.54574263, 0.29542783, -0.7135491, 0.3251694, 6.828625202178955, 1.117295503616333, 0.8434634208679199, 60.882789611816406, -18.2672061920166, 15.268471717834473, 
496, 2499783326, 0.5276019, 0.29292008, -0.72833, 0.324607, 3.8140687942504883, -2.8339874744415283, 0.4625188410282135, -7.818078994750977, -139.45616149902344, 80.98011779785156, 
497, 2499799993, 0.5020184, 0.30077204, -0.7400199, 0.3314883, 11.222526550292969, -0.44266390800476074, -4.956960201263428, 88.9280014038086, -173.6849365234375, 66.45613861083984, 
498, 2499816660, 0.4835728, 0.31009325, -0.7426951, 0.3440986, 15.224736213684082, -2.5471575260162354, -1.228237509727478, 128.9365997314453, -97.72673034667969, 43.8431282043457, 
499, 2499833327, 0.46387216, 0.3184054, -0.7459962, 0.35627308, 12.865119934082031, 3.3771440982818604, 1.1892653703689575, 124.54174041748047, -104.82547760009766, 51.84324645996094, 
500, 2499849994, 0.44012427, 0.3243921, -0.7548799, 0.3622387, 19.255399703979492, -1.295381784439087, 3.4794015884399414, 80.46588897705078, -151.37753295898438, 66.18242645263672, 
501, 2499866661, 0.4210631, 0.32801166, -0.7616351, 0.3674595, 20.051429748535156, -5.289100646972656, 2.2303857803344727, 64.25918579101562, -116.51638793945312, 59.83936309814453, 
502, 2499883328, 0.40095496, 0.3301152, -0.76850575, 0.37370878, 22.642982482910156, 0.9822208881378174, 0.6118136048316956, 67.29042053222656, -116.32579803466797, 73.67333221435547, 
503, 2499899995, 0.37713754, 0.3319175, -0.7788481, 0.3754916, 20.85568618774414, 3.18281888961792, -1.0680232048034668, 42.35319137573242, -155.0025177001953, 80.4781494140625, 
504, 2499916662, 0.3539213, 0.33179367, -0.7926134, 0.36934656, 13.051937103271484, 0.6559961438179016, -8.222647666931152, -15.290691375732422, -173.89321899414062, 76.63385009765625, 
505, 2499933329, 0.33320454, 0.32613268, -0.80824375, 0.3596589, 6.272902011871338, 0.3390202522277832, -12.340665817260742, -58.473331451416016, -158.81813049316406, 96.1689224243164, 
506, 2499949996, 0.31564596, 0.31635123, -0.8239089, 0.34851635, 0.7659268379211426, -2.6740241050720215, -13.313994407653809, -83.10358428955078, -134.325927734375, 108.03578186035156, 
507, 2499966663, 0.30148292, 0.3047279, -0.8387768, 0.33571172, -2.231799602508545, -5.409450531005859, -10.725431442260742, -101.93799591064453, -112.42822265625, 104.96439361572266, 
508, 2499983330, 0.28697824, 0.2965141, -0.8508265, 0.32529584, 5.137057781219482, -5.384617328643799, -7.496217250823975, -73.8469009399414, -111.29710388183594, 85.0650863647461, 
509, 2499999997, 0.27193776, 0.29160976, -0.8601152, 0.31814393, 13.080820083618164, -6.262188911437988, -6.467809200286865, -40.9506950378418, -109.70660400390625, 67.68582916259766, 
510, 2500016664, 0.25354668, 0.2874492, -0.86870193, 0.31375778, 14.8749418258667, -3.1744866371154785, -7.024704456329346, -14.966351509094238, -124.35514068603516, 74.38985443115234, 
511, 2500033331, 0.23280166, 0.28265774, -0.8773858, 0.31000316, 14.27244758605957, -0.37745368480682373, -5.164098739624023, -7.8385796546936035, -136.05833435058594, 84.57914733886719, 
512, 2500049998, 0.2129085, 0.27558425, -0.88728106, 0.30241656, 17.655942916870117, 0.6918883919715881, -3.72053599357605, -38.81984329223633, -135.5425567626953, 92.82546997070312, 
513, 2500066665, 0.1927677, 0.2669575, -0.89832926, 0.2908243, 23.281959533691406, 3.0534777641296387, -1.866133689880371, -67.43314361572266, -143.25941467285156, 99.23963165283203, 
514, 2500083332, 0.17369255, 0.25830403, -0.9096395, 0.2750745, 20.86566925048828, 1.5156526565551758, -1.4997090101242065, -95.59041595458984, -144.84336853027344, 92.38723754882812, 
515, 2500099999, 0.15678798, 0.25039163, -0.92151886, 0.2520411, 9.612630844116211, -3.714207887649536, -5.388647556304932, -145.17686462402344, -146.52305603027344, 76.05950164794922, 
516, 2500116666, 0.14262582, 0.24153163, -0.9332431, 0.22444974, -0.9846009016036987, -7.612199783325195, -8.488030433654785, -179.54769897460938, -135.28428649902344, 72.11820220947266, 
517, 2500133333, 0.1296398, 0.23394097, -0.9426276, 0.19979563, -4.140578269958496, -9.397270202636719, -11.581079483032227, -157.82875061035156, -122.4795150756836, 61.05485534667969, 
518, 2500150000, 0.12171688, 0.23235665, -0.9452412, 0.19420154, -1.9345924854278564, -10.09251594543457, -10.145075798034668, -27.822853088378906, -61.10858154296875, 21.170101165771484, 
519, 2500166667, 0.12636717, 0.23700793, -0.94087046, 0.20644948, -1.4644091129302979, -8.463825225830078, -8.800321578979492, 82.51680755615234, 46.701866149902344, -32.42763137817383, 
520, 2500183334, 0.14336377, 0.24405651, -0.9328686, 0.22279902, -1.1390249729156494, -4.2914719581604, -9.5878324508667, 96.11647033691406, 133.08082580566406, -67.8604965209961, 
521, 2500200001, 0.16843665, 0.2529361, -0.9227447, 0.23705386, -0.21741987764835358, -0.6862241625785828, -9.067110061645508, 74.17991638183594, 180.73638916015625, -97.62869262695312, 
522, 2500216668, 0.20172334, 0.26200387, -0.9121736, 0.24207659, 1.3124346733093262, -1.6727395057678223, -9.022209167480469, 2.2926299571990967, 217.0803680419922, -123.6863021850586, 
523, 2500233335, 0.24290758, 0.26834214, -0.9011577, 0.23854442, 0.8992055654525757, -3.299016237258911, -10.898744583129883, -68.6360855102539, 256.4386291503906, -132.39430236816406, 
524, 2500250002, 0.28904667, 0.27263272, -0.88704956, 0.2350885, -0.2803680896759033, -6.002594947814941, -14.395031929016113, -75.6575927734375, 295.907958984375, -133.4375457763672, 
525, 2500266669, 0.33349618, 0.28064975, -0.8667342, 0.24246277, -1.6011672019958496, -7.033092498779297, -16.15095329284668, 11.020764350891113, 312.3536682128906, -143.59925842285156, 
526, 2500283336, 0.37671056, 0.29036963, -0.84135556, 0.25670135, -0.5191587209701538, -5.827651023864746, -13.752286911010742, 66.66160583496094, 327.1954040527344, -145.7942352294922, 
527, 2500300003, 0.41995353, 0.2964756, -0.8140693, 0.27024528, 2.455806016921997, -6.174596786499023, -12.434467315673828, 56.57338333129883, 337.4407653808594, -130.60145568847656, 
528, 2500316670, 0.46165365, 0.30112344, -0.7841962, 0.28502095, 5.085498332977295, -4.820779800415039, -12.624533653259277, 67.20087432861328, 341.61224365234375, -121.35090637207031, 
529, 2500333337, 0.4981786, 0.3049456, -0.7556452, 0.29635575, 10.445009231567383, 0.8020541667938232, -8.986153602600098, 54.13704299926758, 304.0697937011719, -114.97713470458984, 
530, 2500350004, 0.53166044, 0.30407363, -0.731244, 0.30026394, 13.389348983764648, -0.5644640326499939, -6.933501243591309, -2.6117336750030518, 268.0548400878906, -101.0794906616211, 
531, 2500366671, 0.55871564, 0.30237946, -0.7095782, 0.30479875, 11.159988403320312, -1.2130707502365112, -5.374858856201172, 5.320578098297119, 228.7545166015625, -75.6368637084961, 
532, 2500383338, 0.5778814, 0.29875666, -0.6940945, 0.3082699, 9.500173568725586, -1.3257486820220947, -3.2182650566101074, -3.834197998046875, 168.35061645507812, -40.91399383544922, 
533, 2500400005, 0.5887723, 0.29473668, -0.68527395, 0.31125087, 8.93457317352295, -0.005115807987749577, -2.092907190322876, -4.87678861618042, 102.22452545166016, -9.740681648254395, 
534, 2500416672, 0.5957068, 0.28705904, -0.68280876, 0.31064898, 7.409750461578369, 1.0066802501678467, -1.435420036315918, -42.143714904785156, 58.42827224731445, 14.348955154418945, 
535, 2500433339, 0.598713, 0.2761335, -0.6863696, 0.30690414, 5.138589859008789, -1.0659337043762207, -1.6856443881988525, -75.31272888183594, 16.042261123657227, 37.03989028930664, 
536, 2500450006, 0.5979565, 0.265655, -0.69314516, 0.3023662, 5.295597076416016, -1.928155541419983, -3.947873830795288, -76.84708404541016, -17.387645721435547, 45.714996337890625, 
537, 2500466673, 0.5961621, 0.25804925, -0.6990828, 0.29880527, 6.90965461730957, -1.4375030994415283, -2.644615411758423, -56.73112869262695, -23.03882598876953, 36.66371536254883, 
538, 2500483340, 0.59425277, 0.25479278, -0.70243716, 0.29753366, 8.891629219055176, -5.740968227386475, -0.27575019001960754, -22.381114959716797, -17.857149124145508, 20.792888641357422, 
539, 2500500007, 0.588577, 0.25817442, -0.70385224, 0.30251476, 11.11928653717041, -8.586800575256348, -1.4880775213241577, 45.50288772583008, -30.767288208007812, 18.527284622192383, 
540, 2500516674, 0.5815817, 0.26565278, -0.70225465, 0.3130973, 15.350317001342773, -3.739154577255249, 0.45171740651130676, 97.79570770263672, -23.549842834472656, 18.663908004760742, 
541, 2500533341, 0.5755095, 0.27312806, -0.69928217, 0.3243371, 15.926713943481445, -0.1949400156736374, 1.7782453298568726, 102.22789001464844, -12.430940628051758, 16.77025032043457, 
542, 2500550008, 0.56827694, 0.2797186, -0.6990065, 0.33197764, 11.942720413208008, 3.022562026977539, -0.5076010227203369, 77.58157348632812, -33.52523422241211, 14.445269584655762, 
543, 2500566675, 0.5593501, 0.28666112, -0.7006983, 0.3376016, 8.844860076904297, 0.8796589970588684, -2.795987606048584, 68.03366088867188, -54.05836486816406, 12.572794914245605, 
544, 2500583342, 0.54943115, 0.2949838, -0.7013638, 0.345252, 8.3367338180542, -4.110732078552246, -3.0808446407318115, 87.4476318359375, -54.09107208251953, 14.01151180267334, 
545, 2500600009, 0.540054, 0.30373585, -0.700329, 0.35443717, 9.3980712890625, -3.906837224960327, -3.892315149307251, 99.40616607666016, -42.95087814331055, 12.955141067504883, 
546, 2500616676, 0.5328306, 0.30927244, -0.6999552, 0.36125496, 9.204392433166504, -1.8282498121261597, -4.109778881072998, 69.95803833007812, -32.12582015991211, 15.738577842712402, 
547, 2500633343, 0.52749896, 0.31222385, -0.70059305, 0.3652817, 9.789337158203125, -0.3773869276046753, -4.467619895935059, 40.524471282958984, -26.218976974487305, 15.3948335647583, 
548, 2500650010, 0.5235803, 0.3134537, -0.7021112, 0.36694735, 10.94372272491455, -1.0300843715667725, -3.898928165435791, 17.670074462890625, -23.3239803314209, 13.478592872619629, 
549, 2500666677, 0.5198722, 0.31490028, -0.7033706, 0.36856565, 10.470743179321289, -3.851545810699463, -3.99556827545166, 18.426145553588867, -22.010915756225586, 11.184295654296875, 
550, 2500683344, 0.5166726, 0.31676152, -0.7034787, 0.37125376, 9.580638885498047, -3.2924954891204834, -4.128819465637207, 26.900203704833984, -14.154619216918945, 9.196578025817871, 
551, 2500700011, 0.5146437, 0.31704557, -0.70389766, 0.37303108, 9.352235794067383, -0.426183819770813, -2.764850616455078, 13.551864624023438, -7.534709453582764, 11.261393547058105, 
552, 2500716678, 0.51413727, 0.31446493, -0.70629525, 0.37137845, 9.553770065307617, -0.37216174602508545, -2.2294180393218994, -21.571483612060547, -7.2928056716918945, 13.41628646850586, 
553, 2500733345, 0.5141063, 0.31076413, -0.7097027, 0.3680253, 9.423110961914062, -2.664609670639038, -3.375127077102661, -37.390872955322266, -9.369622230529785, 13.841426849365234, 
554, 2500750012, 0.51422536, 0.3076774, -0.7121411, 0.36573517, 9.039175033569336, -3.9615256786346436, -3.7547824382781982, -27.89937400817871, -4.48224401473999, 12.15226936340332, 
555, 2500766679, 0.5144321, 0.30570444, -0.71347654, 0.364494, 8.951889038085938, -4.174868106842041, -3.3539798259735107, -16.23613166809082, -0.7189812660217285, 7.83718729019165, 
556, 2500783346, 0.5149064, 0.30492383, -0.7135822, 0.364271, 8.89511775970459, -4.675162315368652, -3.183129072189331, -4.504922389984131, 4.107471466064453, 2.312058925628662, 
557, 2500800013, 0.51541305, 0.30523595, -0.71241933, 0.36556724, 8.508379936218262, -3.955813407897949, -2.959967851638794, 9.924184799194336, 9.213778495788574, -0.44057077169418335, 
558, 2500816680, 0.5160732, 0.3062022, -0.71067995, 0.3672095, 9.016386032104492, -2.541963815689087, -2.3667104244232178, 15.061592102050781, 11.096460342407227, -4.038071155548096, 
559, 2500833347, 0.5168642, 0.30692577, -0.7091709, 0.36840844, 9.479040145874023, -1.309973955154419, -2.007197380065918, 11.177444458007812, 10.596611022949219, -4.277049541473389, 
560, 2500850014, 0.51745874, 0.30692455, -0.7085287, 0.3688104, 10.140009880065918, -0.1912204772233963, -1.4587936401367188, 2.93451189994812, 6.705624580383301, -1.2384191751480103, 
561, 2500866681, 0.5181622, 0.30535126, -0.70946723, 0.36732122, 10.79512882232666, 0.004482908174395561, -1.2283587455749512, -16.10688591003418, 1.597055435180664, 2.777008056640625, 
562, 2500883348, 0.51907647, 0.30210757, -0.7119492, 0.36389413, 10.15815544128418, -0.23818029463291168, -1.6479772329330444, -35.84965896606445, -2.737863540649414, 6.762592315673828, 
563, 2500900015, 0.5198765, 0.29776555, -0.715423, 0.35949144, 9.406510353088379, -1.1347192525863647, -1.5280325412750244, -46.78618240356445, -6.122387886047363, 11.035526275634766, 
564, 2500916682, 0.52041954, 0.29297858, -0.7194554, 0.3545577, 9.518454551696777, -1.6933488845825195, -1.1934741735458374, -51.841121673583984, -9.379551887512207, 13.125042915344238, 
565, 2500933349, 0.52080864, 0.28791243, -0.7239247, 0.34899563, 9.276200294494629, -2.2526400089263916, -1.1655240058898926, -56.70476150512695, -12.300902366638184, 13.529821395874023, 
566, 2500950016, 0.5210158, 0.2829241, -0.72865605, 0.34286574, 9.220257759094238, -3.117689847946167, -2.1873974800109863, -59.52196502685547, -15.468396186828613, 12.073418617248535, 
567, 2500966683, 0.5212433, 0.2784301, -0.7329597, 0.33697537, 9.497215270996094, -3.526494026184082, -3.502074718475342, -55.58409881591797, -14.536358833312988, 9.57430648803711, 
568, 2500983350, 0.52180547, 0.2745684, -0.73634195, 0.3318614, 9.521173477172852, -3.0554773807525635, -4.247228622436523, -47.91200637817383, -9.515090942382812, 6.625459671020508, 
569, 2501000017, 0.52275056, 0.27129033, -0.73903704, 0.32704383, 9.275871276855469, -3.3538506031036377, -4.5272908210754395, -43.47157287597656, -5.864150524139404, 2.5613512992858887, 
570, 2501016684, 0.52365595, 0.2689849, -0.740833, 0.3234162, 9.280233383178711, -3.399082660675049, -4.583066463470459, -31.832876205444336, -2.7815940380096436, 0.30229493975639343, 
571, 2501033351, 0.52475625, 0.2678329, -0.7414729, 0.32111436, 9.32664680480957, -2.936349391937256, -3.6996631622314453, -18.715511322021484, 2.2803783416748047, -3.3810150623321533, 
572, 2501050018, 0.5259683, 0.26688915, -0.741944, 0.31882077, 9.37495231628418, -2.0701770782470703, -2.8701999187469482, -17.759050369262695, 3.0246708393096924, -4.974971294403076, 
573, 2501066685, 0.52713877, 0.26568443, -0.7427246, 0.3160646, 9.55909252166748, -1.8102202415466309, -2.548207998275757, -21.66516876220703, 1.416711449623108, -4.654425144195557, 
574, 2501083352, 0.5284869, 0.26429468, -0.7436483, 0.31278893, 9.586050033569336, -2.163825035095215, -2.421625852584839, -25.62434959411621, 1.255627155303955, -5.709417343139648, 
575, 2501100019, 0.5296252, 0.26315793, -0.74457246, 0.30960777, 9.568178176879883, -2.4684553146362305, -1.9939154386520386, -23.843189239501953, -0.19789054989814758, -6.204683780670166, 
576, 2501116686, 0.53050643, 0.2624147, -0.7455134, 0.30644968, 9.810701370239258, -2.5607218742370605, -2.0461456775665283, -21.86753273010254, -2.3801352977752686, -7.557740211486816, 
577, 2501133353, 0.5313805, 0.26174155, -0.7463592, 0.30343732, 9.503244400024414, -1.638704776763916, -1.9624358415603638, -20.65888786315918, -1.964580774307251, -7.543446063995361, 
578, 2501150020, 0.53222024, 0.26086432, -0.7475284, 0.2998211, 9.649127960205078, -1.0899322032928467, -1.654180884361267, -25.11777114868164, -3.992581605911255, -8.042624473571777, 
579, 2501166687, 0.5327488, 0.2598927, -0.74913335, 0.29569212, 9.505090713500977, -1.2022969722747803, -1.4993178844451904, -28.436744689941406, -7.9265923500061035, -7.998461723327637, 
580, 2501183354, 0.53266966, 0.25902647, -0.7510777, 0.2916347, 9.50903606414795, -1.144101619720459, -1.46863853931427, -27.289642333984375, -12.401123046875, -6.4256205558776855, 
581, 2501200021, 0.5324798, 0.25739074, -0.7535628, 0.28698143, 9.682793617248535, -0.5991635918617249, -1.6810827255249023, -34.07956314086914, -14.48629379272461, -3.437535524368286, 
582, 2501216688, 0.5324364, 0.25451854, -0.7567893, 0.28107288, 9.390164375305176, -0.9114016890525818, -2.351180076599121, -46.833778381347656, -16.239002227783203, -0.5841283202171326, 
583, 2501233355, 0.532506, 0.2511892, -0.76022965, 0.27457714, 9.372486114501953, -1.591788649559021, -3.16697359085083, -52.17533493041992, -16.5832576751709, -0.18415723741054535, 
584, 2501250022, 0.5323881, 0.2480956, -0.7634461, 0.26862934, 9.625593185424805, -1.8659154176712036, -2.773832321166992, -47.70114517211914, -16.24266815185547, 0.565232515335083, 
585, 2501266689, 0.53185785, 0.2452658, -0.7665673, 0.26333746, 10.208915710449219, -1.0532692670822144, -2.033165216445923, -42.42850112915039, -17.43006134033203, 2.18768048286438, 
586, 2501283356, 0.531044, 0.2416084, -0.7702864, 0.2574427, 10.37940502166748, 0.28524067997932434, -1.7781617641448975, -49.2335205078125, -20.644763946533203, 5.880217552185059, 
587, 2501300023, 0.53012, 0.23610866, -0.7750528, 0.25003728, 10.363546371459961, 1.0134094953536987, -2.2195687294006348, -65.62146759033203, -24.322057723999023, 12.081398010253906, 
588, 2501316690, 0.52930355, 0.22790435, -0.78105646, 0.24051635, 10.39461898803711, 0.9313676357269287, -2.9962587356567383, -89.0279312133789, -27.063318252563477, 20.637662887573242, 
589, 2501333357, 0.52954125, 0.21638748, -0.7878201, 0.22825925, 10.812973976135254, 0.39547616243362427, -3.748847484588623, -118.70147705078125, -22.98451805114746, 27.96405601501465, 
590, 2501350024, 0.5314053, 0.20131625, -0.7944206, 0.21442057, 10.995516777038574, -0.9410209655761719, -4.121011257171631, -142.36471557617188, -10.363759994506836, 38.70245361328125, 
591, 2501366691, 0.5346716, 0.18313153, -0.8003376, 0.20012328, 10.369505882263184, -1.2544825077056885, -4.535969257354736, -157.17825317382812, 3.7413322925567627, 51.04818344116211, 
592, 2501383358, 0.5393552, 0.16158064, -0.8054859, 0.18487883, 9.594014167785645, -0.8706254959106445, -4.629711627960205, -175.48269653320312, 17.802648544311523, 63.196510314941406, 
593, 2501400025, 0.5449919, 0.13676438, -0.8099229, 0.16823901, 8.991743087768555, -0.19870974123477936, -5.027947425842285, -195.48297119140625, 28.31926155090332, 74.14118194580078, 
594, 2501416692, 0.55107456, 0.10916377, -0.8135, 0.15039298, 8.492951393127441, 0.4963684678077698, -5.335854530334473, -212.0500030517578, 36.11343765258789, 83.84278869628906, 
595, 2501433359, 0.55681074, 0.079025656, -0.8163708, 0.13136025, 8.395263671875, 0.8408626914024353, -5.407900810241699, -227.30299377441406, 38.5856819152832, 93.41883087158203, 
596, 2501450026, 0.56145597, 0.047112674, -0.81865364, 0.11114853, 8.369117736816406, 0.6191390156745911, -5.636322498321533, -239.5448760986328, 35.667724609375, 99.57611846923828, 
597, 2501466693, 0.5647293, 0.015200117, -0.8201582, 0.09050171, 8.044413566589355, -0.17877355217933655, -6.2880859375, -240.9517059326172, 30.8052978515625, 98.7456283569336, 
598, 2501483360, 0.5672221, -0.014953024, -0.820349, 0.07115671, 7.7705488204956055, -1.06821870803833, -6.6099090576171875, -225.8184814453125, 30.53872299194336, 94.25077819824219, 
599, 2501500027, 0.5693679, -0.04305308, -0.81917167, 0.05408092, 7.6527628898620605, -1.0571799278259277, -6.3547749519348145, -204.23892211914062, 32.66300582885742, 91.81495666503906, 
600, 2501516694, 0.5711714, -0.069533385, -0.8169696, 0.038589295, 7.995616436004639, -0.6938444972038269, -6.102182865142822, -188.89112854003906, 33.710479736328125, 89.42282104492188, 
601, 2501533361, 0.57290435, -0.09488788, -0.81376576, 0.023709765, 8.347232818603516, -0.6116229295730591, -5.657747268676758, -180.72317504882812, 36.643524169921875, 86.00540161132812, 
602, 2501550028, 0.57442826, -0.11949547, -0.8097373, 0.008871309, 8.291704177856445, -0.9128774404525757, -5.209989547729492, -177.55442810058594, 38.56775665283203, 82.59178161621094, 
603, 2501566695, 0.575765, -0.14328687, -0.8049407, -0.005823278, 8.217302322387695, -1.4670863151550293, -4.793332099914551, -173.62173461914062, 40.376888275146484, 79.27908325195312, 
604, 2501583362, 0.577056, -0.16632317, -0.7993253, -0.020543294, 8.48127269744873, -1.8151928186416626, -4.560720920562744, -170.85299682617188, 43.40372848510742, 75.82369995117188, 
605, 2501600029, 0.5783462, -0.1888872, -0.79282916, -0.03548354, 8.85403060913086, -1.48031485080719, -4.531619548797607, -170.33111572265625, 47.19635009765625, 73.38102722167969, 
606, 2501616696, 0.57958305, -0.21152341, -0.7853388, -0.050838146, 9.01944351196289, -1.1256541013717651, -4.268883228302002, -173.160888671875, 51.35297775268555, 73.41273498535156, 
607, 2501633363, 0.58049667, -0.23475833, -0.7768045, -0.0669863, 9.009689331054688, -1.3803397417068481, -3.9557230472564697, -180.66285705566406, 54.685157775878906, 74.9072494506836, 
608, 2501650030, 0.5810319, -0.2586795, -0.7671145, -0.08379949, 9.130594253540039, -1.6451395750045776, -4.171028137207031, -188.1010284423828, 58.0040283203125, 77.62808227539062, 
609, 2501666697, 0.58128047, -0.2829137, -0.7562586, -0.10072668, 9.327303886413574, -1.4298009872436523, -4.197606086730957, -191.14617919921875, 61.14502716064453, 80.74882507324219, 
610, 2501683364, 0.5808745, -0.3075832, -0.7443751, -0.11782733, 9.113282203674316, -1.3285651206970215, -4.0584611892700195, -195.78541564941406, 61.85415267944336, 83.88291931152344, 
611, 2501700031, 0.5795935, -0.33263522, -0.73157597, -0.13498889, 8.688514709472656, -2.0861546993255615, -3.947279453277588, -200.2215118408203, 60.819358825683594, 86.83890533447266, 
612, 2501716698, 0.5779543, -0.35693002, -0.71814156, -0.15113774, 8.57516860961914, -2.793260097503662, -3.9763846397399902, -193.52268981933594, 59.90324401855469, 88.19088745117188, 
613, 2501733365, 0.5763252, -0.38006344, -0.70419484, -0.16586444, 8.596293449401855, -2.7621653079986572, -3.983201265335083, -182.3987274169922, 59.67552185058594, 89.36953735351562, 
614, 2501750032, 0.57458097, -0.4023495, -0.68968445, -0.1797423, 8.802124977111816, -2.4203226566314697, -3.3713855743408203, -175.8825225830078, 60.07290267944336, 89.9659652709961, 
615, 2501766699, 0.571748, -0.42461026, -0.6747084, -0.19385292, 8.726489067077637, -2.2582032680511475, -2.997572898864746, -180.48355102539062, 57.39447021484375, 88.86601257324219, 
616, 2501783366, 0.5676955, -0.4466754, -0.6594469, -0.20816535, 8.427197456359863, -2.570443630218506, -3.1885390281677246, -184.6035614013672, 53.67435073852539, 86.372314453125, 
617, 2501800033, 0.5627666, -0.4679572, -0.6440713, -0.22244586, 8.285909652709961, -2.805128812789917, -3.5829451084136963, -184.26577758789062, 51.13905334472656, 82.03164672851562, 
618, 2501816700, 0.55779684, -0.4876246, -0.628828, -0.23592527, 8.083771705627441, -3.4812474250793457, -3.7755305767059326, -174.40625, 50.31196594238281, 77.48196411132812, 
619, 2501833367, 0.55310506, -0.5052675, -0.6141527, -0.24818607, 8.207030296325684, -3.6950385570526123, -4.139650821685791, -159.5261993408203, 48.51372146606445, 71.9289321899414, 
620, 2501850034, 0.54857284, -0.5209421, -0.6002361, -0.25962305, 8.465500831604004, -3.279083251953125, -4.507749080657959, -146.7201690673828, 46.786258697509766, 64.36568450927734, 
621, 2501866701, 0.54416484, -0.5345897, -0.58729887, -0.2705158, 7.931509494781494, -3.50022554397583, -4.556971549987793, -134.63961791992188, 45.26844024658203, 54.74958038330078, 
622, 2501883368, 0.5401866, -0.5455684, -0.57595074, -0.28077462, 7.614328384399414, -3.7227823734283447, -4.575864315032959, -117.5628433227539, 43.69096374511719, 41.281375885009766, 
623, 2501900035, 0.5369435, -0.5533487, -0.5668255, -0.29018226, 7.629132270812988, -3.9652252197265625, -5.213049411773682, -95.26875305175781, 41.33195495605469, 24.83731460571289, 
624, 2501916702, 0.53542084, -0.55738616, -0.5601563, -0.2981109, 7.334546089172363, -4.333374977111816, -4.783467769622803, -64.24430084228516, 40.8259162902832, 9.775507926940918, 
625, 2501933369, 0.5351624, -0.5589294, -0.5569858, -0.30160627, 7.929799556732178, -5.657880783081055, -3.4647819995880127, -25.977209091186523, 20.955120086669922, 5.6446967124938965, 
626, 2501950036, 0.5350229, -0.5595281, -0.55849254, -0.29793483, 12.127958297729492, -5.580106258392334, -3.6932003498077393, 15.091832160949707, -21.369848251342773, 10.633378982543945, 
627, 2501966703, 0.53773034, -0.5563627, -0.56093127, -0.2943859, 15.895387649536133, -4.000813007354736, -2.124570369720459, 41.32529830932617, -5.678024768829346, -2.0515384674072266, 
628, 2501983370, 0.54358006, -0.5527582, -0.55930245, -0.29352984, 10.164833068847656, -3.946221351623535, -1.8121589422225952, 36.3434944152832, 32.655517578125, 8.220152854919434, 
629, 2502000037, 0.5427152, -0.5558433, -0.5555773, -0.29636556, 7.510814189910889, 1.9367625713348389, -4.481689929962158, -32.61215591430664, 15.192617416381836, 14.550324440002441, 
630, 2502016704, 0.53689617, -0.5630556, -0.550249, -0.30321145, 8.439184188842773, -0.6379050016403198, -6.050585746765137, -85.51799011230469, 9.185003280639648, 11.415043830871582, 
631, 2502033371, 0.5326783, -0.5684449, -0.5452121, -0.30962586, 8.097590446472168, -6.858368873596191, -7.86951208114624, -70.3404312133789, 16.321048736572266, 8.329020500183105, 
632, 2502050038, 0.53403276, -0.5683254, -0.5419759, -0.31317353, 8.541009902954102, -6.708094596862793, -7.049880504608154, -13.807999610900879, 31.180810928344727, 2.956678628921509, 
633, 2502066705, 0.53764385, -0.5658493, -0.53996134, -0.31495333, 9.775104522705078, -2.3953957557678223, -2.7690298557281494, 12.876213073730469, 33.310115814208984, 0.706670343875885, 
634, 2502083372, 0.5379834, -0.56744486, -0.5353864, -0.31928304, 10.837120056152344, 0.877394437789917, 0.7956816554069519, -29.916399002075195, 31.7346134185791, 9.273847579956055, 
635, 2502100039, 0.5311402, -0.57609546, -0.52686, -0.32927585, 9.882540702819824, 0.9562404155731201, 1.6104048490524292, -113.56327819824219, 26.482175827026367, 13.980548858642578, 
636, 2502116706, 0.5213262, -0.58650374, -0.517571, -0.3411054, 7.949284076690674, -6.184323310852051, -1.86868155002594, -140.13888549804688, 21.755353927612305, 9.968716621398926, 
637, 2502133373, 0.52034867, -0.5879427, -0.51538986, -0.34341508, 6.962660312652588, -11.135220527648926, -5.834749698638916, -21.813283920288086, 10.356512069702148, 4.195657253265381, 
638, 2502150040, 0.5279818, -0.58072025, -0.5182683, -0.3397017, 9.17933177947998, -6.872297286987305, -4.768519401550293, 77.2569808959961, 18.904380798339844, -5.156911849975586, 
639, 2502166707, 0.53715676, -0.57193774, -0.5211028, -0.3358599, 10.611026763916016, -1.2459113597869873, -1.696194052696228, 89.4258041381836, 27.71586036682129, -6.519197463989258, 
640, 2502183374, 0.54122216, -0.56829834, -0.52089554, -0.3358327, 10.2681245803833, 1.7635518312454224, 0.46672818064689636, 29.644346237182617, 23.766033172607422, -2.005906820297241, 
641, 2502200041, 0.53847015, -0.57150006, -0.5173549, -0.3402671, 9.626561164855957, 1.20167076587677, 0.2509288191795349, -46.12479782104492, 13.371326446533203, 3.213273525238037, 
642, 2502216708, 0.53291154, -0.5776867, -0.5123736, -0.346059, 9.018738746643066, -1.9192997217178345, -1.1773477792739868, -76.40323638916016, 7.050164222717285, 7.93326997756958, 
643, 2502233375, 0.5277664, -0.5832087, -0.5078567, -0.35130036, 8.928132057189941, -3.9368772506713867, -2.620307683944702, -69.28312683105469, 6.187743663787842, 6.748876094818115, 
644, 2502250042, 0.52411944, -0.5874327, -0.5039084, -0.35538444, 9.068553924560547, -3.406780242919922, -3.157224655151367, -53.153770446777344, 7.849290370941162, 7.7393975257873535, 
645, 2502266709, 0.52100927, -0.59113044, -0.50004196, -0.3592664, 9.629331588745117, -1.8676948547363281, -2.918520212173462, -48.19013595581055, 9.889988899230957, 7.612308025360107, 
646, 2502283376, 0.5167182, -0.59593385, -0.49536946, -0.36397022, 9.64107894897461, -2.1586966514587402, -2.795757532119751, -61.76604461669922, 9.329537391662598, 8.83159351348877, 
647, 2502300043, 0.51207244, -0.60110754, -0.4901396, -0.36907274, 9.623433113098145, -2.507234573364258, -2.8248767852783203, -67.28729248046875, 10.809768676757812, 10.072790145874023, 
