sep=,
DeviceTag:,R Upper Leg - 5,,,,,,,,,,,,,,,,,
FirmwareVersion:,3.0.0,,,,,,,,,,,,,,,,,
AppVersion:,2023.6.1,,,,,,,,,,,,,,,,,
StartTime:,2024-05-23 11:49:42.000 +0200,,,,,,,,,,,,,,,,,
 2024,,,,,,,,,,,,,,,,,,,

PacketCounter,SampleTimeFine,Quat_W,Quat_X,Quat_Y,Quat_Z,Acc_X,Acc_Y,Acc_Z,Gyr_X,Gyr_Y,Gyr_Z,
0, 2510243259, 0.5557249, -0.34560394, -0.68999326, -0.3092524, 0.0, 0.0, 0.0, 0.0, 0.0, 0.0, 
1, 2510259926, 0.55622876, -0.34378397, -0.69063216, -0.3089488, 9.690705299377441, 0.6212128400802612, -1.8450872898101807, 11.766050338745117, -0.22347089648246765, -1.2584165334701538, 
2, 2510276593, 0.55603796, -0.34194192, -0.6912859, -0.3098729, 9.655550956726074, 0.5707542896270752, -1.9010064601898193, 9.597420692443848, -0.2106517106294632, -1.3005363941192627, 
3, 2510293260, 0.55590653, -0.3399497, -0.6924091, -0.30979306, 9.681628227233887, 0.5618810057640076, -1.9576313495635986, 9.281243324279785, -0.5931903123855591, -1.259158968925476, 
4, 2510309927, 0.5556491, -0.3385743, -0.6934579, -0.30941534, 9.64098834991455, 0.41635018587112427, -1.9851713180541992, 8.803297996520996, -0.3273687958717346, -1.4932078123092651, 
5, 2510326594, 0.5556717, -0.33764875, -0.69436336, -0.30835348, 9.655470848083496, 0.36823171377182007, -1.9198684692382812, 7.88208532333374, -0.09744353592395782, -1.2245945930480957, 
6, 2510343261, 0.55587703, -0.33711177, -0.6949826, -0.30717415, 9.668777465820312, 0.47587400674819946, -1.8509232997894287, 7.297450065612793, -0.5926907658576965, -0.9762665629386902, 
7, 2510359928, 0.5561571, -0.33663264, -0.6953561, -0.3063458, 9.702005386352539, 0.6173955798149109, -1.8402069807052612, 5.40803861618042, -0.353852242231369, -0.8724070191383362, 
8, 2510376595, 0.5564902, -0.3359416, -0.695685, -0.30575228, 9.695454597473145, 0.5162371397018433, -1.9424645900726318, 4.598818302154541, -0.017723990604281425, -0.6729737520217896, 
9, 2510393262, 0.5567033, -0.3355822, -0.6958589, -0.30536264, 9.712080001831055, 0.49747931957244873, -1.848050594329834, 5.304435729980469, 0.2752661108970642, -0.40275973081588745, 
10, 2510409929, 0.55688596, -0.33528244, -0.69599336, -0.30505267, 9.671725273132324, 0.5140436887741089, -1.857232928276062, 4.142642021179199, -0.12203169614076614, -0.4013766050338745, 
11, 2510426596, 0.5570977, -0.3349571, -0.6961272, -0.3047177, 9.627060890197754, 0.37409597635269165, -1.8942557573318481, 4.114923000335693, -0.13762983679771423, -0.23636677861213684, 
12, 2510443263, 0.5573714, -0.3346417, -0.6962801, -0.30421382, 9.631712913513184, 0.2523943781852722, -1.9976948499679565, 4.165322780609131, -0.23292188346385956, 0.17083029448986053, 
13, 2510459930, 0.5576485, -0.33448315, -0.69638556, -0.3036392, 9.691301345825195, 0.23131366074085236, -1.926438808441162, 4.510377883911133, -0.032604970037937164, 0.41575178503990173, 
14, 2510476597, 0.5579054, -0.33449477, -0.69637877, -0.3031691, 9.685114860534668, 0.24075008928775787, -1.7922049760818481, 3.1600821018218994, 0.22254876792430878, 0.5279161334037781, 
15, 2510493264, 0.5582662, -0.3344342, -0.6963858, -0.3025554, 9.658241271972656, 0.37477922439575195, -1.9350427389144897, 4.486583232879639, 0.1697673797607422, 0.659174919128418, 
16, 2510509931, 0.55863935, -0.33424622, -0.696485, -0.30184478, 9.66199779510498, 0.35608169436454773, -1.9778399467468262, 5.703980445861816, 0.03586418181657791, 0.43461549282073975, 
17, 2510526598, 0.55894655, -0.3340211, -0.69662476, -0.30120224, 9.644766807556152, 0.34368789196014404, -1.869044303894043, 5.323478698730469, -0.041031546890735626, -0.06213641166687012, 
18, 2510543265, 0.55921817, -0.33381355, -0.69678706, -0.30055222, 9.70960521697998, 0.30565357208251953, -1.9513663053512573, 5.133016109466553, -0.42635542154312134, 0.07171556353569031, 
19, 2510559932, 0.5594521, -0.33383814, -0.6967835, -0.30009708, 9.660408973693848, 0.17491522431373596, -1.9020246267318726, 4.2130584716796875, 0.11880449950695038, 0.5219995975494385, 
20, 2510576599, 0.55982226, -0.33364454, -0.69691765, -0.29930946, 9.653069496154785, 0.1997198462486267, -1.8980478048324585, 6.378574848175049, -0.12492596358060837, 0.7700075507164001, 
21, 2510593266, 0.5602097, -0.33339533, -0.6970975, -0.2984427, 9.630921363830566, 0.22408932447433472, -1.9397519826889038, 7.147775173187256, -0.29720979928970337, 0.6986504793167114, 
22, 2510609933, 0.56057274, -0.33307895, -0.69735354, -0.2975143, 9.620626449584961, 0.20137649774551392, -1.9517796039581299, 7.59568452835083, -0.6843585968017578, 0.4612143337726593, 
23, 2510626600, 0.56091946, -0.3327299, -0.6976152, -0.296637, 9.645893096923828, 0.2146366983652115, -1.954901933670044, 7.306939125061035, -0.5657845139503479, 0.11345785856246948, 
24, 2510643267, 0.5611703, -0.33243242, -0.6978866, -0.29585624, 9.65733814239502, 0.3670337498188019, -1.878300428390503, 7.070034980773926, -0.8936528563499451, -0.3044838309288025, 
25, 2510659934, 0.5613838, -0.33206233, -0.69819695, -0.29513395, 9.617177963256836, 0.46942129731178284, -1.9128490686416626, 6.363962650299072, -1.0220301151275635, -0.7136659622192383, 
26, 2510676601, 0.56151855, -0.33177528, -0.69843704, -0.2946324, 9.630163192749023, 0.37821322679519653, -2.0276687145233154, 5.042731285095215, -0.788749635219574, -0.9947397112846375, 
27, 2510693268, 0.56157655, -0.33155826, -0.69865656, -0.2942449, 9.661134719848633, 0.24323536455631256, -1.9570449590682983, 3.6826584339141846, -0.900901198387146, -1.0030062198638916, 
28, 2510709935, 0.56161356, -0.3314085, -0.6988169, -0.29396194, 9.674504280090332, 0.27162012457847595, -1.881363868713379, 2.5551486015319824, -0.6736972332000732, -0.9283258318901062, 
29, 2510726602, 0.5615335, -0.3315407, -0.69884604, -0.29389668, 9.660568237304688, 0.3638208210468292, -2.035327434539795, 1.867690920829773, -0.7723190188407898, -0.7071986794471741, 
30, 2510743269, 0.56143254, -0.33179298, -0.69878095, -0.2939594, 9.673876762390137, 0.509566605091095, -1.967089295387268, 0.3591476380825043, -0.4162575900554657, -0.3190189599990845, 
31, 2510759936, 0.5611973, -0.33232006, -0.69853497, -0.29439786, 9.661320686340332, 0.6118096709251404, -1.9912912845611572, -3.541365385055542, -0.07409753650426865, -0.07071665674448013, 
32, 2510776603, 0.56097555, -0.33283424, -0.6982444, -0.29492813, 9.843100547790527, 0.8699560761451721, -1.9371739625930786, -5.185631275177002, 0.36727333068847656, 0.074456125497818, 
33, 2510793270, 0.56051606, -0.33364093, -0.6977726, -0.2960052, 9.808037757873535, 1.0497652292251587, -1.9332520961761475, -8.886296272277832, 0.5878627896308899, -0.6037490963935852, 
34, 2510809937, 0.5598746, -0.33443764, -0.69731563, -0.29739362, 9.698479652404785, 1.0861332416534424, -2.0701308250427246, -11.802721977233887, 0.32391756772994995, -1.7172683477401733, 
35, 2510826604, 0.5590579, -0.335424, -0.69673157, -0.29918253, 9.606189727783203, 0.9334554672241211, -2.083197593688965, -14.024474143981934, 0.5948746204376221, -2.346266031265259, 
36, 2510843271, 0.5582161, -0.33647746, -0.69600713, -0.3012506, 9.689251899719238, 0.6554187536239624, -1.9546263217926025, -15.74863338470459, 1.582091212272644, -2.6901040077209473, 
37, 2510859938, 0.55733883, -0.33749723, -0.695388, -0.30315793, 9.614261627197266, 0.4879870116710663, -1.9907389879226685, -14.76839542388916, 0.6946616768836975, -2.5036048889160156, 
38, 2510876605, 0.556579, -0.33832225, -0.69486815, -0.30482173, 9.627758979797363, 0.35706597566604614, -2.099972724914551, -13.308533668518066, 0.6885530352592468, -2.3386330604553223, 
39, 2510893272, 0.5558926, -0.33912915, -0.69435495, -0.30634317, 9.565387725830078, 0.3060978055000305, -2.0111405849456787, -12.38489818572998, 0.7677986025810242, -1.8252259492874146, 
40, 2510909939, 0.5551844, -0.3401973, -0.6937002, -0.30792272, 9.572918891906738, 0.34021487832069397, -2.0028440952301025, -11.921334266662598, 0.9136502742767334, -1.0252768993377686, 
41, 2510926606, 0.554588, -0.3410413, -0.6931999, -0.30918783, 9.610633850097656, 0.22008225321769714, -2.1303610801696777, -10.621193885803223, 0.5296837091445923, -0.768842339515686, 
42, 2510943273, 0.55401814, -0.3418893, -0.69272673, -0.31033096, 9.672484397888184, 0.20166540145874023, -2.054715871810913, -8.488510131835938, 0.3810338079929352, -0.6848068833351135, 
43, 2510959940, 0.5536005, -0.34242094, -0.6924783, -0.31104437, 9.663653373718262, 0.2919035255908966, -2.0500385761260986, -5.56610107421875, -0.12547661364078522, -0.6304566264152527, 
44, 2510976607, 0.55324036, -0.34281677, -0.69229347, -0.3116596, 9.616411209106445, 0.3602239489555359, -1.986790657043457, -4.76325798034668, -0.04213288798928261, -0.9086617827415466, 
45, 2510993274, 0.5529091, -0.3430662, -0.6921967, -0.31218746, 9.619579315185547, 0.39390993118286133, -2.067643642425537, -4.056462287902832, -0.15868347883224487, -1.3596885204315186, 
46, 2511009941, 0.5525816, -0.34335393, -0.6920607, -0.3127517, 9.624677658081055, 0.43928587436676025, -1.9543845653533936, -3.759061336517334, 0.06855881214141846, -1.3845715522766113, 
47, 2511026608, 0.5523482, -0.34350365, -0.69204247, -0.31304002, 9.633804321289062, 0.4024590253829956, -2.1222076416015625, -1.3361378908157349, -0.2892954349517822, -1.1094781160354614, 
48, 2511043275, 0.5521713, -0.3435255, -0.69212437, -0.31314716, 9.636148452758789, 0.3192824721336365, -2.0442397594451904, -0.3873152434825897, -0.5671548247337341, -1.0244439840316772, 
49, 2511059942, 0.5519587, -0.34362972, -0.692163, -0.31332204, 9.589546203613281, 0.2627561688423157, -2.0869455337524414, -0.42683565616607666, -0.5389296412467957, -1.062325119972229, 
50, 2511076609, 0.5518689, -0.34352598, -0.692319, -0.3132495, 9.606861114501953, 0.409965455532074, -2.122720956802368, 1.6312918663024902, -0.5438856482505798, -1.086708426475525, 
51, 2511093276, 0.5518035, -0.3434328, -0.6924561, -0.31316355, 9.682379722595215, 0.611949622631073, -2.063988208770752, 1.9428322315216064, -0.375853568315506, -0.9602969884872437, 
52, 2511109943, 0.55176586, -0.34323296, -0.69265383, -0.3130119, 9.63827896118164, 0.5793875455856323, -2.0779030323028564, 1.8906463384628296, -0.448375940322876, -1.0867596864700317, 
53, 2511126610, 0.55164194, -0.34318805, -0.69273174, -0.31310686, 9.671036720275879, 0.4912124276161194, -2.044450283050537, 0.9211799502372742, -0.07825960218906403, -1.423143982887268, 
54, 2511143277, 0.5515965, -0.342948, -0.69290334, -0.31306997, 9.672527313232422, 0.501513659954071, -2.0439679622650146, 1.8368465900421143, -2.945460146293044E-4, -1.740177869796753, 
55, 2511159944, 0.5515666, -0.34268254, -0.6930994, -0.31298003, 9.629698753356934, 0.6214145421981812, -2.0489678382873535, 2.4823765754699707, -0.07924570143222809, -1.7262064218521118, 
56, 2511176611, 0.5514628, -0.34258917, -0.6931977, -0.31304666, 9.636292457580566, 0.6522743105888367, -2.0719590187072754, 1.9466739892959595, 0.01232611108571291, -1.6609066724777222, 
57, 2511193278, 0.5513738, -0.34249753, -0.69325894, -0.31316847, 9.650555610656738, 0.527997612953186, -2.06310772895813, 0.6106515526771545, 0.29210641980171204, -1.5162333250045776, 
58, 2511209945, 0.5513405, -0.3424, -0.6933388, -0.31315702, 9.647851943969727, 0.4465565085411072, -2.112363815307617, 1.378238558769226, 0.1856984943151474, -0.9503976702690125, 
59, 2511226612, 0.55130976, -0.34237954, -0.6933802, -0.3131417, 9.691975593566895, 0.44294145703315735, -2.0670533180236816, 1.3481950759887695, 0.1965198516845703, -0.5496613383293152, 
60, 2511243279, 0.5513772, -0.34234077, -0.6933641, -0.31310114, 9.654202461242676, 0.47727322578430176, -2.068390130996704, 1.5850355625152588, 0.8595558404922485, -0.19698728621006012, 
61, 2511259946, 0.5514578, -0.3423276, -0.6933474, -0.31301048, 9.636492729187012, 0.544167697429657, -2.003417730331421, 1.5262929201126099, 0.7381772994995117, 0.18204867839813232, 
62, 2511276613, 0.55157, -0.34223327, -0.69340867, -0.3127804, 9.618992805480957, 0.5052855610847473, -2.0553483963012695, 1.9279513359069824, 0.38373586535453796, 0.3754245638847351, 
63, 2511293280, 0.5516721, -0.34216377, -0.6934293, -0.31263062, 9.63119125366211, 0.4364607632160187, -2.106696367263794, 1.3508840799331665, 0.6271076798439026, 0.26018017530441284, 
64, 2511309947, 0.5517603, -0.34212166, -0.6934451, -0.31248564, 9.616704940795898, 0.4542534649372101, -2.048978328704834, 2.5434625148773193, 0.6198849678039551, 0.06789286434650421, 
65, 2511326614, 0.5519184, -0.3419438, -0.69351137, -0.3122537, 9.663792610168457, 0.5277187824249268, -1.990370512008667, 2.734943389892578, 0.788224458694458, -0.02411435730755329, 
66, 2511343281, 0.55200666, -0.3418378, -0.6935498, -0.3121283, 9.658512115478516, 0.5389834642410278, -2.0502936840057373, 2.693617105484009, 0.7055850625038147, -0.36008894443511963, 
67, 2511359948, 0.552124, -0.3416568, -0.69360554, -0.31199574, 9.65597152709961, 0.5548916459083557, -1.9810776710510254, 2.861111640930176, 0.9070929884910583, -0.6140516996383667, 
68, 2511376615, 0.55222064, -0.34146124, -0.69369745, -0.31183445, 9.638622283935547, 0.5745244026184082, -2.1108858585357666, 3.0130205154418945, 0.6236629486083984, -0.6853318214416504, 
69, 2511393282, 0.5523095, -0.34129322, -0.69378924, -0.31165662, 9.597599029541016, 0.5121435523033142, -2.046907424926758, 3.0097804069519043, 0.4979557991027832, -0.506747305393219, 
70, 2511409949, 0.55246717, -0.3410804, -0.69390357, -0.3113555, 9.577058792114258, 0.4933604896068573, -2.0784912109375, 3.662827730178833, 0.5314443707466125, -0.09398581087589264, 
71, 2511426616, 0.5526014, -0.34094495, -0.69400114, -0.31104782, 9.58446979522705, 0.4363669455051422, -2.0351455211639404, 3.7108895778656006, 0.33078160881996155, 0.2045750468969345, 
72, 2511443283, 0.5526959, -0.34086105, -0.69410694, -0.3107357, 9.511504173278809, 0.28878524899482727, -2.0284225940704346, 3.4591293334960938, -0.011487293988466263, 0.357546865940094, 
73, 2511459950, 0.55288106, -0.34056348, -0.6943728, -0.31013805, 9.506230354309082, 0.12802191078662872, -2.078854560852051, 5.437608242034912, -0.442139208316803, 0.36576852202415466, 
74, 2511476617, 0.5530939, -0.34021103, -0.694723, -0.30936012, 9.535982131958008, -0.007067210040986538, -2.0319488048553467, 8.140632629394531, -0.8497654795646667, 0.33133235573768616, 
75, 2511493284, 0.55351454, -0.33945242, -0.69535476, -0.3080188, 9.600390434265137, 0.05039622262120247, -1.9914554357528687, 13.00652027130127, -1.4093396663665771, 0.3535963296890259, 
76, 2511509951, 0.554074, -0.33849785, -0.69610995, -0.30635303, 9.680238723754883, 0.17411194741725922, -1.9139233827590942, 15.754403114318848, -1.5710972547531128, 0.6386339664459229, 
77, 2511526618, 0.5545981, -0.33774507, -0.6966912, -0.30491135, 9.721481323242188, 0.3104516863822937, -2.010702610015869, 14.057531356811523, -0.9688647985458374, 0.9310157299041748, 
78, 2511543285, 0.5551517, -0.33694777, -0.6972802, -0.3034358, 9.679224967956543, 0.4922558069229126, -1.9988009929656982, 14.042824745178223, -0.8739186525344849, 0.9647797346115112, 
79, 2511559952, 0.5556318, -0.3362995, -0.6977834, -0.30211672, 9.70759105682373, 0.6066063046455383, -1.9682567119598389, 13.711676597595215, -0.7883977293968201, 0.8610866069793701, 
80, 2511576619, 0.55614483, -0.33534282, -0.6984897, -0.30060002, 9.76449966430664, 0.762410581111908, -1.9984896183013916, 13.909749031066895, -1.3575637340545654, 0.2526630759239197, 
81, 2511593286, 0.556521, -0.33456028, -0.6990635, -0.29943982, 9.726422309875488, 0.8804858922958374, -2.0486888885498047, 12.233073234558105, -0.9936579465866089, -0.48336315155029297, 
82, 2511609953, 0.55673957, -0.33396468, -0.69948167, -0.29872084, 9.8126220703125, 1.0624935626983643, -1.913954257965088, 9.723388671875, -0.4803278148174286, -1.4004130363464355, 
83, 2511626620, 0.5569471, -0.33343434, -0.69974816, -0.29830223, 9.734518051147461, 1.106614589691162, -1.9668455123901367, 7.191708564758301, 0.5593110918998718, -1.7442125082015991, 
84, 2511643287, 0.5569348, -0.33325505, -0.69981796, -0.2983618, 9.624762535095215, 0.9970992207527161, -2.0528080463409424, 3.124403953552246, 0.64198237657547, -1.919979214668274, 
85, 2511659954, 0.5568349, -0.33330742, -0.6997451, -0.29866037, 9.585128784179688, 0.7569407820701599, -2.0378119945526123, 1.036994218826294, 0.8607660531997681, -1.6108531951904297, 
86, 2511676621, 0.55680954, -0.33320636, -0.6998043, -0.29868177, 9.684391975402832, 0.8505580425262451, -2.1187469959259033, 1.5574183464050293, 0.3033183515071869, -1.0277414321899414, 
87, 2511693288, 0.5565994, -0.33357862, -0.6996087, -0.29911593, 9.635251998901367, 0.906234860420227, -2.053598642349243, -1.17009699344635, 0.4680081009864807, -0.5091484785079956, 
88, 2511709955, 0.5563291, -0.33411813, -0.6993, -0.29973772, 9.596661567687988, 0.8834414482116699, -1.9961469173431396, -4.9855122566223145, 0.6042996644973755, 0.14726662635803223, 
89, 2511726622, 0.5559991, -0.3348608, -0.69887847, -0.30050373, 9.670344352722168, 0.8737831711769104, -2.107783555984497, -6.876307487487793, 0.6536683440208435, 0.7555684447288513, 
90, 2511743289, 0.55560434, -0.3357507, -0.6983468, -0.30147544, 9.657787322998047, 0.722504734992981, -2.0371181964874268, -8.3109130859375, 0.9622180461883545, 0.7294626235961914, 
91, 2511759956, 0.555186, -0.336619, -0.69783145, -0.30246946, 9.628999710083008, 0.4785538613796234, -2.0491514205932617, -9.019118309020996, 0.8477229475975037, 0.6110615730285645, 
92, 2511776623, 0.5548316, -0.33733237, -0.697433, -0.3032425, 9.536944389343262, 0.22267580032348633, -2.077122688293457, -7.112480640411377, 0.5132080912590027, 0.5994845032691956, 
93, 2511793290, 0.55457413, -0.33787203, -0.6971529, -0.3037565, 9.590391159057617, 0.22174547612667084, -2.0562098026275635, -4.451794624328613, 0.3071538805961609, 0.5994973182678223, 
94, 2511809957, 0.554436, -0.3382098, -0.6969915, -0.30400294, 9.650298118591309, 0.3402072787284851, -2.0718514919281006, -2.05694317817688, 0.22055737674236298, 0.6373016238212585, 
95, 2511826624, 0.5542967, -0.33854914, -0.69684875, -0.3042067, 9.607110977172852, 0.3609826862812042, -2.116380214691162, -1.3408888578414917, 0.06751508265733719, 0.6486672163009644, 
96, 2511843291, 0.5541515, -0.33884192, -0.6967425, -0.30438846, 9.593939781188965, 0.32522648572921753, -2.0502102375030518, -1.5400276184082031, -0.07353406399488449, 0.5147704482078552, 
97, 2511859958, 0.554033, -0.33909792, -0.69663554, -0.30456418, 9.593049049377441, 0.3924541175365448, -2.1223654747009277, -1.1052263975143433, 0.1310281753540039, 0.36078688502311707, 
98, 2511876625, 0.55394554, -0.33930716, -0.6965579, -0.30466747, 9.64938735961914, 0.501960039138794, -2.0738747119903564, 0.032809868454933167, 0.12878064811229706, 0.3032159209251404, 
99, 2511893292, 0.55392957, -0.33940485, -0.69652563, -0.30466142, 9.612970352172852, 0.5089869499206543, -2.0313167572021484, 0.8092588186264038, 0.258957177400589, 0.3200691044330597, 
100, 2511909959, 0.55384505, -0.3395411, -0.6965171, -0.30468264, 9.623974800109863, 0.43548548221588135, -2.101565361022949, 0.716035008430481, -0.16293518245220184, 0.14195197820663452, 
101, 2511926626, 0.5537263, -0.3397989, -0.6964417, -0.30478328, 9.645010948181152, 0.4290127754211426, -2.096534490585327, 1.5605883598327637, -0.041940800845623016, 0.10822006314992905, 
102, 2511943293, 0.5537189, -0.33972886, -0.6965486, -0.3046306, 9.655172348022461, 0.48376139998435974, -2.138592481613159, 2.184058904647827, -0.22617293894290924, -0.18292589485645294, 
103, 2511959960, 0.55372167, -0.3396465, -0.696677, -0.30442402, 9.620295524597168, 0.5465656518936157, -2.1020665168762207, 2.627638578414917, -0.3484223484992981, -0.08128190785646439, 
104, 2511976627, 0.5536778, -0.33965495, -0.6967632, -0.3042967, 9.576985359191895, 0.6185533404350281, -2.1294171810150146, 1.8015779256820679, -0.40620458126068115, 0.0394243448972702, 
105, 2511993294, 0.5535541, -0.33989725, -0.6966922, -0.30441386, 9.634810447692871, 0.6688830852508545, -2.1001455783843994, -0.6642140746116638, -0.09680318832397461, 0.4161679744720459, 
106, 2512009961, 0.55339557, -0.34020036, -0.6965812, -0.3046174, 9.644233703613281, 0.6499340534210205, -2.1138405799865723, -1.9468084573745728, -0.05648880824446678, 0.5114407539367676, 
107, 2512026628, 0.55316913, -0.34067598, -0.69637716, -0.3049634, 9.633686065673828, 0.6292306780815125, -2.0326156616210938, -1.977684497833252, 0.03089531697332859, 0.5360929369926453, 
108, 2512043295, 0.55300754, -0.3410157, -0.6962087, -0.30526134, 9.624645233154297, 0.556770920753479, -2.0965304374694824, -2.2550060749053955, 0.31476086378097534, 0.3956073224544525, 
109, 2512059962, 0.55283445, -0.34134808, -0.69607675, -0.30550444, 9.652861595153809, 0.5810486078262329, -2.129157543182373, -1.5669466257095337, 0.029461011290550232, 0.38995975255966187, 
110, 2512076629, 0.55269116, -0.34159857, -0.69595826, -0.30575335, 9.651474952697754, 0.6323838233947754, -2.117363929748535, -1.9350073337554932, 0.27554142475128174, 0.1719636619091034, 
111, 2512093296, 0.55241853, -0.34207344, -0.6957577, -0.30617115, 9.585506439208984, 0.5670490264892578, -2.172757625579834, -2.718532085418701, -0.03628038987517357, 0.2509404420852661, 
112, 2512109963, 0.5521423, -0.34255797, -0.695531, -0.30664238, 9.576708793640137, 0.46589747071266174, -2.2181477546691895, -3.6304337978363037, 0.13412730395793915, 0.27133455872535706, 
113, 2512126630, 0.5518621, -0.34302008, -0.6953336, -0.30707812, 9.5864839553833, 0.42385926842689514, -2.19421124458313, -3.8112986087799072, -0.04360562935471535, 0.3209976255893707, 
114, 2512143297, 0.55166537, -0.34334335, -0.6952068, -0.30735707, 9.63106918334961, 0.45755672454833984, -2.0836968421936035, -2.1924216747283936, 0.021098461002111435, 0.2574780583381653, 
115, 2512159964, 0.5514997, -0.34358326, -0.69513243, -0.30755422, 9.652697563171387, 0.49029645323753357, -2.068553924560547, -1.6934475898742676, -0.0628279522061348, 0.19052647054195404, 
116, 2512176631, 0.5513321, -0.34378353, -0.6950602, -0.30779427, 9.600685119628906, 0.47327250242233276, -2.124199390411377, -2.0969631671905518, 0.08921543508768082, -0.09839118272066116, 
117, 2512193298, 0.5511427, -0.34398368, -0.69499296, -0.30806148, 9.625186920166016, 0.4966617822647095, -2.09731125831604, -1.236991047859192, 0.08518144488334656, -0.4780994951725006, 
118, 2512209965, 0.5509511, -0.34417266, -0.6949577, -0.30827242, 9.655394554138184, 0.5695109963417053, -2.1600756645202637, -0.06013860926032066, -0.11153049021959305, -0.5671420097351074, 
119, 2512226632, 0.55077803, -0.34423018, -0.69500595, -0.30840877, 9.587198257446289, 0.5742284059524536, -2.141848087310791, 0.00557716516777873, -0.28033098578453064, -0.8533254861831665, 
120, 2512243299, 0.5505762, -0.34435946, -0.6950189, -0.30859566, 9.551408767700195, 0.5645125508308411, -2.159243106842041, -0.8475626111030579, -0.32051727175712585, -0.6323902606964111, 
121, 2512259966, 0.5503768, -0.344502, -0.69503474, -0.30875656, 9.640053749084473, 0.6229434013366699, -2.1419448852539062, -0.7289502024650574, -0.39967334270477295, -0.4764218032360077, 
122, 2512276633, 0.5502314, -0.34458572, -0.6950605, -0.3088644, 9.642471313476562, 0.6327149868011475, -2.126465082168579, -0.8022409677505493, -0.20923013985157013, -0.3079286515712738, 
123, 2512293300, 0.5499778, -0.34488305, -0.6949819, -0.309161, 9.620884895324707, 0.5270976424217224, -2.0859313011169434, -1.762665867805481, -0.27363327145576477, -0.23795479536056519, 
124, 2512309967, 0.5497704, -0.34515527, -0.6948743, -0.3094679, 9.61609172821045, 0.4664663076400757, -2.1077139377593994, -2.302043914794922, 0.10501206666231155, -0.09406264126300812, 
125, 2512326634, 0.54960066, -0.34537748, -0.6947997, -0.30968857, 9.632085800170898, 0.5027012825012207, -2.16662859916687, -1.332769751548767, 0.0745137482881546, -0.05363299697637558, 
126, 2512343301, 0.54949564, -0.34548736, -0.6948084, -0.30973288, 9.623705863952637, 0.6554722785949707, -2.183417558670044, -0.08034703880548477, -0.1198546290397644, 0.08801163733005524, 
127, 2512359968, 0.5493572, -0.34564865, -0.69477695, -0.30986887, 9.589468002319336, 0.6144566535949707, -2.112092971801758, -0.9795832633972168, -0.018479561433196068, 0.04429716244339943, 
128, 2512376635, 0.5492129, -0.34576634, -0.6947784, -0.30999035, 9.561747550964355, 0.5558938980102539, -2.158024549484253, -1.5599863529205322, -0.1521330326795578, -0.007357248570770025, 
129, 2512393302, 0.54902756, -0.34595335, -0.6947612, -0.31014854, 9.62092113494873, 0.5739720463752747, -2.1217079162597656, -1.0156716108322144, -0.276002436876297, -0.09501031786203384, 
130, 2512409969, 0.5488126, -0.34615546, -0.694721, -0.31039327, 9.604765892028809, 0.6061652898788452, -2.161862850189209, -1.1971375942230225, -0.13166208565235138, -0.4449182450771332, 
131, 2512426636, 0.5485787, -0.34633866, -0.69468135, -0.310691, 9.614463806152344, 0.5596165657043457, -2.1019809246063232, -1.764983892440796, -0.0704861432313919, -0.6968574523925781, 
132, 2512443303, 0.54829973, -0.3466147, -0.6946, -0.31105757, 9.588235855102539, 0.5225319266319275, -2.1441962718963623, -2.3882691860198975, -0.1479133516550064, -0.5612126588821411, 
133, 2512459970, 0.5480423, -0.34687343, -0.6945161, -0.3114096, 9.594315528869629, 0.47494882345199585, -2.112591505050659, -2.472534418106079, -0.041812729090452194, -0.48064789175987244, 
134, 2512476637, 0.5477047, -0.34725547, -0.69436216, -0.31192115, 9.597253799438477, 0.6484853029251099, -2.205505609512329, -3.8351306915283203, -0.03117065504193306, -0.5457298159599304, 
135, 2512493304, 0.5472625, -0.34780696, -0.6941039, -0.31265607, 9.593297004699707, 0.7339078187942505, -2.199584722518921, -5.763036727905273, 0.05440777912735939, -0.59892737865448, 
136, 2512509971, 0.5466892, -0.34849894, -0.6937512, -0.31366992, 9.597975730895996, 0.5986720323562622, -2.1722090244293213, -8.63118839263916, 0.12891516089439392, -0.9162178039550781, 
137, 2512526638, 0.5459483, -0.34948266, -0.6932677, -0.31493202, 9.601189613342285, 0.37854117155075073, -2.1055963039398193, -8.786360740661621, -0.049355678260326385, -1.0989898443222046, 
138, 2512543305, 0.5454917, -0.34988457, -0.6930839, -0.31568077, 9.63702392578125, 0.24212709069252014, -2.136608839035034, -5.771207809448242, 0.04307416081428528, -1.4333124160766602, 
139, 2512559972, 0.5452527, -0.34986785, -0.6931299, -0.316011, 9.63879108428955, 0.1909247785806656, -2.0976197719573975, -1.860672950744629, 0.08420815318822861, -1.8129563331604004, 
140, 2512576639, 0.54513067, -0.34955153, -0.6934287, -0.31591612, 9.612631797790527, 0.208150252699852, -2.1381912231445312, 2.95247220993042, -0.629150390625, -2.2094414234161377, 
141, 2512593306, 0.5451235, -0.3489789, -0.69393766, -0.3154437, 9.598784446716309, 0.3395063579082489, -2.1692070960998535, 6.031529903411865, -1.2403721809387207, -2.2067906856536865, 
142, 2512609973, 0.5451364, -0.34842286, -0.694448, -0.31491226, 9.577778816223145, 0.4812174141407013, -2.274609327316284, 6.669272422790527, -1.299601435661316, -1.9619842767715454, 
143, 2512626640, 0.54517984, -0.3479038, -0.69493216, -0.31434292, 9.547886848449707, 0.6152854561805725, -2.244664192199707, 6.594560623168945, -1.2228145599365234, -1.4953081607818604, 
144, 2512643307, 0.5452356, -0.34748897, -0.69531345, -0.31386125, 9.597127914428711, 0.676520049571991, -2.263906955718994, 5.961361885070801, -0.7607099413871765, -1.1322349309921265, 
145, 2512659974, 0.545298, -0.34707043, -0.6956824, -0.3133982, 9.60397720336914, 0.729049801826477, -2.180278778076172, 4.903398036956787, -0.6806318759918213, -0.9538809657096863, 
146, 2512676641, 0.5453046, -0.34678718, -0.6959726, -0.31305575, 9.564396858215332, 0.6569861173629761, -2.191789150238037, 4.541970729827881, -0.5895788669586182, -0.9086235165596008, 
147, 2512693308, 0.54523957, -0.34661794, -0.69622225, -0.3128013, 9.640617370605469, 0.658331036567688, -2.212190628051758, 4.157549858093262, -0.7668827176094055, -0.9050760865211487, 
148, 2512709975, 0.5452651, -0.34636718, -0.6964855, -0.31244835, 9.610970497131348, 0.6922374963760376, -2.2282071113586426, 5.085370063781738, -0.44528961181640625, -0.7374025583267212, 
149, 2512726642, 0.54535353, -0.34604186, -0.6968025, -0.31194705, 9.615361213684082, 0.679046630859375, -2.2183070182800293, 5.853668212890625, -0.5626214146614075, -0.41869083046913147, 
150, 2512743309, 0.5453971, -0.34584704, -0.6970527, -0.3115276, 9.605281829833984, 0.695556640625, -2.2539796829223633, 5.50320291519165, -0.5601369142532349, -0.20668169856071472, 
151, 2512759976, 0.545456, -0.34562907, -0.697314, -0.31108138, 9.55608081817627, 0.6582748293876648, -2.2611801624298096, 4.541714668273926, -0.6109782457351685, 0.07252877205610275, 
152, 2512776643, 0.54552525, -0.34546265, -0.6975375, -0.31064358, 9.573382377624512, 0.7050608396530151, -2.201080083847046, 4.265820503234863, -0.4988841712474823, 0.39652302861213684, 
153, 2512793310, 0.54556036, -0.34536162, -0.6977045, -0.3103187, 9.587158203125, 0.7210420966148376, -2.2728703022003174, 3.255617380142212, -0.322483092546463, 0.36521148681640625, 
154, 2512809977, 0.54558086, -0.34528497, -0.69783306, -0.31007877, 9.569758415222168, 0.8804299235343933, -2.1845293045043945, 3.092010259628296, -0.06449278444051743, 0.13324368000030518, 
155, 2512826644, 0.5455439, -0.34524268, -0.6979467, -0.30993512, 9.579390525817871, 0.916986882686615, -2.1087212562561035, 2.364788770675659, -0.12465699762105942, -0.13920503854751587, 
156, 2512843311, 0.54548717, -0.3451941, -0.6980166, -0.30993178, 9.671853065490723, 0.843277096748352, -2.211702823638916, 1.132894515991211, 0.26092299818992615, -0.5128558874130249, 
157, 2512859978, 0.54532504, -0.34527415, -0.6980122, -0.31013778, 9.592147827148438, 0.7446921467781067, -2.2481374740600586, 0.14269474148750305, 0.31486329436302185, -0.9206740856170654, 
158, 2512876645, 0.5451959, -0.34522521, -0.6980817, -0.31026274, 9.557703971862793, 0.668043315410614, -2.300051212310791, 0.3555426597595215, 0.227030947804451, -1.1212278604507446, 
159, 2512893312, 0.54508114, -0.34513852, -0.6982089, -0.31027454, 9.556814193725586, 0.6657533645629883, -2.2823092937469482, 1.5132238864898682, -0.08028940856456757, -1.0551729202270508, 
160, 2512909979, 0.5449738, -0.34509495, -0.6983257, -0.31024876, 9.619909286499023, 0.7093625664710999, -2.258002281188965, 1.6337765455245972, -0.1721813827753067, -0.6855238676071167, 
161, 2512926646, 0.5448878, -0.34508723, -0.6983971, -0.31024784, 9.653555870056152, 0.7633816003799438, -2.2368032932281494, 0.900664210319519, 0.05933821573853493, -0.3477948307991028, 
162, 2512943313, 0.54475874, -0.3452372, -0.698363, -0.31038436, 9.670940399169922, 0.8747549057006836, -2.1394879817962646, -0.20459423959255219, 0.2713281214237213, -0.04491186514496803, 
163, 2512959980, 0.5446344, -0.3454728, -0.6982301, -0.31063923, 9.6138916015625, 0.851845920085907, -2.2054669857025146, -1.7624611854553223, 0.7280986309051514, 0.29374566674232483, 
164, 2512976647, 0.5444415, -0.34588772, -0.69800395, -0.31102383, 9.530109405517578, 0.7129732370376587, -2.2319347858428955, -2.6089608669281006, 0.7263569235801697, 0.5724630355834961, 
165, 2512993314, 0.544309, -0.34619656, -0.69784117, -0.31127748, 9.49726676940918, 0.5869453549385071, -2.2877352237701416, -1.973349690437317, 0.6549039483070374, 0.6930413246154785, 
166, 2513009981, 0.5441869, -0.34641635, -0.6977702, -0.31140548, 9.527388572692871, 0.5670245885848999, -2.2923922538757324, -1.3385709524154663, 0.22657634317874908, 0.6584961414337158, 
167, 2513026648, 0.54405516, -0.34663773, -0.6977273, -0.31148517, 9.55828857421875, 0.5893795490264893, -2.2741124629974365, -0.8064029812812805, -0.01804414391517639, 0.6961979269981384, 
168, 2513043315, 0.5439079, -0.34685403, -0.69769174, -0.31158134, 9.59618091583252, 0.6829579472541809, -2.197636365890503, -1.3886181116104126, -0.09650865197181702, 0.6729800701141357, 
169, 2513059982, 0.54375714, -0.3471365, -0.69757146, -0.31179935, 9.624030113220215, 0.7114337682723999, -2.2462499141693115, -2.0188827514648438, 0.37871578335762024, 0.6441529393196106, 
170, 2513076649, 0.543565, -0.3474489, -0.6974219, -0.31212035, 9.617597579956055, 0.6432901620864868, -2.2143425941467285, -2.586921215057373, 0.4858921468257904, 0.34372884035110474, 
171, 2513093316, 0.5433508, -0.3478209, -0.6972229, -0.31252363, 9.58441162109375, 0.5851281881332397, -2.1881113052368164, -2.009854316711426, 0.7216826677322388, 0.08509179204702377, 
172, 2513109983, 0.54314345, -0.34808403, -0.6971142, -0.31283313, 9.570784568786621, 0.5934706330299377, -2.220505952835083, -1.7419902086257935, 0.37818434834480286, -0.10984647274017334, 
173, 2513126650, 0.5429791, -0.34822968, -0.69708717, -0.31301662, 9.608550071716309, 0.6350544095039368, -2.256258487701416, -1.0572409629821777, 0.18846464157104492, -0.1551232933998108, 
174, 2513143317, 0.54277253, -0.34846634, -0.69701624, -0.3132692, 9.618435859680176, 0.6555390954017639, -2.2163596153259277, -1.3250218629837036, 0.16186586022377014, -0.09999197721481323, 
175, 2513159984, 0.54257834, -0.34878623, -0.69688475, -0.31354237, 9.596190452575684, 0.6312034726142883, -2.2313356399536133, -1.4795432090759277, 0.3420383930206299, 0.31385162472724915, 
176, 2513176651, 0.5424384, -0.34904617, -0.69676095, -0.31377, 9.594717025756836, 0.6277018785476685, -2.260768175125122, -1.7624096870422363, 0.5382060408592224, 0.4978916645050049, 
177, 2513193318, 0.5423137, -0.34925145, -0.69668186, -0.3139331, 9.595304489135742, 0.6182311177253723, -2.240504503250122, -1.8770520687103271, 0.36039629578590393, 0.5802685022354126, 
178, 2513209985, 0.5421248, -0.3495898, -0.6965366, -0.31420472, 9.569161415100098, 0.6644997000694275, -2.2139925956726074, -2.104851722717285, 0.3483903706073761, 0.5783156752586365, 
179, 2513226652, 0.54194885, -0.349921, -0.69640243, -0.31443694, 9.566362380981445, 0.6795677542686462, -2.2682957649230957, -1.7992407083511353, 0.2939440906047821, 0.6858952045440674, 
180, 2513243319, 0.54180825, -0.3502281, -0.69627416, -0.31462154, 9.564273834228516, 0.6185591816902161, -2.2156598567962646, -1.3588178157806396, 0.38127705454826355, 0.8096623420715332, 
181, 2513259986, 0.54164624, -0.35054597, -0.69615626, -0.31480676, 9.583466529846191, 0.5928037762641907, -2.1585423946380615, -1.5450221300125122, 0.21410296857357025, 0.8153867721557617, 
182, 2513276653, 0.5415207, -0.3508067, -0.6960691, -0.31492543, 9.555336952209473, 0.5295923352241516, -2.2683866024017334, -1.2808783054351807, 0.20435731112957, 0.8940817713737488, 
183, 2513293320, 0.5413947, -0.35106897, -0.69599384, -0.31501603, 9.570737838745117, 0.5523106455802917, -2.257026195526123, -0.6529958248138428, 0.12385021895170212, 0.8593572378158569, 
184, 2513309987, 0.5413508, -0.35111827, -0.6960363, -0.31494278, 9.593297958374023, 0.6323307156562805, -2.2220869064331055, 0.5349788665771484, 0.09232737869024277, 0.5344409346580505, 
185, 2513326654, 0.5412726, -0.35118827, -0.6960806, -0.3149009, 9.619757652282715, 0.7051959037780762, -2.1621642112731934, 0.706282913684845, -0.015085878781974316, 0.3268820345401764, 
186, 2513343321, 0.54117894, -0.3513096, -0.696064, -0.3149633, 9.604616165161133, 0.6810742020606995, -2.1731934547424316, 0.31972330808639526, 0.3064303696155548, 0.1926843523979187, 
187, 2513359988, 0.54104465, -0.35134587, -0.6961343, -0.3149981, 9.551877975463867, 0.5678588151931763, -2.146965265274048, 0.2436344027519226, -0.13681024312973022, -0.2618386447429657, 
188, 2513376655, 0.541025, -0.35118622, -0.6963241, -0.31479055, 9.542038917541504, 0.39672258496284485, -2.025291681289673, 2.6094346046447754, -0.20159754157066345, -0.326997309923172, 
189, 2513393322, 0.5412678, -0.35077366, -0.6965935, -0.3142366, 9.518819808959961, 0.20089486241340637, -2.0582687854766846, 5.898451328277588, 0.4536137282848358, 0.14104914665222168, 
190, 2513409989, 0.5419049, -0.35010928, -0.69679946, -0.31342182, 9.387632369995117, 0.058152955025434494, -1.9605339765548706, 9.254420280456543, 2.5090208053588867, 0.8006787300109863, 
191, 2513426656, 0.5428378, -0.3492412, -0.6970415, -0.31223527, 9.297109603881836, 0.020042497664690018, -2.198770523071289, 12.546079635620117, 3.322852611541748, 1.7374768257141113, 
192, 2513443323, 0.54400045, -0.3479559, -0.6975496, -0.3105073, 9.649544715881348, 0.30632200837135315, -2.4218382835388184, 18.542985916137695, 3.0770561695098877, 1.4097312688827515, 
193, 2513459990, 0.54535335, -0.34643587, -0.6981405, -0.30849904, 9.640990257263184, 0.5344339609146118, -2.6648824214935303, 20.566875457763672, 3.470039129257202, 1.7181024551391602, 
194, 2513476657, 0.5466747, -0.34507167, -0.6988217, -0.30613804, 9.628698348999023, 1.00111985206604, -2.6399343013763428, 22.267004013061523, 1.8619698286056519, 3.392421245574951, 
195, 2513493324, 0.54792756, -0.3442752, -0.69916296, -0.30400872, 9.805150985717773, 1.0985164642333984, -2.8382225036621094, 18.3115177154541, 2.1994292736053467, 5.891261577606201, 
196, 2513509991, 0.54894733, -0.3441646, -0.6990962, -0.30244347, 9.696325302124023, 1.062674641609192, -2.7131707668304443, 11.616034507751465, 2.5458528995513916, 7.573872089385986, 
197, 2513526658, 0.549945, -0.34447652, -0.69883645, -0.30087227, 9.725976943969727, 1.3305280208587646, -2.5490148067474365, 9.836577415466309, 2.3144164085388184, 10.004891395568848, 
198, 2513543325, 0.5509063, -0.3454558, -0.6980855, -0.299732, 9.734697341918945, 1.63868248462677, -2.2428205013275146, 3.690843343734741, 3.626594305038452, 12.833378791809082, 
199, 2513559992, 0.55142856, -0.34770083, -0.69656354, -0.29971653, 9.730622291564941, 1.6734185218811035, -1.9716521501541138, -9.40351676940918, 4.489079475402832, 15.701629638671875, 
200, 2513576659, 0.5517354, -0.350835, -0.6944509, -0.30040154, 9.723443031311035, 1.1827776432037354, -2.1700003147125244, -18.687131881713867, 5.4941816329956055, 18.537353515625, 
201, 2513593326, 0.5518458, -0.35464847, -0.69187754, -0.30165583, 9.605541229248047, 0.6327648162841797, -2.2515342235565186, -24.73427963256836, 6.2941389083862305, 20.219850540161133, 
202, 2513609993, 0.5516843, -0.35899392, -0.6889187, -0.303577, 9.552201271057129, 0.08682900667190552, -2.168461799621582, -31.526992797851562, 6.982288837432861, 20.648399353027344, 
203, 2513626660, 0.5513994, -0.36357743, -0.68567955, -0.30596384, 9.548114776611328, -0.4982363283634186, -2.111401319503784, -35.1258544921875, 8.121578216552734, 20.34200668334961, 
204, 2513643327, 0.5512921, -0.36762053, -0.6826725, -0.3080431, 9.523133277893066, -1.127311110496521, -2.1475703716278076, -31.5623722076416, 8.428426742553711, 18.91018295288086, 
205, 2513659994, 0.5515721, -0.3706427, -0.68022346, -0.30933598, 9.40674114227295, -1.4185564517974854, -2.337501287460327, -21.60768699645996, 8.31179428100586, 16.383506774902344, 
206, 2513676661, 0.5522497, -0.37244144, -0.6786094, -0.30951107, 9.570415496826172, -1.4776118993759155, -2.4686853885650635, -8.983726501464844, 6.775051593780518, 13.541855812072754, 
207, 2513693328, 0.55322284, -0.37337446, -0.6775684, -0.30892897, 9.595985412597656, -1.2349547147750854, -2.446112871170044, -0.43708738684654236, 5.904102325439453, 11.50200366973877, 
208, 2513709995, 0.55438286, -0.37373382, -0.6768522, -0.30798337, 9.526731491088867, -1.1241509914398193, -2.3627865314483643, 5.073814392089844, 5.846127510070801, 9.603551864624023, 
209, 2513726662, 0.5558946, -0.37355325, -0.67632234, -0.30663902, 9.506368637084961, -1.1094579696655273, -2.3832476139068604, 10.038021087646484, 6.912564754486084, 8.865983009338379, 
210, 2513743329, 0.5575048, -0.37304932, -0.67600656, -0.3050214, 9.482090950012207, -0.7221064567565918, -2.0976645946502686, 13.096671104431152, 6.5548858642578125, 8.034404754638672, 
211, 2513759996, 0.5590118, -0.3724265, -0.67591846, -0.30321386, 9.417988777160645, -0.6022549867630005, -2.3978443145751953, 14.64963436126709, 4.9726338386535645, 7.367602348327637, 
212, 2513776663, 0.5603863, -0.37199968, -0.67574215, -0.30158922, 9.273972511291504, -0.6037168502807617, -2.3543457984924316, 13.241148948669434, 4.760905742645264, 7.3479695320129395, 
213, 2513793330, 0.56172556, -0.3717149, -0.6755271, -0.2999262, 9.392398834228516, -0.8648233413696289, -2.136387348175049, 12.301725387573242, 4.3838090896606445, 8.234350204467773, 
214, 2513809997, 0.5632563, -0.37162665, -0.67505324, -0.29822692, 9.553643226623535, -0.7638748288154602, -2.189879894256592, 12.078475952148438, 5.7711615562438965, 10.220770835876465, 
215, 2513826664, 0.5646253, -0.37187728, -0.6744194, -0.29675588, 9.50374984741211, -0.3715527653694153, -2.3351712226867676, 9.043376922607422, 5.534523963928223, 10.939806938171387, 
216, 2513843331, 0.56584436, -0.3725344, -0.673588, -0.29549524, 9.41685676574707, -0.38722485303878784, -2.5263497829437256, 5.435531139373779, 5.348896026611328, 12.253418922424316, 
217, 2513859998, 0.56686646, -0.3740344, -0.6721976, -0.29480714, 9.272713661193848, -0.8377626538276672, -2.328260660171509, -1.954206109046936, 6.381717681884766, 14.917978286743164, 
218, 2513876665, 0.56786275, -0.37657475, -0.6698769, -0.29493824, 9.143754005432129, -1.408862829208374, -1.8589974641799927, -11.88550090789795, 9.920330047607422, 18.875892639160156, 
219, 2513893332, 0.5693789, -0.37957078, -0.66681963, -0.29510218, 9.039836883544922, -1.7303727865219116, -1.683316946029663, -14.339825630187988, 14.362204551696777, 23.82460594177246, 
220, 2513909999, 0.571794, -0.38267717, -0.6631309, -0.2947327, 9.165889739990234, -2.145226001739502, -1.4596413373947144, -10.479031562805176, 19.27941131591797, 29.683313369750977, 
221, 2513926666, 0.57467717, -0.38594422, -0.6589819, -0.29417044, 9.198577880859375, -1.8603509664535522, -0.9136267900466919, -9.50488567352295, 22.340618133544922, 33.183021545410156, 
222, 2513943333, 0.57818913, -0.3887131, -0.65498275, -0.29256982, 9.594093322753906, -1.1293330192565918, -0.980385959148407, -1.3461288213729858, 22.852989196777344, 35.9284553527832, 
223, 2513960000, 0.5821254, -0.39095297, -0.65101403, -0.29063135, 9.816346168518066, -0.7351772785186768, -1.3623780012130737, 4.778952121734619, 24.61122703552246, 35.438541412353516, 
224, 2513976667, 0.5860687, -0.3925799, -0.647322, -0.288754, 9.812859535217285, -0.5700549483299255, -1.7070281505584717, 6.532416343688965, 24.98434829711914, 31.889535903930664, 
225, 2513993334, 0.58945256, -0.39480662, -0.64330494, -0.28780615, 9.623387336730957, -0.8887261748313904, -1.5806443691253662, -1.7881922721862793, 25.083267211914062, 30.55081558227539, 
226, 2514010001, 0.592884, -0.39733782, -0.63898915, -0.28688726, 9.815335273742676, -1.2638063430786133, -1.1989939212799072, -3.9754931926727295, 26.038942337036133, 32.7477912902832, 
227, 2514026668, 0.596669, -0.40005487, -0.6344903, -0.28524452, 10.045849800109863, -0.9116086959838867, -1.52953040599823, -0.8064410090446472, 25.94492530822754, 37.69514083862305, 
228, 2514043335, 0.6005855, -0.40237474, -0.6303911, -0.28284076, 10.265758514404297, -0.21449175477027893, -1.553209662437439, 4.521493434906006, 23.694210052490234, 38.354923248291016, 
229, 2514060002, 0.6038476, -0.40441912, -0.62697923, -0.28055388, 10.687723159790039, 0.07191980630159378, -1.8249924182891846, 5.41294002532959, 18.75339698791504, 33.48152160644531, 
230, 2514076669, 0.6063126, -0.40601516, -0.6245772, -0.27828074, 10.89009952545166, 0.003166761714965105, -1.8673956394195557, 7.466087341308594, 11.883062362670898, 27.185075759887695, 
231, 2514093336, 0.60825986, -0.40712655, -0.6229811, -0.27597582, 10.599011421203613, -0.10470236092805862, -1.232442855834961, 8.916556358337402, 7.347838401794434, 22.151126861572266, 
232, 2514110003, 0.60994655, -0.4080107, -0.62156487, -0.27413443, 10.398362159729004, -0.27822044491767883, -0.9434501528739929, 8.446735382080078, 6.981033802032471, 18.22987937927246, 
233, 2514126670, 0.61165804, -0.40819466, -0.6206786, -0.27204746, 10.308667182922363, -0.24241800606250763, -1.088780403137207, 14.105203628540039, 5.402276515960693, 14.82522964477539, 
234, 2514143337, 0.613199, -0.4079241, -0.62033707, -0.26975363, 10.134041786193848, -0.06495600938796997, -0.5850326418876648, 15.519689559936523, 3.0200998783111572, 12.161885261535645, 
235, 2514160004, 0.6140899, -0.4085064, -0.61951077, -0.2687428, 10.054569244384766, -0.03150852769613266, -0.031279779970645905, 4.040046691894531, 4.239262104034424, 10.584554672241211, 
236, 2514176671, 0.61437654, -0.4102682, -0.6179066, -0.26909694, 10.130402565002441, -0.16870267689228058, 0.044768594205379486, -9.307079315185547, 6.400055885314941, 10.947478294372559, 
237, 2514193338, 0.6143341, -0.4130199, -0.61556375, -0.27035105, 10.159168243408203, -0.7449695467948914, -0.117955781519413, -19.354516983032227, 8.68929386138916, 12.885674476623535, 
238, 2514210005, 0.61456144, -0.41585624, -0.6128699, -0.2716036, 10.091523170471191, -1.4961270093917847, -0.48712286353111267, -19.97719383239746, 11.216776847839355, 14.821198463439941, 
239, 2514226672, 0.6152895, -0.41808665, -0.61038107, -0.272135, 10.101263046264648, -1.6379549503326416, -0.839046061038971, -11.90876579284668, 11.356793403625488, 15.622517585754395, 
240, 2514243339, 0.61617196, -0.41963246, -0.60860187, -0.27174342, 10.010525703430176, -1.529044508934021, -1.1883705854415894, -4.304775714874268, 7.815736770629883, 14.993985176086426, 
241, 2514260006, 0.6170837, -0.42061508, -0.6074144, -0.27081075, 9.856701850891113, -1.6180100440979004, -1.1956502199172974, 2.3546154499053955, 4.698012828826904, 13.238612174987793, 
242, 2514276673, 0.61826545, -0.42101634, -0.6065161, -0.2695023, 9.530571937561035, -1.3867239952087402, -0.9741283655166626, 7.376039981842041, 4.793765544891357, 12.07153034210205, 
243, 2514293340, 0.61956817, -0.42085662, -0.605988, -0.26794353, 9.433392524719238, -1.131696343421936, -0.9038939476013184, 11.210315704345703, 4.202099800109863, 10.012677192687988, 
244, 2514310007, 0.6208695, -0.42029172, -0.6057463, -0.2663597, 9.485404014587402, -1.0440254211425781, -0.7895312905311584, 13.392046928405762, 3.6863362789154053, 7.644014835357666, 
245, 2514326674, 0.62158304, -0.42006218, -0.6055366, -0.2655336, 9.565789222717285, -0.9100199937820435, -0.9705336689949036, 7.553225517272949, 2.5238122940063477, 4.660987854003906, 
246, 2514343341, 0.6215963, -0.419945, -0.60576344, -0.26516998, 9.555419921875, -0.7437049746513367, -0.8689917922019958, 3.7350237369537354, -1.0386143922805786, 0.6542765498161316, 
247, 2514360008, 0.62119, -0.41988316, -0.6061761, -0.26527706, 9.505780220031738, -0.9175091981887817, -0.5192605257034302, 0.739374577999115, -2.2912545204162598, -2.4035019874572754, 
248, 2514376675, 0.62074894, -0.41973662, -0.60657287, -0.26563415, 9.368866920471191, -1.4170749187469482, -0.6189069151878357, -0.6212681531906128, -1.3956682682037354, -3.753445625305176, 
249, 2514393342, 0.6205058, -0.4191217, -0.6072774, -0.26556343, 9.224594116210938, -1.6292115449905396, -0.5160061717033386, 4.769047260284424, -2.4152591228485107, -4.4198760986328125, 
250, 2514410009, 0.62049687, -0.4180168, -0.60831153, -0.26495776, 9.269492149353027, -1.5930284261703491, -0.576985239982605, 10.28808879852295, -3.440664768218994, -4.712297439575195, 
251, 2514426676, 0.6202492, -0.41701645, -0.60952187, -0.2643321, 9.32177734375, -1.6750805377960205, -0.8118855953216553, 9.617536544799805, -5.5453901290893555, -5.100586891174316, 
252, 2514443343, 0.61981004, -0.4160331, -0.6109443, -0.26362687, 9.489517211914062, -2.159273386001587, -1.256222128868103, 9.435161590576172, -7.355222702026367, -5.6591362953186035, 
253, 2514460010, 0.62005705, -0.41374058, -0.613068, -0.26171714, 9.618742942810059, -2.128279447555542, -1.4438283443450928, 23.82195472717285, -8.697881698608398, -6.824616432189941, 
254, 2514476677, 0.620826, -0.40998214, -0.6162238, -0.2583759, 9.577255249023438, -1.3669778108596802, -1.513790488243103, 39.3688850402832, -12.281129837036133, -8.913768768310547, 
255, 2514493344, 0.6213778, -0.4056065, -0.6201943, -0.2544251, 9.626527786254883, -0.5123679637908936, -0.8951577544212341, 45.24519348144531, -17.2226619720459, -11.585487365722656, 
256, 2514510011, 0.62179923, -0.40112433, -0.623918, -0.2513791, 9.7708158493042, -0.3456318974494934, -0.5790722966194153, 41.41694641113281, -14.155728340148926, -15.404253959655762, 
257, 2514526678, 0.62077045, -0.3978745, -0.62740266, -0.2504115, 9.53809928894043, -0.18171940743923187, -0.9437580704689026, 22.50688362121582, -15.650507926940918, -20.7894344329834, 
258, 2514543345, 0.6182816, -0.395892, -0.6308236, -0.25111544, 9.408792495727539, -0.4019525945186615, -1.141096591949463, 5.553762435913086, -19.199125289916992, -24.733407974243164, 
259, 2514560012, 0.61553603, -0.39406627, -0.6341821, -0.25227022, 9.15402603149414, -0.8804289102554321, -1.1833237409591675, 2.27748966217041, -19.112056732177734, -26.21744155883789, 
260, 2514576679, 0.6123794, -0.39251328, -0.63767695, -0.2535607, 9.207930564880371, -0.8171384930610657, -0.9796667098999023, -0.3340870440006256, -21.650333404541016, -26.636159896850586, 
261, 2514593346, 0.6093248, -0.3908239, -0.6412343, -0.25455588, 9.585113525390625, -0.8168517351150513, -1.2959039211273193, 2.1508097648620605, -22.06898307800293, -25.99103546142578, 
262, 2514610013, 0.60650486, -0.38948205, -0.64437336, -0.25541893, 10.00790023803711, -1.2368237972259521, -0.6235693693161011, 1.305060863494873, -20.258922576904297, -22.372272491455078, 
263, 2514626680, 0.603915, -0.38969034, -0.64595497, -0.257236, 10.864969253540039, -2.4959237575531006, -0.32404884696006775, -11.20889949798584, -13.024344444274902, -14.933926582336426, 
264, 2514643347, 0.60239154, -0.39008322, -0.64675784, -0.25819346, 10.842034339904785, -2.789219617843628, -0.3810120224952698, -7.255908966064453, -7.582419395446777, -6.570512771606445, 
265, 2514660014, 0.60180116, -0.3898745, -0.64747995, -0.25807562, 10.061816215515137, -1.1425520181655884, -0.41104450821876526, 2.3253772258758545, -4.9479451179504395, -2.977367877960205, 
266, 2514676681, 0.60037553, -0.39065552, -0.64779884, -0.2594117, 9.732077598571777, 0.2307281494140625, -1.1061327457427979, -11.17216968536377, -4.905494213104248, -4.989234447479248, 
267, 2514693348, 0.59817487, -0.39234117, -0.6475122, -0.26264665, 9.625646591186523, 0.11236822605133057, -1.5095497369766235, -26.416969299316406, -2.4266884326934814, -8.503690719604492, 
268, 2514710015, 0.5955304, -0.3944024, -0.6469537, -0.26691076, 9.787772178649902, -0.6830784678459167, -1.906025767326355, -34.436363220214844, -1.1159825325012207, -11.072171211242676, 
269, 2514726682, 0.59288955, -0.39619353, -0.64668643, -0.2707573, 9.707748413085938, -1.8252044916152954, -2.2903528213500977, -30.717071533203125, -2.9601025581359863, -11.356297492980957, 
270, 2514743349, 0.5904877, -0.39737263, -0.64689904, -0.27375346, 9.529069900512695, -2.3126907348632812, -2.304215669631958, -23.622400283813477, -4.855033874511719, -11.417394638061523, 
271, 2514760016, 0.5882964, -0.39772013, -0.6478498, -0.27571186, 9.36328125, -2.3189055919647217, -2.2204642295837402, -13.072182655334473, -8.284049034118652, -12.648818016052246, 
272, 2514776683, 0.5863813, -0.39731613, -0.6492432, -0.27709287, 9.229838371276855, -1.8817436695098877, -1.860116958618164, -5.93886661529541, -8.939961433410645, -14.401103973388672, 
273, 2514793350, 0.58461136, -0.39644733, -0.6509781, -0.2780048, 9.43226432800293, -1.6447937488555908, -1.7011277675628662, -1.340653419494629, -9.978110313415527, -15.223712921142578, 
274, 2514810017, 0.58312446, -0.39528966, -0.6527372, -0.27865073, 9.66977596282959, -1.4013017416000366, -1.5994256734848022, 2.378897190093994, -9.145183563232422, -15.05959701538086, 
275, 2514826684, 0.58180934, -0.3939974, -0.6544773, -0.27914828, 9.764388084411621, -1.0612834692001343, -1.6787428855895996, 3.887423038482666, -8.391491889953613, -14.700662612915039, 
276, 2514843351, 0.5806519, -0.39273673, -0.65605193, -0.27963766, 9.820646286010742, -0.9637846350669861, -1.6056358814239502, 4.219836711883545, -7.159057140350342, -13.832246780395508, 
277, 2514860018, 0.57977414, -0.3912861, -0.65759283, -0.27987328, 9.715620040893555, -0.7420742511749268, -1.8058514595031738, 6.6914262771606445, -6.083143711090088, -13.031554222106934, 
278, 2514876685, 0.5787999, -0.38990602, -0.659213, -0.28000402, 9.549613952636719, -0.5834577679634094, -1.8402878046035767, 6.7951202392578125, -7.237650394439697, -12.702009201049805, 
279, 2514893352, 0.57762384, -0.38909942, -0.6604622, -0.28061068, 9.551655769348145, -0.8410216569900513, -1.9307781457901, 1.0605969429016113, -6.493969917297363, -11.381451606750488, 
280, 2514910019, 0.57642514, -0.38861936, -0.6615056, -0.2812819, 9.511442184448242, -0.9024808406829834, -1.8953803777694702, -0.8486067056655884, -6.250096797943115, -9.678461074829102, 
281, 2514926686, 0.5752424, -0.3885586, -0.66221595, -0.2821143, 9.65913200378418, -0.9298389554023743, -1.7585225105285645, -4.133551597595215, -5.184197902679443, -7.4566850662231445, 
282, 2514943353, 0.5743054, -0.38866886, -0.66264516, -0.2828627, 9.649654388427734, -1.0013575553894043, -1.8718624114990234, -4.367190361022949, -3.4809393882751465, -5.1287455558776855, 
283, 2514960020, 0.57342017, -0.38900456, -0.6629083, -0.28357965, 9.686786651611328, -1.0306061506271362, -1.947721004486084, -5.163898944854736, -3.156029462814331, -3.463510036468506, 
284, 2514976687, 0.57235855, -0.38991547, -0.6628518, -0.28460377, 9.68338394165039, -0.9157224893569946, -1.7981618642807007, -10.061382293701172, -2.9391541481018066, -1.5454003810882568, 
285, 2514993354, 0.5710139, -0.3912296, -0.6626175, -0.2860433, 9.730703353881836, -0.8452061414718628, -1.7987910509109497, -14.663224220275879, -3.2299113273620605, -1.4251750707626343, 
286, 2515010021, 0.56966436, -0.39218074, -0.66274583, -0.28713217, 9.667343139648438, -0.6637404561042786, -1.9545199871063232, -10.912775039672852, -4.934755802154541, -2.697357654571533, 
287, 2515026688, 0.5684438, -0.39280722, -0.66297716, -0.28815883, 9.827609062194824, -0.37224557995796204, -1.9612795114517212, -8.643411636352539, -4.286702632904053, -3.9891345500946045, 
288, 2515043355, 0.5673189, -0.3932979, -0.66314375, -0.28932053, 9.674115180969238, -0.2750032842159271, -2.0734527111053467, -8.428712844848633, -3.007091760635376, -4.791375637054443, 
289, 2515060022, 0.56620497, -0.3935356, -0.663411, -0.29056424, 9.579164505004883, -0.3443862795829773, -2.081624984741211, -7.888029098510742, -2.5340383052825928, -6.462067127227783, 
290, 2515076689, 0.56518954, -0.3934864, -0.6637901, -0.29173943, 9.732882499694824, -0.23067620396614075, -2.0918052196502686, -5.72413969039917, -2.1868324279785156, -7.642390727996826, 
291, 2515093356, 0.5641524, -0.3932047, -0.66433257, -0.29288957, 9.706583023071289, -0.09871499240398407, -2.1269874572753906, -4.536349773406982, -2.5025088787078857, -9.066353797912598, 
292, 2515110023, 0.5628555, -0.3928848, -0.6650789, -0.294118, 9.641172409057617, -0.24008610844612122, -2.135571002960205, -5.1821112632751465, -4.187326431274414, -10.579068183898926, 
293, 2515126690, 0.56178224, -0.39199695, -0.6661324, -0.2949693, 9.447572708129883, -0.4837132692337036, -2.2499642372131348, 0.0955866351723671, -4.201528072357178, -12.115907669067383, 
294, 2515143357, 0.56076807, -0.39092597, -0.6672487, -0.29579628, 9.435795783996582, -0.4813755452632904, -2.112460136413574, 1.2212142944335938, -3.8443984985351562, -12.92022705078125, 
295, 2515160024, 0.5598666, -0.38960254, -0.66855675, -0.29629588, 9.497020721435547, -0.2658947706222534, -2.0738513469696045, 4.29141092300415, -4.42879056930542, -13.089924812316895, 
296, 2515176691, 0.5590259, -0.38804144, -0.6700618, -0.29653186, 9.498617172241211, -0.04098637029528618, -2.18623948097229, 6.897403240203857, -5.090944290161133, -13.557908058166504, 
297, 2515193358, 0.5580449, -0.38649046, -0.67165875, -0.29679245, 9.523884773254395, -0.039186328649520874, -2.118478536605835, 6.7546000480651855, -6.079852104187012, -14.166658401489258, 
298, 2515210025, 0.55705786, -0.38499755, -0.6732087, -0.2970747, 9.562386512756348, -0.18344298005104065, -2.1599197387695312, 6.577322483062744, -6.048451900482178, -13.908496856689453, 
299, 2515226692, 0.55606914, -0.38357663, -0.67472774, -0.29731923, 9.64902400970459, -0.1658545732498169, -2.178774118423462, 6.339763164520264, -6.154576778411865, -13.343107223510742, 
300, 2515243359, 0.55518466, -0.38220564, -0.67609924, -0.29762173, 9.700578689575195, 0.01968226581811905, -2.1621038913726807, 5.601616859436035, -4.998955726623535, -12.686715126037598, 
301, 2515260026, 0.55422735, -0.38100067, -0.6773621, -0.29807952, 9.646608352661133, 0.08175420016050339, -2.041203498840332, 3.995469093322754, -4.882904529571533, -12.398584365844727, 
302, 2515276693, 0.55332965, -0.3797433, -0.67860895, -0.29851562, 9.628719329833984, 0.07619807124137878, -2.1200623512268066, 4.419883728027344, -4.485036373138428, -12.392756462097168, 
303, 2515293360, 0.5525111, -0.37856045, -0.679761, -0.29891253, 9.69057559967041, 0.13434800505638123, -2.1552574634552, 4.471314430236816, -4.038094520568848, -11.510733604431152, 
304, 2515310027, 0.5517095, -0.3775877, -0.6807419, -0.29939097, 9.700539588928223, 0.310506135225296, -2.136667251586914, 2.9325528144836426, -3.527350425720215, -10.344839096069336, 
305, 2515326694, 0.55081296, -0.37692323, -0.681536, -0.30007106, 9.704021453857422, 0.36702102422714233, -2.1018471717834473, 0.35974329710006714, -3.3922433853149414, -9.403366088867188, 
306, 2515343361, 0.5498377, -0.37657937, -0.6820731, -0.30106923, 9.621681213378906, 0.09804224222898483, -2.215467691421509, -3.1001553535461426, -2.6266660690307617, -8.590136528015137, 
307, 2515360028, 0.5488329, -0.37647346, -0.68244845, -0.30218259, 9.600592613220215, -0.07122939825057983, -2.230064630508423, -5.225113868713379, -2.300002098083496, -7.495744228363037, 
308, 2515376695, 0.54794824, -0.37649763, -0.68268967, -0.3032112, 9.68871784210205, -0.06903021037578583, -2.248422145843506, -5.296034812927246, -1.7083097696304321, -5.972619533538818, 
309, 2515393362, 0.54726106, -0.37643445, -0.6829361, -0.30397522, 9.652676582336426, -0.044541750103235245, -2.200791358947754, -3.5787928104400635, -1.2593060731887817, -4.913764953613281, 
310, 2515410029, 0.5465557, -0.37651342, -0.68317413, -0.30461115, 9.558719635009766, -0.0630849078297615, -2.0842573642730713, -2.9612700939178467, -2.0170705318450928, -3.9214136600494385, 
311, 2515426696, 0.5458361, -0.37662962, -0.6834622, -0.30511105, 9.55449104309082, -0.07851509749889374, -2.1936864852905273, -2.5735700130462646, -2.70656418800354, -3.367474317550659, 
312, 2515443363, 0.54517907, -0.37674025, -0.6837696, -0.30546018, 9.569131851196289, -0.1028226912021637, -2.1812591552734375, -1.4543977975845337, -2.845743417739868, -2.7900102138519287, 
313, 2515460030, 0.5447074, -0.37683633, -0.683963, -0.30574968, 9.698012351989746, -0.2208002358675003, -2.1745433807373047, -1.1172451972961426, -1.6565333604812622, -1.9107136726379395, 
314, 2515476697, 0.54442936, -0.376777, -0.6842114, -0.3057624, 9.690199851989746, -0.06453558802604675, -2.1684556007385254, 1.563412070274353, -1.3588626384735107, -1.3944898843765259, 
315, 2515493364, 0.54431564, -0.37657675, -0.6845517, -0.3054496, 9.650239944458008, 0.0015541529282927513, -2.228616237640381, 4.059561252593994, -1.4721730947494507, -0.701051652431488, 
316, 2515510031, 0.5443402, -0.37655228, -0.6846353, -0.30524883, 9.514591217041016, -0.2980725169181824, -2.1773712635040283, 2.970663547515869, 0.03648529201745987, 0.591679036617279, 
317, 2515526698, 0.54456955, -0.37658712, -0.6846078, -0.3048581, 9.539521217346191, -0.37001246213912964, -2.0677096843719482, 3.8607819080352783, 0.8013318777084351, 2.297856569290161, 
318, 2515543365, 0.54490787, -0.37690815, -0.6844002, -0.3043223, 9.690964698791504, -0.3915254473686218, -2.2571358680725098, 3.2826266288757324, 1.0277353525161743, 4.892282485961914, 
319, 2515560032, 0.5453712, -0.37751362, -0.6839532, -0.30374599, 9.587791442871094, -0.3240586519241333, -2.1542811393737793, 2.650902271270752, 1.7744355201721191, 7.146021842956543, 
320, 2515576699, 0.54583555, -0.37821692, -0.683487, -0.30308604, 9.548234939575195, -0.1800258457660675, -2.3283796310424805, 2.245363473892212, 1.4505243301391602, 8.045053482055664, 
321, 2515593366, 0.54628146, -0.3789592, -0.68300146, -0.30244967, 9.4495210647583, 0.18656684458255768, -2.405150890350342, 2.162109613418579, 1.404895305633545, 8.08450984954834, 
322, 2515610033, 0.54639167, -0.379963, -0.6824196, -0.3023041, 9.51411247253418, 0.28660455346107483, -2.255337715148926, -2.2106521129608154, 0.9342362880706787, 7.027781009674072, 
323, 2515626700, 0.54655397, -0.38083097, -0.6818117, -0.30229008, 9.563760757446289, 0.12117284536361694, -2.412341594696045, -2.6022446155548096, 1.93621826171875, 6.168692111968994, 
324, 2515643367, 0.5466124, -0.38155627, -0.68134385, -0.30232492, 9.565702438354492, 0.0872565507888794, -2.3702871799468994, -2.245356798171997, 1.3342938423156738, 4.718231201171875, 
325, 2515660034, 0.54656935, -0.38203886, -0.6810565, -0.302441, 9.594609260559082, 0.17633667588233948, -2.201090097427368, -1.5021913051605225, 0.9021689891815186, 2.573077440261841, 
326, 2515676701, 0.54652786, -0.38207632, -0.68101454, -0.3025631, 9.643542289733887, 0.20368443429470062, -2.349189043045044, 0.6593604683876038, 0.9304324984550476, -0.16888372600078583, 
327, 2515693368, 0.5465486, -0.38175324, -0.68113583, -0.30266002, 9.53929328918457, 0.07613062858581543, -2.3254506587982178, 2.40364933013916, 1.3171586990356445, -2.0005886554718018, 
328, 2515710035, 0.5464633, -0.38146812, -0.6813263, -0.30274478, 9.62182331085205, -0.027965936809778214, -2.285203456878662, 2.835171937942505, 0.4024651348590851, -2.33551287651062, 
329, 2515726702, 0.54634106, -0.3812006, -0.68159527, -0.30269712, 9.3795747756958, -0.1079714223742485, -2.431133270263672, 3.5819485187530518, -0.45141738653182983, -2.067284107208252, 
330, 2515743369, 0.5460488, -0.38077673, -0.6821468, -0.3025158, 9.268784523010254, -0.11496449261903763, -2.6158454418182373, 4.883356094360352, -2.319838523864746, -3.3843026161193848, 
331, 2515760036, 0.545371, -0.38055423, -0.68285626, -0.30241776, 9.60191822052002, -0.7620972990989685, -2.585812568664551, 2.5639214515686035, -4.878778457641602, -3.859661340713501, 
332, 2515776703, 0.5457713, -0.37933332, -0.6839133, -0.30083644, 9.77208423614502, -1.7501957416534424, -2.5135343074798584, 16.73105239868164, -2.904489278793335, -1.6538841724395752, 
333, 2515793370, 0.54736525, -0.3772537, -0.6853703, -0.29721805, 9.41263198852539, -0.780822217464447, -2.4737727642059326, 33.72474670410156, -2.344269275665283, 3.257615327835083, 
334, 2515810037, 0.5486099, -0.37618387, -0.6863129, -0.29408762, 9.139225006103516, 0.34902530908584595, -3.067657947540283, 25.83147430419922, -2.8660621643066406, 6.723965644836426, 
335, 2515826704, 0.5488832, -0.37636602, -0.6866219, -0.29261988, 9.028955459594727, 0.3996138870716095, -2.9805803298950195, 9.2366361618042, -3.2563812732696533, 6.096107482910156, 
336, 2515843371, 0.5485468, -0.37668422, -0.687172, -0.29154792, 8.869400024414062, -0.22412537038326263, -3.0704829692840576, 5.86175012588501, -6.280062675476074, 3.379737615585327, 
337, 2515860038, 0.5482275, -0.37647983, -0.6881022, -0.29021582, 9.263980865478516, -0.9612801671028137, -2.5633251667022705, 9.563197135925293, -7.199636936187744, 1.0275179147720337, 
338, 2515876705, 0.5484293, -0.37529254, -0.6894553, -0.28815347, 10.05755615234375, -0.5468291640281677, -2.0710372924804688, 19.043975830078125, -6.267531871795654, -0.9959831237792969, 
339, 2515893372, 0.5488407, -0.37329298, -0.69098914, -0.28628713, 10.276845932006836, 0.26157146692276, -2.0339205265045166, 22.236574172973633, -3.861665725708008, -5.69135046005249, 
340, 2515910039, 0.54901737, -0.37094954, -0.69250107, -0.28533968, 9.91865348815918, 0.03202446922659874, -2.070425510406494, 18.301340103149414, -1.8519483804702759, -11.124720573425293, 
341, 2515926706, 0.5491949, -0.36822087, -0.6941049, -0.2846346, 9.589071273803711, -0.1091800183057785, -2.132268190383911, 18.918624877929688, -0.8441898226737976, -14.14585018157959, 
342, 2515943373, 0.5490371, -0.36570325, -0.6955982, -0.28453952, 9.484369277954102, 0.24335706233978271, -2.4946539402008057, 14.37794303894043, -0.9136768579483032, -15.87895679473877, 
343, 2515960040, 0.5484266, -0.36367753, -0.6967825, -0.28541407, 9.480653762817383, 0.12680625915527344, -2.3725335597991943, 5.4672417640686035, -0.4033556580543518, -17.13167953491211, 
344, 2515976707, 0.5475142, -0.36217618, -0.69760627, -0.28705773, 9.450571060180664, -0.29572442173957825, -2.378007173538208, -1.0759971141815186, 0.3868546485900879, -17.340911865234375, 
345, 2515993374, 0.546443, -0.36084485, -0.6983856, -0.28887486, 9.5039701461792, -0.4600275158882141, -2.3930552005767822, -3.386610984802246, -0.10194506496191025, -17.313915252685547, 
346, 2516010041, 0.54542965, -0.3595446, -0.69905484, -0.29078612, 9.421632766723633, -0.680777907371521, -2.1779675483703613, -3.4296655654907227, 0.7520408630371094, -17.286855697631836, 
347, 2516026708, 0.5446273, -0.35819966, -0.6996886, -0.29242104, 9.311182975769043, -1.0381858348846436, -2.2885000705718994, -1.7103855609893799, 1.3064665794372559, -15.932591438293457, 
348, 2516043375, 0.5440349, -0.3567748, -0.7004546, -0.2934302, 9.346933364868164, -1.0657953023910522, -2.3603909015655518, 2.509162425994873, 0.443496972322464, -13.936756134033203, 
349, 2516060042, 0.54374665, -0.35534465, -0.70111936, -0.2941112, 9.396601676940918, -1.1106330156326294, -2.4063291549682617, 4.152461051940918, 1.50634765625, -11.772327423095703, 
350, 2516076709, 0.543761, -0.35389033, -0.7018421, -0.29411432, 9.358920097351074, -0.9873677492141724, -2.198840856552124, 8.875753402709961, 1.1388310194015503, -9.050323486328125, 
351, 2516093376, 0.5438511, -0.35233086, -0.7027271, -0.2937069, 9.314949989318848, -0.5094693899154663, -2.516119956970215, 11.748169898986816, 0.10793200135231018, -8.299474716186523, 
352, 2516110043, 0.5438808, -0.35044703, -0.7038594, -0.29319382, 9.269972801208496, -0.18137158453464508, -2.512078046798706, 13.921783447265625, -0.7032933831214905, -10.237424850463867, 
353, 2516126710, 0.5438031, -0.34818757, -0.7051504, -0.29292753, 9.44293212890625, 0.025333181023597717, -2.5126755237579346, 13.68294906616211, -0.4563996493816376, -13.448957443237305, 
354, 2516143377, 0.5435107, -0.34570286, -0.7064799, -0.29320988, 9.425145149230957, 0.08175215125083923, -2.3394060134887695, 11.456040382385254, 0.1298309713602066, -17.13035774230957, 
355, 2516160044, 0.5431353, -0.3429504, -0.70787966, -0.29376128, 9.540040016174316, -0.1333329975605011, -2.4071927070617676, 11.392484664916992, 0.6491550803184509, -19.850051879882812, 
356, 2516176711, 0.5428326, -0.3397578, -0.709461, -0.29421517, 9.539953231811523, -0.29547905921936035, -2.426629066467285, 13.762441635131836, 0.9798929691314697, -21.85308265686035, 
357, 2516193378, 0.5424203, -0.33623695, -0.71127796, -0.29463315, 9.454904556274414, -0.16708636283874512, -2.4995689392089844, 15.353997230529785, 0.14586474001407623, -24.104581832885742, 
358, 2516210045, 0.54215306, -0.33267576, -0.71299297, -0.29502213, 9.463247299194336, -0.5630924701690674, -2.5420327186584473, 15.969911575317383, 1.2613525390625, -23.727657318115234, 
359, 2516226712, 0.5421809, -0.32937714, -0.7143689, -0.29534355, 9.29495620727539, -0.9313581585884094, -2.5081253051757812, 15.138446807861328, 3.2824032306671143, -20.80226707458496, 
360, 2516243379, 0.54227906, -0.32701772, -0.7151208, -0.29596487, 9.197343826293945, -1.1073808670043945, -2.6861023902893066, 9.099409103393555, 4.733245372772217, -15.799694061279297, 
361, 2516260046, 0.54255337, -0.32566985, -0.7152442, -0.29664937, 9.165964126586914, -1.2245079278945923, -2.6831672191619873, 4.137016773223877, 6.034534454345703, -9.333637237548828, 
362, 2516276713, 0.54293877, -0.3250959, -0.7151611, -0.2967742, 9.030277252197266, -1.5881224870681763, -2.5633037090301514, 3.828394889831543, 4.529875755310059, -2.7961199283599854, 
363, 2516293380, 0.543809, -0.3248402, -0.7148708, -0.29615945, 9.015239715576172, -1.8962658643722534, -2.5961596965789795, 6.94305419921875, 5.39054012298584, 2.926302909851074, 
364, 2516310047, 0.5451779, -0.32481238, -0.71434987, -0.29492795, 9.13495922088623, -1.7522467374801636, -2.489379405975342, 9.75227165222168, 6.86775541305542, 7.825760364532471, 
365, 2516326714, 0.54689133, -0.32518798, -0.71342474, -0.2935779, 8.992287635803223, -1.7420414686203003, -2.2487993240356445, 8.760114669799805, 8.993267059326172, 11.799858093261719, 
366, 2516343381, 0.5489005, -0.32585716, -0.7121134, -0.2922671, 8.918022155761719, -1.8911254405975342, -2.034515619277954, 7.363033771514893, 11.388792037963867, 14.496014595031738, 
367, 2516360048, 0.55111605, -0.32702893, -0.7102211, -0.29139212, 9.261626243591309, -2.164208173751831, -1.8505842685699463, 2.616713523864746, 14.550715446472168, 16.97821617126465, 
368, 2516376715, 0.55302817, -0.3299642, -0.70709574, -0.29206035, 10.023557662963867, -2.734398126602173, -1.6770031452178955, -14.798422813415527, 17.66766357421875, 21.85940170288086, 
369, 2516393382, 0.55470127, -0.3357599, -0.7018225, -0.29498693, 11.136037826538086, -4.201690196990967, -1.5332735776901245, -41.45549011230469, 24.03819465637207, 31.49146270751953, 
370, 2516410049, 0.5569322, -0.34410957, -0.69470143, -0.29800233, 13.254040718078613, -6.292137622833252, -1.9162734746932983, -54.115535736083984, 28.786518096923828, 48.782039642333984, 
371, 2516426716, 0.5620945, -0.3535181, -0.68572855, -0.29807886, 13.130462646484375, -6.899170875549316, -0.46310368180274963, -40.95635986328125, 40.74094009399414, 75.32551574707031, 
372, 2516443383, 0.5699172, -0.36373067, -0.67582655, -0.29351848, 12.692049980163574, -6.005353927612305, 0.48116081953048706, -17.581863403320312, 43.898155212402344, 104.5840072631836, 
373, 2516460050, 0.580143, -0.37586883, -0.66324306, -0.28681967, 13.295190811157227, -4.741097927093506, 1.5949088335037231, -14.565842628479004, 56.257171630859375, 133.3461456298828, 
374, 2516476717, 0.5910273, -0.39076468, -0.6479242, -0.2796142, 13.193371772766113, -3.034797430038452, 1.8903888463974, -26.981891632080078, 63.320369720458984, 156.24557495117188, 
375, 2516493384, 0.60257334, -0.40562522, -0.6320433, -0.26999056, 12.954996109008789, -0.5430282950401306, -0.24218562245368958, -15.323431968688965, 62.0086669921875, 168.6719207763672, 
376, 2516510051, 0.6140979, -0.41870293, -0.6167805, -0.25914016, 13.132386207580566, 3.3289053440093994, -1.7188994884490967, -1.4243278503417969, 59.166194915771484, 164.28375244140625, 
377, 2516526718, 0.62196505, -0.43330994, -0.6013969, -0.2524361, 12.071993827819824, 4.417301654815674, -1.8998417854309082, -36.189208984375, 53.35805130004883, 147.24497985839844, 
378, 2516543385, 0.6243895, -0.45073745, -0.58732074, -0.24905393, 11.091374397277832, 2.3345508575439453, -2.011805295944214, -76.02973937988281, 30.2993106842041, 131.55300903320312, 
379, 2516560052, 0.62469625, -0.468005, -0.57534117, -0.24435358, 11.746169090270996, -1.5857356786727905, -2.8416919708251953, -72.96368408203125, 8.948357582092285, 126.56746673583984, 
380, 2516576719, 0.6264573, -0.4829881, -0.5647021, -0.23534101, 11.281113624572754, -3.8946495056152344, -3.5630156993865967, -39.121360778808594, -1.0795536041259766, 134.23121643066406, 
381, 2516593386, 0.62990427, -0.4954827, -0.55465376, -0.22377823, 10.374349594116211, -3.339306592941284, -2.821230173110962, -11.926681518554688, -1.4923264980316162, 136.32505798339844, 
382, 2516610053, 0.63446546, -0.505094, -0.54529, -0.21211457, 9.24176025390625, -2.03200364112854, -1.5156875848770142, 5.8156867027282715, 3.886981248855591, 125.16783142089844, 
383, 2516626720, 0.6406427, -0.5110154, -0.5366893, -0.20100993, 8.159845352172852, -1.22960364818573, -0.7978741526603699, 26.535045623779297, 13.925670623779297, 108.65449523925781, 
384, 2516643387, 0.64817816, -0.5131363, -0.52949595, -0.19023754, 7.143646240234375, -0.8639001250267029, -0.38508570194244385, 48.74177932739258, 19.140975952148438, 90.16761016845703, 
385, 2516660054, 0.6550642, -0.51348144, -0.52394253, -0.18086474, 6.266550540924072, -0.47393423318862915, -0.258149117231369, 51.403602600097656, 16.70122718811035, 70.89923095703125, 
386, 2516676721, 0.66019636, -0.5132549, -0.52038705, -0.17293864, 5.462404727935791, -0.06966514140367508, -0.5257357954978943, 44.99052429199219, 7.215324878692627, 53.164268493652344, 
387, 2516693388, 0.66308945, -0.51278687, -0.5192516, -0.16655333, 4.789533615112305, 0.2172354906797409, -0.6963943243026733, 35.54503631591797, -6.064121723175049, 34.17109680175781, 
388, 2516710055, 0.6639903, -0.51222074, -0.5198438, -0.16281648, 4.338177680969238, -0.059218838810920715, -0.8344734311103821, 21.487220764160156, -11.60046672821045, 13.437420845031738, 
389, 2516726722, 0.66388035, -0.51101625, -0.5215309, -0.16165005, 3.7330257892608643, -0.2171497792005539, -0.3370809257030487, 12.905804634094238, -10.449485778808594, -5.515143394470215, 
390, 2516743389, 0.661984, -0.5103583, -0.5237832, -0.16420321, 3.4422390460968018, 0.7925035357475281, 0.19231244921684265, -8.669005393981934, -6.909612655639648, -24.457225799560547, 
391, 2516760056, 0.65714, -0.51144093, -0.5263725, -0.17183478, 3.5971643924713135, 0.9109267592430115, 0.501316487789154, -44.79330825805664, -3.238075017929077, -45.76163864135742, 
392, 2516776723, 0.65121466, -0.51192427, -0.5295553, -0.18282346, 4.216618061065674, -0.9972331523895264, 0.6206923723220825, -57.32552719116211, 2.667725086212158, -66.40878295898438, 
393, 2516793390, 0.64452326, -0.51133025, -0.5336219, -0.19590493, 5.190497398376465, -3.254939079284668, -0.16485626995563507, -61.77577590942383, 4.673676490783691, -83.7450942993164, 
394, 2516810057, 0.63846457, -0.5072275, -0.5401258, -0.20820068, 7.337162017822266, -5.06989049911499, -1.0960791110992432, -37.71675491333008, -1.8984200954437256, -100.8777084350586, 
395, 2516826724, 0.6348746, -0.49823105, -0.54852575, -0.21867742, 9.959332466125488, -5.814362525939941, -1.2750420570373535, 1.8566219806671143, -0.37042146921157837, -114.17377471923828, 
396, 2516843391, 0.6331812, -0.4873417, -0.55645996, -0.22788619, 10.489797592163086, -5.249075412750244, -1.4256439208984375, 20.725187301635742, 7.3299055099487305, -111.35787200927734, 
397, 2516860058, 0.63135314, -0.47631428, -0.5652649, -0.23450778, 9.764657974243164, -4.074089527130127, -1.0776128768920898, 32.093685150146484, -5.38533878326416, -103.76227569580078, 
398, 2516876725, 0.6286673, -0.46428785, -0.5763224, -0.238887, 9.757540702819824, -2.0340609550476074, 0.19632400572299957, 45.9687385559082, -24.213058471679688, -106.67880249023438, 
399, 2516893392, 0.6255929, -0.45135543, -0.58794224, -0.24338414, 9.887604713439941, -0.3673127293586731, 1.2460761070251465, 49.06194305419922, -26.314970016479492, -113.18248748779297, 
400, 2516910059, 0.62218857, -0.43908924, -0.59842736, -0.24893199, 9.168306350708008, 0.47714483737945557, 0.5558162927627563, 38.979576110839844, -20.637840270996094, -111.98057556152344, 
401, 2516926726, 0.6176354, -0.42931446, -0.6071121, -0.2561849, 7.742888927459717, -0.3238348960876465, 0.3763088881969452, 14.742594718933105, -16.790199279785156, -105.49040222167969, 
402, 2516943393, 0.6102165, -0.42406, -0.61352956, -0.2671898, 6.684850692749023, -2.539565324783325, 1.1271358728408813, -33.0788688659668, -15.893485069274902, -100.82453155517578, 
403, 2516960060, 0.60305154, -0.41961414, -0.6192272, -0.27714756, 4.736966609954834, -5.917984485626221, -0.6920414566993713, -32.64378356933594, -16.37969970703125, -90.47773742675781, 
404, 2516976727, 0.598996, -0.4111734, -0.62829703, -0.27817822, 2.685068130493164, -5.702854633331299, -2.663513422012329, 37.31142044067383, -35.264671325683594, -74.3783950805664, 
405, 2516993394, 0.59991944, -0.39837584, -0.6383784, -0.27178392, 4.224660873413086, -3.2960267066955566, -1.2888294458389282, 103.33078002929688, -30.539993286132812, -56.06427764892578, 
406, 2517010061, 0.6006318, -0.39141166, -0.6434742, -0.2682898, 6.665191173553467, -4.125507831573486, -2.12495756149292, 56.633663177490234, -13.851497650146484, -29.21167755126953, 
407, 2517026728, 0.6012151, -0.38481843, -0.65062976, -0.25910607, 7.609343528747559, -3.853365898132324, -5.261730194091797, 83.71702575683594, -38.909915924072266, -9.9194917678833, 
408, 2517043395, 0.5986201, -0.38014433, -0.65869063, -0.2515377, 10.642401695251465, -4.124478340148926, -6.2189412117004395, 61.752525329589844, -55.93948745727539, -16.124608993530273, 
409, 2517060062, 0.5817951, -0.3955047, -0.66125435, -0.26044837, 31.393688201904297, -25.403949737548828, -6.294307708740234, -142.06056213378906, -89.24821472167969, -3.5062079429626465, 
410, 2517076729, 0.60403347, -0.37612712, -0.6655532, -0.22519134, 18.72444725036621, -17.561525344848633, 4.871119499206543, 307.061767578125, 23.515066146850586, 80.06713104248047, 
411, 2517093396, 0.62279314, -0.37041393, -0.6616842, -0.19260457, 6.797374725341797, 14.484443664550781, 2.037721633911133, 216.33351135253906, 27.011356353759766, 146.96266174316406, 
412, 2517110063, 0.6303096, -0.369269, -0.659259, -0.17812358, 2.516409158706665, 17.484622955322266, -7.299002170562744, 87.68310546875, 9.645556449890137, 71.94725799560547, 
413, 2517126730, 0.6251808, -0.3734625, -0.65930146, -0.18707347, 6.055600643157959, 10.764354705810547, -5.042569160461426, -70.65727996826172, -5.273435115814209, -26.79094696044922, 
414, 2517143397, 0.6102935, -0.382173, -0.661268, -0.21026242, 13.226015090942383, -2.760688543319702, -4.626161098480225, -177.16854858398438, -26.938594818115234, -84.7786636352539, 
415, 2517160064, 0.5990611, -0.39233032, -0.6570661, -0.23551427, 15.717611312866211, -12.041105270385742, -2.036360502243042, -191.9314422607422, 18.95648765563965, -65.35281372070312, 
416, 2517176731, 0.593811, -0.40390113, -0.6489213, -0.25130343, 11.58952808380127, -19.426462173461914, 0.5566926002502441, -145.26840209960938, 34.41169357299805, 0.1695438027381897, 
417, 2517193398, 0.5975379, -0.41343683, -0.6388184, -0.25284305, 11.556983947753906, -14.769633293151855, 4.13687801361084, -51.88829040527344, 46.3703498840332, 69.8817138671875, 
418, 2517210065, 0.60951513, -0.42429653, -0.6234695, -0.24443741, 11.788899421691895, -8.992870330810547, 2.92427659034729, 0.6476393342018127, 73.4849853515625, 145.57896423339844, 
419, 2517226732, 0.623233, -0.4401477, -0.602345, -0.23458701, 10.643917083740234, -4.2229533195495605, 2.7744550704956055, -18.7191162109375, 92.47637939453125, 192.6988525390625, 
420, 2517243399, 0.6381718, -0.45798585, -0.5771049, -0.22346282, 8.263481140136719, -1.54314386844635, 1.6446378231048584, -24.89925765991211, 108.05487823486328, 220.80191040039062, 
421, 2517260066, 0.65617985, -0.47158435, -0.55150753, -0.20706484, 5.237041473388672, 5.582380294799805, 0.16477389633655548, 23.769515991210938, 111.67845916748047, 232.99368286132812, 
422, 2517276733, 0.66977346, -0.4859215, -0.52683634, -0.19423568, 3.6726603507995605, 7.985172271728516, -2.1195180416107178, -6.069463729858398, 101.27245330810547, 210.5370635986328, 
423, 2517293400, 0.6732204, -0.50748795, -0.5039705, -0.18773422, 6.673238277435303, -2.0002171993255615, -5.490633964538574, -93.74703216552734, 67.73834991455078, 188.17059326171875, 
424, 2517310067, 0.67146474, -0.53211194, -0.48305616, -0.18068995, 12.951605796813965, -6.905258655548096, -3.080206871032715, -121.6046371459961, 34.952388763427734, 187.7881622314453, 
425, 2517326734, 0.6681603, -0.55688834, -0.4630938, -0.17023946, 22.78682518005371, -7.453718662261963, -4.1376166343688965, -115.4469985961914, 12.827569007873535, 198.63970947265625, 
426, 2517343401, 0.671238, -0.5722932, -0.44370005, -0.15827313, 20.1519832611084, -3.523547649383545, -3.447627544403076, -42.40485382080078, 35.76397705078125, 181.18247985839844, 
427, 2517360068, 0.67315847, -0.5812217, -0.43359736, -0.14502555, 13.445143699645996, -2.1008682250976562, -0.9343607425689697, -3.0023908615112305, -8.611010551452637, 129.6929473876953, 
428, 2517376735, 0.674555, -0.5851575, -0.42971075, -0.13384679, 7.966883182525635, 0.6526190638542175, -0.6760790944099426, 18.0550537109375, -25.699729919433594, 80.003173828125, 
429, 2517393402, 0.6724652, -0.5862192, -0.43273696, -0.12990873, 2.2590911388397217, 0.31942522525787354, -2.622365713119507, 2.3351340293884277, -36.2846794128418, 7.019719123840332, 
430, 2517410069, 0.6723132, -0.5777617, -0.44295123, -0.13409165, 1.604711651802063, -0.710130512714386, 0.9295496344566345, 36.443485260009766, -22.484182357788086, -86.0605239868164, 
431, 2517426736, 0.6663907, -0.5699092, -0.45693892, -0.14944543, 1.6441093683242798, 0.12096608430147171, 1.606959581375122, -19.840042114257812, -13.697588920593262, -156.16390991210938, 
432, 2517443403, 0.6545967, -0.56347793, -0.47384924, -0.17164737, 4.276244640350342, -2.0700247287750244, 0.07994155585765839, -67.90424346923828, -20.184635162353516, -200.5545654296875, 
433, 2517460070, 0.64275926, -0.55370873, -0.49158844, -0.19648981, 7.420528411865234, -4.1331024169921875, -3.017979383468628, -60.6894416809082, -9.88910961151123, -226.56712341308594, 
434, 2517476737, 0.63451165, -0.5369803, -0.51166433, -0.21736331, 9.723158836364746, -6.138392925262451, -2.8948683738708496, 0.3209778666496277, -13.750895500183105, -236.584228515625, 
435, 2517493404, 0.6249891, -0.5178637, -0.535998, -0.23218954, 11.173665046691895, -4.829095840454102, -2.8068671226501465, 33.67267608642578, -55.54387664794922, -236.2445831298828, 
436, 2517510071, 0.61866605, -0.49589112, -0.5613709, -0.23708005, 9.488343238830566, -3.9199962615966797, -0.6163256764411926, 95.61548614501953, -79.0117416381836, -202.6560821533203, 
437, 2517526738, 0.62277526, -0.46652532, -0.5846495, -0.22954315, 6.2734527587890625, -2.0425586700439453, 4.022233486175537, 207.19557189941406, -60.16840744018555, -154.19479370117188, 
438, 2517543405, 0.6252635, -0.44269815, -0.6024481, -0.2238755, 3.0897974967956543, -2.7126471996307373, 2.52397084236145, 162.06504821777344, -46.044593811035156, -124.90312194824219, 
439, 2517560072, 0.6253972, -0.42214483, -0.61866087, -0.21893172, 3.21189284324646, -1.3579676151275635, -0.4755399525165558, 135.3540802001953, -51.87100601196289, -113.2789077758789, 
440, 2517576739, 0.6219007, -0.40706074, -0.6326734, -0.21740705, 6.128335475921631, -2.6342573165893555, -0.17108099162578583, 83.43045043945312, -56.16127395629883, -103.79876708984375, 
441, 2517593406, 0.6162999, -0.39947203, -0.64210016, -0.21978183, 9.813211441040039, -3.00547194480896, -2.3320960998535156, 21.66260528564453, -46.00788116455078, -78.19252014160156, 
442, 2517610073, 0.6075083, -0.39988932, -0.64874476, -0.22394769, 14.329828262329102, -5.406425952911377, -5.278663158416748, -33.1412239074707, -55.4697151184082, -47.62943649291992, 
443, 2517626740, 0.5957924, -0.40659457, -0.65460694, -0.22627898, 24.538400650024414, -18.223434448242188, -6.371362686157227, -60.472625732421875, -79.91807556152344, -14.307880401611328, 
444, 2517643407, 0.60068786, -0.4021889, -0.6593188, -0.2066817, 17.913387298583984, -18.650802612304688, 4.710768222808838, 128.34463500976562, -44.435604095458984, 54.346946716308594, 
445, 2517660074, 0.61443114, -0.40145904, -0.6531102, -0.18641935, 10.469277381896973, 2.0958094596862793, 5.096578598022461, 125.05609130859375, 33.551082611083984, 116.2837905883789, 
446, 2517676741, 0.624716, -0.40156898, -0.64668816, -0.17397378, 6.454957008361816, 7.621513366699219, -3.3598780632019043, 76.5796890258789, 39.2906379699707, 83.26851654052734, 
447, 2517693408, 0.6224318, -0.40879, -0.64249855, -0.18073523, 11.10517406463623, 3.868476629257202, -3.9511916637420654, -71.35672760009766, 18.382068634033203, 11.347785949707031, 
448, 2517710075, 0.6123101, -0.42549205, -0.6342998, -0.20419753, 12.046335220336914, -6.482295989990234, -2.59893798828125, -212.7157745361328, 36.128822326660156, -16.59636878967285, 
449, 2517726742, 0.60237485, -0.44755188, -0.6210486, -0.22614296, 9.54362678527832, -13.720364570617676, -0.11830738186836243, -235.2197723388672, 46.285194396972656, 28.15637969970703, 
450, 2517743409, 0.59554094, -0.47408178, -0.6024768, -0.23999882, 8.304784774780273, -19.221057891845703, 1.3875572681427002, -217.95245361328125, 49.729576110839844, 101.77316284179688, 
451, 2517760076, 0.60456955, -0.49256605, -0.58191943, -0.23074691, 11.846532821655273, -18.248332977294922, 3.156087875366211, -40.875484466552734, 61.50474166870117, 195.44204711914062, 
452, 2517776743, 0.6298316, -0.50049233, -0.55830216, -0.2027764, 11.731680870056152, -2.171869993209839, 2.469694137573242, 128.0260772705078, 92.4637222290039, 266.9535827636719, 
453, 2517793410, 0.65770733, -0.5027536, -0.53339875, -0.17362586, 7.797722816467285, 12.344112396240234, -0.3797292113304138, 164.30604553222656, 111.82181549072266, 258.44549560546875, 
454, 2517810077, 0.67231977, -0.51272017, -0.5102608, -0.15728341, 5.364723205566406, 9.500564575195312, -4.332053184509277, 38.734527587890625, 90.23423767089844, 207.0493927001953, 
455, 2517826744, 0.67800254, -0.5292214, -0.4870077, -0.15185784, 7.545118808746338, -3.3415379524230957, -4.211398124694824, -61.33747100830078, 90.92501068115234, 170.43678283691406, 
456, 2517843411, 0.67534, -0.5502381, -0.46851164, -0.14714232, 11.003457069396973, -5.029041290283203, -2.4005918502807617, -110.12964630126953, 38.73991012573242, 156.2446746826172, 
457, 2517860078, 0.6706108, -0.5699533, -0.4524867, -0.14384101, 16.77698516845703, -1.4636725187301636, -2.6913721561431885, -113.93617248535156, 27.318161010742188, 134.0850830078125, 
458, 2517876745, 0.6701658, -0.5824347, -0.43933418, -0.1365042, 14.827513694763184, -2.190157890319824, -1.3030550479888916, -48.360504150390625, 18.770851135253906, 123.32022857666016, 
459, 2517893412, 0.6731881, -0.5863646, -0.43210897, -0.12757786, 14.968716621398926, -4.855147838592529, 0.5624826550483704, 15.306469917297363, 3.5966415405273438, 84.46244049072266, 
460, 2517910079, 0.6769822, -0.5849426, -0.42992422, -0.12125399, 9.742106437683105, -1.4679657220840454, -0.33854973316192627, 39.87118148803711, -2.2753727436065674, 36.9813117980957, 
461, 2517926746, 0.6782088, -0.5810639, -0.43376604, -0.11935201, 4.656075954437256, -0.3411045968532562, -1.6710933446884155, 32.93736267089844, -18.088661193847656, -17.14592742919922, 
462, 2517943413, 0.679739, -0.5707186, -0.44374755, -0.1237875, 3.080230236053467, -1.2866997718811035, -0.3176519274711609, 50.461143493652344, -15.167532920837402, -90.21812438964844, 
463, 2517960080, 0.67782617, -0.5594758, -0.4574256, -0.13527973, 3.046727180480957, -2.043720006942749, -1.1926569938659668, 22.76496696472168, -14.490171432495117, -143.35948181152344, 
464, 2517976747, 0.6723937, -0.5490227, -0.47233057, -0.15285483, 4.319455146789551, -2.5024302005767822, -0.8661721348762512, -12.436933517456055, -8.599416732788086, -177.22120666503906, 
465, 2517993414, 0.6618812, -0.5398967, -0.48960197, -0.17525667, 6.83401346206665, -3.851943016052246, -0.6030595898628235, -50.9383430480957, -19.204490661621094, -209.5003204345703, 
466, 2518010081, 0.6520757, -0.5252834, -0.51004404, -0.19679879, 10.465725898742676, -3.77801513671875, -1.6071789264678955, -16.621641159057617, -27.83326530456543, -234.97976684570312, 
467, 2518026748, 0.6418023, -0.50906664, -0.5322062, -0.21377042, 11.658836364746094, -2.527341365814209, -3.1470046043395996, 7.2437334060668945, -51.51231384277344, -226.92068481445312, 
468, 2518043415, 0.63072383, -0.49646375, -0.5520149, -0.22581115, 9.776690483093262, -5.301187515258789, -1.3561701774597168, 3.0781948566436768, -66.60803985595703, -184.820556640625, 
469, 2518060082, 0.6228183, -0.48535073, -0.56782734, -0.23260346, 6.773181438446045, -10.807485580444336, 0.7764357328414917, 21.164148330688477, -57.451011657714844, -137.84365844726562, 
470, 2518076749, 0.62548906, -0.46484438, -0.58473843, -0.22530925, 5.166618347167969, -5.376880168914795, 0.2541220784187317, 153.4239959716797, -52.876319885253906, -101.07623291015625, 
471, 2518093416, 0.62485534, -0.44918066, -0.5993397, -0.22041923, 5.429172992706299, -2.8670008182525635, 0.5870301723480225, 108.77171325683594, -56.056419372558594, -89.73338317871094, 
472, 2518110083, 0.6201662, -0.43798497, -0.61242366, -0.22022821, 9.984169006347656, -10.130122184753418, -1.2890645265579224, 55.37727355957031, -58.52603530883789, -92.98565673828125, 
473, 2518126750, 0.62227774, -0.4245967, -0.6201033, -0.21899812, 16.53121566772461, -10.505731582641602, 2.1460623741149902, 81.37855529785156, -6.658482551574707, -71.32129669189453, 
474, 2518143417, 0.62808704, -0.41221535, -0.62524766, -0.21130733, 14.737265586853027, -1.6462910175323486, -0.9184512495994568, 111.56901550292969, -0.4975433349609375, -26.504283905029297, 
475, 2518160084, 0.6305022, -0.40807092, -0.6285987, -0.2020117, 12.440343856811523, 3.597670793533325, -4.024132251739502, 70.67194366455078, -23.877370834350586, 16.02556800842285, 
476, 2518176751, 0.6287113, -0.41279978, -0.6279615, -0.19995756, 9.652087211608887, 5.345255374908447, -0.2230021357536316, -16.408092498779297, -16.734066009521484, 28.436111450195312, 
477, 2518193418, 0.623182, -0.4205379, -0.6261746, -0.2066342, 8.884881019592285, -0.3985639810562134, -2.773221254348755, -79.28755950927734, -7.277261734008789, 1.9319067001342773, 
478, 2518210085, 0.61491513, -0.42640394, -0.6271128, -0.21630722, 10.850996971130371, -5.295835018157959, -3.5947492122650146, -88.20110321044922, -19.39543342590332, -30.706361770629883, 
479, 2518226752, 0.60710907, -0.43027383, -0.62852967, -0.22634888, 12.396183967590332, -8.647725105285645, -4.453621864318848, -79.28875732421875, -15.355762481689453, -41.6245002746582, 
480, 2518243419, 0.6017169, -0.4343391, -0.62782687, -0.23477577, 12.214628219604492, -10.630249977111816, -3.362067699432373, -69.29276275634766, -1.1227606534957886, -24.092937469482422, 
481, 2518260086, 0.5975363, -0.44275427, -0.62278813, -0.24301071, 10.813410758972168, -13.811380386352539, 9.952783584594727E-4, -89.8592300415039, 14.470041275024414, 10.270739555358887, 
482, 2518276753, 0.59787905, -0.45486543, -0.611761, -0.2477635, 9.743111610412598, -17.676406860351562, 3.019012451171875, -86.40416717529297, 41.642452239990234, 66.02680206298828, 
483, 2518293420, 0.60564435, -0.47069478, -0.5938201, -0.24293871, 11.989356994628906, -15.223995208740234, 5.270613193511963, -50.014503479003906, 64.94113159179688, 155.0929412841797, 
484, 2518310087, 0.62519765, -0.48301783, -0.57138115, -0.22213787, 13.353985786437988, -6.4029059410095215, 3.5163116455078125, 60.42707443237305, 85.86524963378906, 241.4174346923828, 
485, 2518326754, 0.6519005, -0.4891292, -0.54580873, -0.1946058, 11.107925415039062, 9.721711158752441, 2.2886929512023926, 132.54501342773438, 114.48847961425781, 267.29217529296875, 
486, 2518343421, 0.671318, -0.4975332, -0.5202318, -0.1764997, 6.428491115570068, 14.634620666503906, -3.4606926441192627, 62.3648796081543, 115.7406005859375, 224.0828399658203, 
487, 2518360088, 0.6786878, -0.51337945, -0.4966336, -0.17081995, 4.27227258682251, 2.065608501434326, -7.3636651039123535, -55.231529235839844, 97.03209686279297, 172.17213439941406, 
488, 2518376755, 0.67743725, -0.53111243, -0.4810561, -0.16608305, 7.6316142082214355, -4.5602874755859375, -2.738206624984741, -88.21401977539062, 31.376819610595703, 135.82504272460938, 
489, 2518393422, 0.66688347, -0.5544939, -0.46918246, -0.16634569, 14.714839935302734, -0.770041823387146, -2.477677345275879, -160.79664611816406, -4.799984455108643, 107.07779693603516, 
490, 2518410089, 0.65964305, -0.57282585, -0.45845008, -0.16298829, 11.825813293457031, 1.3057942390441895, -2.823103904724121, -111.99878692626953, -7.343392372131348, 106.93850708007812, 
491, 2518426756, 0.65537244, -0.5857778, -0.44994342, -0.1578051, 9.178415298461914, 0.35162732005119324, -2.139514207839966, -67.62274932861328, -9.21518325805664, 92.93777465820312, 
492, 2518443423, 0.6511175, -0.5933475, -0.44672978, -0.15626083, 6.845821380615234, -1.1570360660552979, -3.11922550201416, -48.798851013183594, -12.507890701293945, 38.674842834472656, 
493, 2518460090, 0.647741, -0.5920728, -0.45234546, -0.15894926, 4.73593282699585, -4.422401428222656, -2.8033084869384766, -9.110353469848633, -22.539756774902344, -42.465206146240234, 
494, 2518476757, 0.65068346, -0.5772324, -0.4651284, -0.1645282, 5.648997783660889, -7.353931427001953, -1.1180121898651123, 75.88861083984375, -8.187828063964844, -119.81586456298828, 
495, 2518493424, 0.6575526, -0.55265707, -0.48257735, -0.17121384, 6.408256530761719, -2.6030516624450684, 1.7437896728515625, 136.77410888671875, -1.0892027616500854, -170.0326690673828, 
496, 2518510091, 0.6575844, -0.5318814, -0.50110924, -0.183234, 6.8507232666015625, 2.281954765319824, 1.0288314819335938, 77.16441345214844, -12.898327827453613, -193.6875762939453, 
497, 2518526758, 0.6519852, -0.51565164, -0.5192355, -0.19852743, 9.147210121154785, 0.10737422108650208, -1.8735296726226807, 24.219318389892578, -24.236948013305664, -198.3533477783203, 
498, 2518543425, 0.64685076, -0.50070524, -0.534821, -0.21176666, 10.4290132522583, -2.1257033348083496, -0.6730672717094421, 23.990432739257812, -20.20010757446289, -174.85025024414062, 
499, 2518560092, 0.63742715, -0.49209312, -0.549764, -0.2220148, 8.125913619995117, -4.450666904449463, -2.2623984813690186, -8.883173942565918, -52.635196685791016, -142.2446746826172, 
500, 2518576759, 0.6245318, -0.48655722, -0.567552, -0.22606847, 5.380170822143555, -5.6237897872924805, -0.039087310433387756, -6.343329429626465, -103.86246490478516, -118.40946960449219, 
501, 2518593426, 0.6165369, -0.47955388, -0.58069026, -0.22958517, 4.370687007904053, -5.417895793914795, 1.917968988418579, 11.216187477111816, -64.29218292236328, -98.70368194580078, 
502, 2518610093, 0.61444557, -0.46731877, -0.5931534, -0.22855835, 3.9578051567077637, -2.327397108078003, 1.1714982986450195, 69.92066192626953, -44.614261627197266, -88.84160614013672, 
503, 2518626760, 0.60620874, -0.46018335, -0.6055336, -0.23253292, 8.83654499053955, -8.525760650634766, -3.286409378051758, 8.09656047821045, -61.291072845458984, -98.57942199707031, 
504, 2518643427, 0.6052332, -0.44441277, -0.61935526, -0.2293236, 17.056358337402344, -17.57346534729004, -5.186424732208252, 99.27198028564453, -45.966041564941406, -97.62399291992188, 
505, 2518660094, 0.6151744, -0.42362362, -0.6289431, -0.21571791, 14.408147811889648, -5.855495452880859, -1.5257976055145264, 191.09799194335938, -5.688183307647705, -45.75973892211914, 
506, 2518676761, 0.6176937, -0.417333, -0.63450325, -0.20418969, 14.858774185180664, -2.580796241760254, -3.823201894760132, 93.1716537475586, -36.2150993347168, 8.848516464233398, 
507, 2518693428, 0.61924624, -0.4173061, -0.6364169, -0.19329605, 15.616053581237793, -3.866624593734741, -2.615938186645508, 55.9144172668457, -31.900691986083984, 42.6015625, 
508, 2518710095, 0.6234173, -0.41813818, -0.63571787, -0.1799281, 14.289291381835938, -2.107839584350586, 0.50921630859375, 67.12608337402344, -17.560028076171875, 67.87816619873047, 
509, 2518726762, 0.6287479, -0.4197713, -0.63233256, -0.16918573, 12.685989379882812, 2.1748101711273193, 0.4040302336215973, 52.22510528564453, 5.5404558181762695, 69.3099365234375, 
510, 2518743429, 0.6318866, -0.4229181, -0.6276073, -0.16723964, 12.5423583984375, 6.187703609466553, -1.3278998136520386, -0.437397837638855, 25.398923873901367, 39.26252365112305, 
511, 2518760096, 0.629886, -0.42741415, -0.62445694, -0.17497012, 11.317925453186035, 4.333387851715088, -3.5614569187164307, -61.1654052734375, 22.95779037475586, -7.308598041534424, 
512, 2518776763, 0.6241323, -0.43348378, -0.62214905, -0.1883649, 10.1732177734375, -1.4321541786193848, -3.471708059310913, -102.29470825195312, 17.968093872070312, -31.970848083496094, 
513, 2518793430, 0.6176885, -0.4415033, -0.6180752, -0.2037621, 8.506793022155762, -6.830016136169434, -2.7007875442504883, -123.56670379638672, 26.051549911499023, -27.82970428466797, 
514, 2518810097, 0.61261076, -0.44896102, -0.61361307, -0.2159198, 9.006855010986328, -10.623510360717773, -2.133755922317505, -103.81774139404297, 24.466747283935547, -13.419045448303223, 
515, 2518826764, 0.6128411, -0.45178068, -0.6092831, -0.22157232, 11.147602081298828, -10.01391315460205, 0.6190167665481567, -40.27190399169922, 33.11083984375, 1.7832757234573364, 
516, 2518843431, 0.6178005, -0.45214528, -0.6032847, -0.22346115, 10.567702293395996, -7.823493480682373, 0.706560492515564, -2.036468744277954, 51.96601486206055, 19.656885147094727, 
517, 2518860098, 0.6236723, -0.45665908, -0.5928781, -0.22581217, 9.06380558013916, -7.409224510192871, 1.729249119758606, -25.531436920166016, 69.50863647460938, 49.95063400268555, 
518, 2518876765, 0.6311627, -0.46545085, -0.5777574, -0.22624226, 7.750024318695068, -6.593303680419922, 1.733045220375061, -38.29973220825195, 83.61195373535156, 92.88368225097656, 
519, 2518893432, 0.640878, -0.47539708, -0.56097394, -0.22041188, 7.166539669036865, -2.749591588973999, 1.2378790378570557, -13.922367095947266, 77.80471801757812, 133.37210083007812, 
520, 2518910099, 0.6520562, -0.48439607, -0.5436827, -0.21116933, 6.618748188018799, -0.05485275387763977, -1.909231424331665, 7.417450428009033, 75.94600677490234, 148.63169860839844, 
521, 2518926766, 0.6596172, -0.494992, -0.5277349, -0.20343062, 7.428599834442139, -0.23175166547298431, -3.6558890342712402, -15.455669403076172, 59.10974884033203, 138.163818359375, 
522, 2518943433, 0.66215014, -0.50681883, -0.5149569, -0.1987745, 11.379652976989746, -2.350505828857422, -3.7075884342193604, -44.8843994140625, 35.29934310913086, 110.86235046386719, 
523, 2518960100, 0.66350913, -0.5155481, -0.50616693, -0.19432165, 16.075984954833984, -3.9040935039520264, -2.8085813522338867, -30.12579345703125, 17.966354370117188, 83.50540161132812, 
524, 2518976767, 0.6669398, -0.52335477, -0.4966192, -0.18617354, 15.815345764160156, -2.7689497470855713, -2.9089434146881104, -6.712148666381836, 16.792226791381836, 102.66433715820312, 
525, 2518993434, 0.66941565, -0.5328107, -0.48657358, -0.17675331, 14.576859474182129, -1.7971365451812744, -2.4594690799713135, -13.988368034362793, 9.151405334472656, 114.77102661132812, 
526, 2519010101, 0.6690763, -0.5415664, -0.4803214, -0.16832799, 14.020875930786133, -1.4535737037658691, -2.025313377380371, -19.780153274536133, -13.211663246154785, 90.60888671875, 
527, 2519026768, 0.6675293, -0.5474101, -0.4779961, -0.1620701, 14.35092830657959, -1.228484869003296, -1.6529459953308105, -13.47819995880127, -23.811307907104492, 55.083282470703125, 
528, 2519043435, 0.6665404, -0.54923254, -0.47851482, -0.15840241, 13.87423324584961, -1.929124116897583, -1.2690752744674683, 1.7501718997955322, -20.79245376586914, 19.988361358642578, 
529, 2519060102, 0.666131, -0.5472687, -0.48207968, -0.15609494, 12.963001251220703, -2.308556079864502, -1.0530495643615723, 20.143922805786133, -23.578466415405273, -9.493657112121582, 
530, 2519076769, 0.6655136, -0.54311305, -0.48757577, -0.15617241, 12.02530288696289, -1.3096338510513306, -0.580895185470581, 23.57635498046875, -21.782562255859375, -35.10383224487305, 
531, 2519093436, 0.66367465, -0.5375519, -0.49524155, -0.15909065, 10.835492134094238, -0.4430484473705292, -0.17406940460205078, 18.26038360595703, -23.686416625976562, -62.158111572265625, 
532, 2519110103, 0.66094804, -0.530763, -0.50410426, -0.16527978, 9.48232650756836, 0.07861199229955673, 0.5672919750213623, 10.757905960083008, -18.741140365600586, -86.59274291992188, 
533, 2519126770, 0.65492004, -0.5254103, -0.514143, -0.17515989, 8.0591402053833, 0.2336554378271103, 0.047222934663295746, -19.27257537841797, -23.703649520874023, -106.37236022949219, 
534, 2519143437, 0.6470572, -0.51996815, -0.52542573, -0.1867568, 7.67939567565918, -1.4397227764129639, 0.6089826226234436, -30.06395149230957, -29.492156982421875, -121.07530975341797, 
535, 2519160104, 0.6387568, -0.5149495, -0.535619, -0.19982296, 8.81641674041748, -5.497143268585205, 1.376853108406067, -40.219425201416016, -21.537006378173828, -122.72482299804688, 
536, 2519176771, 0.63304836, -0.50850546, -0.54431385, -0.21070006, 8.56920051574707, -8.678770065307617, 0.876396119594574, -18.787309646606445, -11.234806060791016, -109.5080795288086, 
537, 2519193438, 0.63094425, -0.5001221, -0.5525557, -0.21556832, 8.4224271774292, -8.40130615234375, 1.0799428224563599, 24.07425308227539, -13.991467475891113, -83.86407470703125, 
538, 2519210105, 0.63072896, -0.49302745, -0.5583101, -0.21770376, 8.20559024810791, -5.269925594329834, 0.8241895437240601, 31.662309646606445, -7.350818634033203, -55.818599700927734, 
539, 2519226772, 0.6295325, -0.4886962, -0.56261814, -0.21983123, 6.653875350952148, -1.6900142431259155, -0.3339293301105499, 14.209786415100098, -9.024386405944824, -41.76783752441406, 
540, 2519243439, 0.6267365, -0.4860763, -0.5667126, -0.2230878, 5.560958385467529, 0.5843969583511353, -1.1169902086257935, -3.2597434520721436, -13.083405494689941, -41.73009490966797, 
541, 2519260106, 0.62052274, -0.4868753, -0.5697216, -0.23091424, 5.204630374908447, 0.6956055164337158, -0.6121092438697815, -48.87773895263672, -11.692334175109863, -49.6888427734375, 
542, 2519276773, 0.6103544, -0.4910078, -0.57163244, -0.24416271, 6.767518043518066, -1.2578039169311523, -1.2936890125274658, -99.31692504882812, -9.652801513671875, -62.34562683105469, 
543, 2519293440, 0.5990544, -0.49395886, -0.5753093, -0.25721198, 9.848066329956055, -5.227320194244385, -3.186367988586426, -94.42491149902344, -20.214704513549805, -74.00935363769531, 
544, 2519310107, 0.59030324, -0.4931839, -0.58074874, -0.26653853, 13.2702054977417, -8.476343154907227, -4.35974645614624, -52.57190704345703, -23.43683624267578, -74.9235610961914, 
545, 2519326774, 0.58694357, -0.48913634, -0.58681625, -0.2681222, 13.403876304626465, -8.778945922851562, -3.9689157009124756, 11.0619535446167, -24.693342208862305, -48.87175750732422, 
546, 2519343441, 0.58734924, -0.48248303, -0.5944688, -0.26236993, 11.86650562286377, -6.00059700012207, -2.4459102153778076, 66.75817108154297, -35.73992156982422, -28.23565101623535, 
547, 2519360108, 0.5902984, -0.47369504, -0.60280997, -0.25254932, 9.922828674316406, -3.2274293899536133, -0.5106698274612427, 101.68770599365234, -37.755943298339844, -18.264249801635742, 
548, 2519376775, 0.59409297, -0.46547443, -0.6088711, -0.24426031, 9.594629287719727, -0.23818406462669373, -0.258025199174881, 91.82982635498047, -20.995098114013672, -13.247152328491211, 
549, 2519393442, 0.5967738, -0.45842832, -0.61410934, -0.23785374, 9.394316673278809, 2.297128677368164, -1.7726202011108398, 74.20932006835938, -18.24935531616211, -15.233726501464844, 
550, 2519410109, 0.5970079, -0.45353016, -0.6184624, -0.2353648, 9.065564155578613, 3.6864030361175537, -3.460808038711548, 39.70737838745117, -16.100692749023438, -23.398475646972656, 
551, 2519426776, 0.5938509, -0.4515789, -0.6222427, -0.23713219, 9.330111503601074, 2.4007914066314697, -3.4062798023223877, -1.9693896770477295, -19.638587951660156, -31.976226806640625, 
552, 2519443443, 0.59025115, -0.44994178, -0.62595934, -0.23943916, 12.124236106872559, -0.3230344355106354, -2.1483047008514404, -7.022791385650635, -20.09035873413086, -33.31082534790039, 
553, 2519460110, 0.5889814, -0.44738156, -0.6289004, -0.2396562, 12.001521110534668, -1.0138765573501587, -1.5257999897003174, 11.656064987182617, -11.861830711364746, -22.54253387451172, 
554, 2519476777, 0.5877974, -0.44586384, -0.6311554, -0.23946355, 10.027920722961426, 0.719555675983429, -2.6142823696136475, 8.34356689453125, -11.696576118469238, -14.109936714172363, 
555, 2519493444, 0.5851072, -0.44580495, -0.6330579, -0.24113347, 9.530009269714355, 1.7159944772720337, -2.5933125019073486, -10.822135925292969, -13.493814468383789, -16.676942825317383, 
556, 2519510111, 0.58135426, -0.44712073, -0.6340056, -0.24524952, 10.03564739227295, 1.8207881450653076, -1.9469220638275146, -31.829559326171875, -9.055602073669434, -19.33280372619629, 
557, 2519526778, 0.577082, -0.45001724, -0.6334265, -0.25145978, 10.064287185668945, 1.0237362384796143, -1.8800606727600098, -51.437252044677734, -1.4544256925582886, -16.955354690551758, 
558, 2519543445, 0.5728757, -0.45315447, -0.63243526, -0.25785702, 9.772099494934082, 0.022640952840447426, -2.6459591388702393, -53.71040344238281, 0.6152493953704834, -15.22934341430664, 
559, 2519560112, 0.5690633, -0.45587394, -0.63158447, -0.26352856, 9.597530364990234, -0.5323493480682373, -2.923799991607666, -47.427818298339844, 0.25004610419273376, -13.911110877990723, 
560, 2519576779, 0.5655891, -0.45807558, -0.63110095, -0.26830477, 9.07859992980957, -0.6893041729927063, -3.0994958877563477, -39.78641128540039, -1.5886054039001465, -13.187182426452637, 
561, 2519593446, 0.5621145, -0.46004522, -0.6307927, -0.27292222, 8.70121955871582, -0.29869741201400757, -3.407449722290039, -37.87004470825195, -2.339714288711548, -14.12366008758545, 
562, 2519610113, 0.5580218, -0.46222565, -0.6306804, -0.27785173, 8.726771354675293, -0.5816252827644348, -3.255892753601074, -41.62315368652344, -5.179609775543213, -16.187807083129883, 
563, 2519626780, 0.55401, -0.4643279, -0.63045055, -0.28285125, 9.468092918395996, -0.856731653213501, -2.767991781234741, -41.590492248535156, -4.000930309295654, -16.263378143310547, 
564, 2519643447, 0.5503425, -0.4667284, -0.62958175, -0.28794914, 10.149553298950195, -1.065007209777832, -2.145536422729492, -43.29552459716797, -0.34478142857551575, -12.635007858276367, 
565, 2519660114, 0.54755, -0.4692724, -0.628056, -0.29243484, 10.917647361755371, -1.434370517730713, -2.117436647415161, -39.682464599609375, 3.6679131984710693, -5.857831001281738, 
566, 2519676781, 0.5460139, -0.47154936, -0.62610537, -0.295808, 10.897476196289062, -1.3221096992492676, -2.0137686729431152, -30.675701141357422, 7.624659061431885, 1.0706913471221924, 
567, 2519693448, 0.54508924, -0.47393644, -0.6236236, -0.29892436, 9.895660400390625, -0.7735965251922607, -2.204073429107666, -29.084672927856445, 11.182825088500977, 5.4711222648620605, 
568, 2519710115, 0.54411364, -0.4770708, -0.62041914, -0.30236438, 9.230218887329102, -0.16709521412849426, -2.181030035018921, -34.928611755371094, 13.180465698242188, 9.714102745056152, 
569, 2519726782, 0.54229784, -0.4821302, -0.61568487, -0.307239, 9.030623435974121, 0.1113889068365097, -2.1243972778320312, -54.1878776550293, 16.013050079345703, 15.835846900939941, 
570, 2519743449, 0.5398533, -0.48856828, -0.60995173, -0.31275952, 8.76495361328125, -0.5231420397758484, -3.198287010192871, -66.25975799560547, 16.29030418395996, 21.256322860717773, 
571, 2519760116, 0.537093, -0.49527127, -0.60416526, -0.31815404, 9.178403854370117, -0.7230216860771179, -3.351832866668701, -67.89249420166016, 14.16744327545166, 22.336549758911133, 
572, 2519776783, 0.5335441, -0.50211895, -0.5984279, -0.32417783, 10.037149429321289, -1.1178879737854004, -3.225574254989624, -73.6216812133789, 12.531583786010742, 18.722084045410156, 
573, 2519793450, 0.53011143, -0.5078997, -0.59320664, -0.33034182, 10.178947448730469, -1.1968481540679932, -2.7345380783081055, -68.73594665527344, 13.971464157104492, 12.290884017944336, 
574, 2519810117, 0.5268332, -0.5122485, -0.588943, -0.33644417, 10.189126968383789, -1.0553747415542603, -2.6151158809661865, -60.55561065673828, 14.137251853942871, 3.6787514686584473, 
575, 2519826784, 0.523381, -0.5154366, -0.5855441, -0.34283438, 10.108118057250977, -1.0952774286270142, -2.4609673023223877, -56.13121032714844, 13.990398406982422, -5.514998435974121, 
576, 2519843451, 0.5203678, -0.51719874, -0.5830644, -0.3489396, 9.817681312561035, -1.655659556388855, -2.1278223991394043, -46.14023971557617, 14.792436599731445, -12.454636573791504, 
577, 2519860118, 0.518351, -0.51770765, -0.581195, -0.354265, 9.588744163513184, -2.176269292831421, -1.9683772325515747, -33.52246856689453, 16.828676223754883, -14.480216026306152, 
578, 2519876785, 0.5174417, -0.51731527, -0.57986456, -0.35832438, 9.347051620483398, -2.148837089538574, -2.2144253253936768, -20.0024471282959, 17.01573371887207, -12.807419776916504, 
579, 2519893452, 0.5169849, -0.51669806, -0.57877815, -0.36161542, 9.225981712341309, -1.6647748947143555, -2.479339838027954, -13.93635082244873, 15.773303031921387, -10.740853309631348, 
580, 2519910119, 0.5164027, -0.5162952, -0.5778471, -0.36450022, 9.3019437789917, -1.2510930299758911, -2.7726781368255615, -13.143552780151367, 12.749826431274414, -9.31977653503418, 
581, 2519926786, 0.5158649, -0.5158637, -0.5769386, -0.36730093, 9.388978004455566, -1.053746223449707, -2.861721992492676, -12.499981880187988, 12.627167701721191, -9.111468315124512, 
582, 2519943453, 0.5151901, -0.5156752, -0.57587105, -0.3701769, 9.428226470947266, -0.9308510422706604, -2.38788104057312, -14.549846649169922, 12.309610366821289, -8.202447891235352, 
583, 2519960120, 0.51454985, -0.51602334, -0.5741906, -0.37318045, 9.638189315795898, -0.6730799674987793, -1.886459469795227, -18.396013259887695, 13.707991600036621, -4.2742228507995605, 
584, 2519976787, 0.5137038, -0.5173388, -0.57124007, -0.37703305, 9.628707885742188, -0.8436940312385559, -1.5506786108016968, -29.16378402709961, 17.914684295654297, 0.516968846321106, 
585, 2519993454, 0.51290274, -0.5194424, -0.5671985, -0.38130888, 9.45699405670166, -1.3912039995193481, -1.6358561515808105, -36.28184127807617, 21.39877700805664, 6.109652519226074, 
586, 2520010121, 0.5132414, -0.5212236, -0.5633073, -0.38417992, 9.518975257873535, -1.2220453023910522, -1.9594240188598633, -25.20657730102539, 21.13300895690918, 12.245696067810059, 
587, 2520026788, 0.5136138, -0.52339834, -0.55909705, -0.3868664, 9.643999099731445, -0.6810110211372375, -1.744734764099121, -26.609033584594727, 20.687664031982422, 15.645368576049805, 
588, 2520043455, 0.51319075, -0.5264253, -0.55416983, -0.39039424, 9.582496643066406, -0.5017872452735901, -1.7777597904205322, -37.62351989746094, 20.916866302490234, 16.410688400268555, 
589, 2520060122, 0.51223505, -0.53032625, -0.5483227, -0.39460298, 9.986690521240234, -0.5601791143417358, -1.9689615964889526, -47.6982536315918, 22.245323181152344, 19.236913681030273, 
590, 2520076789, 0.5108903, -0.5353754, -0.54141414, -0.39904252, 10.21591854095459, -0.3736647367477417, -1.411925196647644, -56.924842834472656, 22.237150192260742, 25.567852020263672, 
591, 2520093456, 0.50905156, -0.5417761, -0.53303355, -0.40400553, 10.2091703414917, -0.4264307916164398, -1.1157963275909424, -69.48487854003906, 23.774627685546875, 32.82333755493164, 
592, 2520110123, 0.5069386, -0.5489973, -0.5237867, -0.40897796, 10.357687950134277, -0.8219523429870605, -0.4997212886810303, -75.8250961303711, 23.538421630859375, 38.26277160644531, 
593, 2520126790, 0.5050944, -0.5565717, -0.5137512, -0.41372377, 10.487086296081543, -1.2807906866073608, -0.19255048036575317, -77.46409606933594, 25.382259368896484, 44.05591583251953, 
594, 2520143457, 0.5042129, -0.5637725, -0.50349957, -0.41763404, 10.748000144958496, -1.1893603801727295, -0.09593645483255386, -70.1275634765625, 27.369184494018555, 49.19144821166992, 
595, 2520160124, 0.5040268, -0.5703553, -0.4934144, -0.42094424, 10.867973327636719, -0.03950216993689537, -0.14688079059123993, -62.80938720703125, 28.62847137451172, 50.48756408691406, 
596, 2520176791, 0.503362, -0.5768548, -0.48320445, -0.4247101, 10.570155143737793, 0.9874177575111389, -0.21300536394119263, -66.287353515625, 29.439516067504883, 47.7341194152832, 
597, 2520193458, 0.5014315, -0.5840622, -0.47195157, -0.42976683, 9.872118949890137, 1.4707980155944824, -0.048483625054359436, -81.117919921875, 31.87590980529785, 46.077945709228516, 
598, 2520210125, 0.49777082, -0.59230024, -0.45970136, -0.43598107, 9.320422172546387, 1.268918752670288, 0.09694267809391022, -98.29545593261719, 31.27033042907715, 44.339351654052734, 
599, 2520226792, 0.4928552, -0.6007946, -0.44659764, -0.4434979, 9.45422077178955, 0.6115807294845581, 0.3485076129436493, -111.00328826904297, 34.73698806762695, 40.42498779296875, 
600, 2520243459, 0.48692822, -0.6094129, -0.43232292, -0.45234278, 9.713541030883789, 0.13927067816257477, 0.38229531049728394, -123.23259735107422, 40.668190002441406, 38.0626335144043, 
601, 2520260126, 0.480307, -0.61831653, -0.41678166, -0.46182588, 9.466948509216309, 0.13144993782043457, -0.07394067943096161, -132.9427490234375, 44.594181060791016, 39.9224853515625, 
602, 2520276793, 0.47294933, -0.6274526, -0.4008443, -0.4711115, 9.306475639343262, 0.27744150161743164, -0.46386265754699707, -137.5380096435547, 42.179683685302734, 40.58272171020508, 
603, 2520293460, 0.4646402, -0.6362914, -0.38495296, -0.48068097, 9.408439636230469, 0.03528878837823868, -0.7558276653289795, -141.3277587890625, 41.567386627197266, 35.55961227416992, 
604, 2520310127, 0.4557733, -0.6443863, -0.3693144, -0.49055478, 9.300705909729004, -0.387483686208725, -0.8789323568344116, -141.37367248535156, 43.048004150390625, 29.663501739501953, 
605, 2520326794, 0.44679153, -0.65165097, -0.35390747, -0.50047785, 9.30844783782959, -0.7623322606086731, -0.8790794014930725, -138.6256866455078, 45.02414321899414, 25.975929260253906, 
606, 2520343461, 0.43794203, -0.65821594, -0.33875865, -0.51009935, 9.354222297668457, -0.8370822668075562, -0.9695842266082764, -134.28155517578125, 45.59125900268555, 24.48539161682129, 
607, 2520360128, 0.42926228, -0.66429055, -0.32386324, -0.51919615, 9.309712409973145, -0.7553223967552185, -1.1606471538543701, -129.93536376953125, 44.54867935180664, 24.35639190673828, 
608, 2520376795, 0.42020103, -0.67034286, -0.30884135, -0.5279096, 9.190921783447266, -0.5864901542663574, -1.3285220861434937, -131.2124481201172, 42.38556671142578, 24.640451431274414, 
609, 2520393462, 0.40996507, -0.67679274, -0.29343903, -0.5364455, 9.284708023071289, -0.6836379170417786, -1.4044302701950073, -138.79579162597656, 38.717342376708984, 23.474397659301758, 
610, 2520410129, 0.3987781, -0.6833494, -0.27772823, -0.5448642, 9.485992431640625, -0.8603966236114502, -1.2780348062515259, -144.4291229248047, 36.71723556518555, 21.932235717773438, 
611, 2520426796, 0.387084, -0.68976504, -0.26171505, -0.55307823, 9.500506401062012, -0.8856717944145203, -1.2881407737731934, -147.17445373535156, 36.13069152832031, 21.727083206176758, 
612, 2520443463, 0.37493175, -0.6960923, -0.24526441, -0.56100553, 9.526853561401367, -0.8698658347129822, -1.4944100379943848, -150.26710510253906, 35.43444061279297, 22.646085739135742, 
613, 2520460130, 0.36226588, -0.7021707, -0.22837952, -0.5688256, 9.645895957946777, -1.0397253036499023, -1.4822382926940918, -153.58380126953125, 36.124637603759766, 22.58087730407715, 
614, 2520476797, 0.34905615, -0.7079851, -0.21117683, -0.5764733, 9.548216819763184, -1.294155478477478, -1.3275543451309204, -156.5308380126953, 36.25223922729492, 21.981571197509766, 
615, 2520493464, 0.33552074, -0.7136589, -0.19376042, -0.583587, 9.203107833862305, -1.4489636421203613, -1.487668752670288, -157.8572235107422, 34.23952865600586, 22.783777236938477, 
616, 2520510131, 0.321725, -0.719264, -0.17602058, -0.59005874, 9.123257637023926, -1.5011091232299805, -1.562363624572754, -159.42401123046875, 31.757911682128906, 24.688838958740234, 
617, 2520526798, 0.30732775, -0.72489536, -0.1576778, -0.5959984, 8.967138290405273, -1.6440497636795044, -1.63648521900177, -164.2640838623047, 29.61932373046875, 26.411039352416992, 
618, 2520543465, 0.2924155, -0.73022854, -0.13884194, -0.6016498, 9.021923065185547, -1.6705784797668457, -1.78804349899292, -167.9148406982422, 29.88292121887207, 27.013612747192383, 
619, 2520560132, 0.2769371, -0.7350332, -0.11942787, -0.60726357, 8.941640853881836, -1.8143900632858276, -1.992805004119873, -172.0561981201172, 32.50127410888672, 27.11416244506836, 
620, 2520576799, 0.26099327, -0.7397406, -0.09966681, -0.6121543, 8.678423881530762, -2.0916078090667725, -2.158430814743042, -175.08262634277344, 29.531278610229492, 28.188976287841797, 
621, 2520593466, 0.24459556, -0.74459, -0.079499796, -0.615986, 8.531672477722168, -2.2930006980895996, -2.2975337505340576, -178.63247680664062, 23.96858024597168, 30.304922103881836, 
622, 2520610133, 0.22834522, -0.74929243, -0.05976085, -0.6187471, 8.454273223876953, -2.706301212310791, -2.4319865703582764, -175.23382568359375, 18.47502899169922, 30.419614791870117, 
623, 2520626800, 0.21275593, -0.75357807, -0.041246552, -0.62060755, 8.427373886108398, -2.962034225463867, -2.2393276691436768, -165.5915985107422, 13.966754913330078, 28.12625503540039, 
624, 2520643467, 0.19714566, -0.75769514, -0.02365992, -0.6216688, 8.954349517822266, -3.0317211151123047, -2.385502815246582, -161.2692413330078, 9.189861297607422, 24.311792373657227, 
625, 2520660134, 0.18198575, -0.76118404, -0.007538028, -0.62243325, 9.190972328186035, -3.6432995796203613, -3.3945162296295166, -151.76004028320312, 8.426678657531738, 18.87002944946289, 
626, 2520676801, 0.16836673, -0.76388264, 0.006237327, -0.6229744, 8.819835662841797, -3.598071575164795, -3.244363784790039, -132.64706420898438, 7.803431510925293, 13.383458137512207, 
627, 2520693468, 0.15662315, -0.7664486, 0.017144758, -0.6226813, 8.552773475646973, -3.6586434841156006, -2.818906545639038, -110.38826751708984, 0.6081677675247192, 7.292551040649414, 
628, 2520710135, 0.14641225, -0.76835924, 0.025551114, -0.62252283, 8.706005096435547, -3.544055700302124, -2.669236421585083, -90.87765502929688, 1.2655795812606812, 0.577512800693512, 
629, 2520726802, 0.13643482, -0.77020687, 0.031837087, -0.6222166, 9.263847351074219, -3.8035457134246826, -2.2549824714660645, -80.52652740478516, -1.406310796737671, -9.489751815795898, 
630, 2520743469, 0.1264128, -0.7717874, 0.037351012, -0.62206835, 11.221426963806152, -5.729327201843262, -0.27862295508384705, -77.17194366455078, -0.1317545622587204, -13.883777618408203, 
631, 2520760136, 0.11994907, -0.7733088, 0.040454596, -0.6212643, 12.091161727905273, -6.974803447723389, -2.691833972930908, -48.10220718383789, -6.381229400634766, -10.90095043182373, 
632, 2520776803, 0.121041514, -0.774142, 0.038743526, -0.62012273, 12.528470993041992, -3.2268476486206055, -1.3416674137115479, 13.10930347442627, -11.302640914916992, -3.7886855602264404, 
633, 2520793470, 0.11910938, -0.7750588, 0.041938543, -0.6191431, 9.736119270324707, 1.5651901960372925, -1.0399385690689087, -23.934537887573242, -5.9131293296813965, 9.272748947143555, 
634, 2520810137, 0.11219971, -0.7773581, 0.048482463, -0.61706984, 9.441414833068848, 2.703458309173584, -2.747563600540161, -66.15806579589844, -13.447129249572754, 6.456919193267822, 
635, 2520826804, 0.10161763, -0.7804805, 0.054587856, -0.6144466, 9.59591293334961, 1.5625697374343872, -3.267592191696167, -84.73057556152344, -18.974733352661133, -11.283991813659668, 
636, 2520843471, 0.0890002, -0.7845487, 0.0596306, -0.6107428, 10.690342903137207, 0.3039301037788391, -2.67625093460083, -92.21626281738281, -28.7290096282959, -25.16600227355957, 
637, 2520860138, 0.074811764, -0.7879298, 0.06557954, -0.6076754, 10.181232452392578, -0.8637446761131287, -2.4169154167175293, -103.80360412597656, -21.2048397064209, -26.97245979309082, 
638, 2520876805, 0.059567213, -0.79126835, 0.07294921, -0.60417277, 9.046578407287598, -0.7435563802719116, -2.4067955017089844, -115.62751007080078, -22.173612594604492, -23.449460983276367, 
