sep=,
DeviceTag:,Trunk - 8,,,,,,,,,,,,,,,,,
FirmwareVersion:,3.0.0,,,,,,,,,,,,,,,,,
AppVersion:,2023.6.1,,,,,,,,,,,,,,,,,
StartTime:,2024-05-23 11:49:42.000 +0200,,,,,,,,,,,,,,,,,
 2024,,,,,,,,,,,,,,,,,,,

PacketCounter,SampleTimeFine,Quat_W,Quat_X,Quat_Y,Quat_Z,Acc_X,Acc_Y,Acc_Z,Gyr_X,Gyr_Y,Gyr_Z,
0, 2520965633, 0.7973413, 0.14079179, -0.52099985, 0.27015498, 0.0, 0.0, 0.0, 0.0, 0.0, 0.0, 
1, 2520982300, 0.7967967, 0.14148535, -0.5211912, 0.2710296, 9.063403129577637, -0.5912434458732605, 4.139990329742432, 3.8154795169830322, -0.9772399067878723, 2.6349258422851562, 
2, 2520998967, 0.79640365, 0.14169788, -0.52138305, 0.27170372, 9.047170639038086, -0.6095143556594849, 4.184110164642334, 3.8827385902404785, -0.16059164702892303, 2.4209957122802734, 
3, 2521015634, 0.7960491, 0.14207849, -0.5211358, 0.27301466, 8.999964714050293, -0.6143803000450134, 4.139223575592041, 4.856213092803955, 0.1978261023759842, 2.4679181575775146, 
4, 2521032301, 0.79585236, 0.14211813, -0.52104443, 0.27374116, 8.945778846740723, -0.5738458633422852, 4.225915431976318, 5.5464630126953125, -0.2491987943649292, 2.776372194290161, 
5, 2521048968, 0.7957925, 0.14238681, -0.5205768, 0.27466375, 9.005090713500977, -0.5518794655799866, 4.205145835876465, 6.186358451843262, -0.07809314131736755, 3.0925228595733643, 
6, 2521065635, 0.7957369, 0.14271656, -0.5201154, 0.2755268, 9.01104736328125, -0.5468886494636536, 4.279366493225098, 5.933150768280029, 0.13447311520576477, 3.5112903118133545, 
7, 2521082302, 0.7957582, 0.14297262, -0.51961833, 0.27626923, 9.023911476135254, -0.556225061416626, 4.236828804016113, 5.961389064788818, 0.1693703979253769, 3.890576124191284, 
8, 2521098969, 0.795751, 0.1432655, -0.5191481, 0.27702126, 9.052948951721191, -0.5871015787124634, 4.280112266540527, 6.248366832733154, 0.3854648172855377, 4.013594150543213, 
9, 2521115636, 0.79581755, 0.1434747, -0.51862794, 0.27769467, 9.072211265563965, -0.6082301735877991, 4.333000183105469, 6.734586238861084, 1.1480063199996948, 4.01173734664917, 
10, 2521132303, 0.7958797, 0.14380684, -0.51798385, 0.278546, 9.056145668029785, -0.5877864956855774, 4.31854248046875, 7.452714920043945, 1.82514226436615, 3.7746400833129883, 
11, 2521148970, 0.79595906, 0.14412566, -0.5173634, 0.27930668, 9.031892776489258, -0.5323683023452759, 4.344564914703369, 7.706857681274414, 1.8130402565002441, 3.601870059967041, 
12, 2521165637, 0.796014, 0.14453267, -0.5167145, 0.28013948, 8.977104187011719, -0.5102700591087341, 4.350968360900879, 7.623884677886963, 1.8919529914855957, 3.4985995292663574, 
13, 2521182304, 0.7960689, 0.14490633, -0.5161321, 0.28086302, 8.935545921325684, -0.4837091267108917, 4.282532691955566, 7.640705585479736, 1.4522020816802979, 3.612096071243286, 
14, 2521198971, 0.7960366, 0.14536734, -0.5156334, 0.28163183, 8.908758163452148, -0.49345335364341736, 4.284945011138916, 7.547762870788574, 0.8191262483596802, 3.6662087440490723, 
15, 2521215638, 0.7959604, 0.14577076, -0.51529175, 0.282263, 8.912806510925293, -0.5148560404777527, 4.35533332824707, 7.2259202003479, -0.11145366728305817, 3.7660024166107178, 
16, 2521232305, 0.7957991, 0.14608751, -0.515012, 0.28306368, 8.962987899780273, -0.5987945795059204, 4.502169609069824, 5.966222763061523, -0.3210872411727905, 4.560072898864746, 
17, 2521248972, 0.7956512, 0.1464756, -0.5147841, 0.28369257, 8.883119583129883, -0.4943488538265228, 4.2816033363342285, 6.584641933441162, -1.1176295280456543, 3.636402130126953, 
18, 2521265639, 0.79536283, 0.147147, -0.5146638, 0.28437135, 8.978621482849121, -0.526552140712738, 4.240683078765869, 9.158989906311035, -2.581728935241699, 3.7579731941223145, 
19, 2521282306, 0.7950581, 0.147765, -0.51431316, 0.28553525, 9.001900672912598, -0.5526176691055298, 4.503017425537109, 7.112212657928467, -0.25491681694984436, 4.497974872589111, 
20, 2521298973, 0.7949644, 0.14811823, -0.5140182, 0.2861437, 8.863252639770508, -0.4795002043247223, 4.252311706542969, 7.115490913391113, -0.2095823585987091, 3.747894287109375, 
21, 2521315640, 0.7947426, 0.14859219, -0.51395726, 0.286623, 8.885916709899902, -0.45036259293556213, 4.3488850593566895, 6.740880012512207, -2.1468634605407715, 3.0183675289154053, 
22, 2521332307, 0.794432, 0.14895396, -0.5141185, 0.28700677, 8.969002723693848, -0.48072198033332825, 4.416814804077148, 4.91778564453125, -3.4857990741729736, 3.0989255905151367, 
23, 2521348974, 0.79415643, 0.14937882, -0.51414603, 0.2874992, 8.94985580444336, -0.5417727828025818, 4.3344621658325195, 5.584190845489502, -2.624802589416504, 3.133695363998413, 
24, 2521365641, 0.7939829, 0.14966066, -0.5141777, 0.28777438, 8.913289070129395, -0.5723944902420044, 4.358901023864746, 5.184574604034424, -2.2400293350219727, 2.7843313217163086, 
25, 2521382308, 0.7937506, 0.1500168, -0.5141951, 0.28819892, 8.893338203430176, -0.6243892908096313, 4.38210916519165, 5.335254192352295, -2.2817718982696533, 2.938507080078125, 
26, 2521398975, 0.7933897, 0.15043104, -0.51431334, 0.28876525, 8.953953742980957, -0.5934897661209106, 4.392495155334473, 5.603489398956299, -3.223972797393799, 3.517859697341919, 
27, 2521415642, 0.7930246, 0.15074797, -0.5144972, 0.2892745, 8.98245620727539, -0.5636153221130371, 4.405735969543457, 5.5605692863464355, -3.503030300140381, 3.939182758331299, 
28, 2521432309, 0.7926645, 0.15113798, -0.51459146, 0.28988975, 8.976223945617676, -0.5868401527404785, 4.40580940246582, 5.7827982902526855, -2.974038600921631, 3.7830731868743896, 
29, 2521448976, 0.7924196, 0.15145272, -0.51461047, 0.29036078, 8.965228080749512, -0.5783165097236633, 4.348188400268555, 5.65191650390625, -2.198780059814453, 3.2674765586853027, 
30, 2521465643, 0.7921888, 0.15181063, -0.514512, 0.29097742, 8.903197288513184, -0.5460169911384583, 4.386236667633057, 5.468299388885498, -1.3323216438293457, 3.1851320266723633, 
31, 2521482310, 0.7919419, 0.1522201, -0.5144061, 0.29162255, 8.892513275146484, -0.5113031268119812, 4.3440165519714355, 5.858138084411621, -1.421998143196106, 3.161773204803467, 
32, 2521498977, 0.7917559, 0.15247898, -0.5143189, 0.29214546, 8.954923629760742, -0.49671414494514465, 4.380364418029785, 5.625458717346191, -1.189601182937622, 3.463477611541748, 
33, 2521515644, 0.79157495, 0.15265466, -0.51431006, 0.29255912, 8.978174209594727, -0.5078957676887512, 4.422843933105469, 5.123283386230469, -1.5642510652542114, 3.4883861541748047, 
34, 2521532311, 0.79140836, 0.15288179, -0.5142411, 0.29301196, 9.002065658569336, -0.5175037980079651, 4.415651798248291, 5.2719268798828125, -1.2228337526321411, 3.2624311447143555, 
35, 2521548978, 0.7912988, 0.15308608, -0.51411366, 0.29342493, 9.000271797180176, -0.5384162068367004, 4.410590648651123, 5.104752540588379, -0.6918182969093323, 2.9741342067718506, 
36, 2521565645, 0.79117805, 0.15342003, -0.5138444, 0.2940469, 8.982919692993164, -0.5529037117958069, 4.375953197479248, 4.8640947341918945, 0.14320062100887299, 2.58976411819458, 
37, 2521582312, 0.7912728, 0.15342544, -0.5136051, 0.29420713, 8.986149787902832, -0.5604343414306641, 4.3580427169799805, 4.924541473388672, 0.6942834258079529, 2.5959367752075195, 
38, 2521598979, 0.7913416, 0.1534474, -0.5133258, 0.29449776, 8.977351188659668, -0.5845998525619507, 4.3673200607299805, 4.568274974822998, 1.0209288597106934, 2.7669339179992676, 
39, 2521615646, 0.7914523, 0.15329488, -0.51311266, 0.29465175, 9.02225399017334, -0.601117730140686, 4.309671878814697, 3.9429731369018555, 0.9762281775474548, 3.069810390472412, 
40, 2521632313, 0.79140365, 0.15340738, -0.5128415, 0.29519522, 9.033524513244629, -0.6411054134368896, 4.27854061126709, 3.9947359561920166, 0.8539402484893799, 3.0509979724884033, 
41, 2521648980, 0.7913617, 0.15347242, -0.5126731, 0.29556656, 9.03502368927002, -0.654745876789093, 4.348484039306641, 4.264322757720947, 0.19803741574287415, 2.983994960784912, 
42, 2521665647, 0.79125214, 0.15360329, -0.5125288, 0.2960418, 9.027226448059082, -0.6789950728416443, 4.375848770141602, 4.18375825881958, -0.10786150395870209, 3.0537514686584473, 
43, 2521682314, 0.791203, 0.1534615, -0.512486, 0.29632008, 8.958918571472168, -0.7426493763923645, 4.486845970153809, 2.330960988998413, -0.11838832497596741, 3.173964738845825, 
44, 2521698981, 0.7910564, 0.15372585, -0.5124976, 0.29655457, 8.886540412902832, -0.6024795770645142, 4.147575378417969, 4.588490009307861, -1.6602729558944702, 1.8089101314544678, 
45, 2521715648, 0.7909159, 0.1539375, -0.5124444, 0.296911, 9.054533958435059, -0.6000827550888062, 4.25874662399292, 4.966738700866699, -0.9979285597801208, 2.619091033935547, 
46, 2521732315, 0.79106104, 0.153582, -0.5121878, 0.29715115, 8.883024215698242, -0.7146364450454712, 4.4841742515563965, 0.6644831299781799, 2.256479024887085, 2.74691104888916, 
47, 2521748982, 0.79122865, 0.15332805, -0.51205546, 0.2970641, 8.794130325317383, -0.6044326424598694, 4.079484939575195, 0.5985944271087646, 1.0280041694641113, 1.0489169359207153, 
48, 2521765649, 0.79118425, 0.15316921, -0.51236176, 0.29673603, 8.899572372436523, -0.6300565004348755, 4.253474235534668, -0.6999886631965637, -2.477266311645508, 0.15060266852378845, 
49, 2521782316, 0.79127544, 0.15263812, -0.51279, 0.29602572, 9.049816131591797, -0.669617772102356, 4.33849573135376, -2.0619053840637207, -2.4469540119171143, 0.3637131154537201, 
50, 2521798983, 0.79145783, 0.15213004, -0.51289594, 0.29561606, 8.987723350524902, -0.7357447743415833, 4.30253267288208, -2.5353431701660156, 0.0680273249745369, 0.325883150100708, 
51, 2521815650, 0.79172295, 0.15151799, -0.5129364, 0.29515028, 8.961549758911133, -0.8160957098007202, 4.299083709716797, -3.6909821033477783, 0.9157309532165527, -0.08409930765628815, 
52, 2521832317, 0.791946, 0.1509878, -0.5129754, 0.29475522, 8.985629081726074, -0.8313326239585876, 4.289000034332275, -3.1670165061950684, 0.7147351503372192, -0.048542462289333344, 
53, 2521848984, 0.7921006, 0.15055181, -0.51306236, 0.29441097, 8.942655563354492, -0.8198612928390503, 4.280489444732666, -2.7099835872650146, 0.10840575397014618, -0.05515054240822792, 
54, 2521865651, 0.7922724, 0.15009607, -0.51315945, 0.2940121, 8.892068862915039, -0.8457702398300171, 4.287810802459717, -2.733931303024292, 0.09077140688896179, -0.19301089644432068, 
55, 2521882318, 0.792434, 0.14968385, -0.5132463, 0.293635, 8.866165161132812, -0.8566844463348389, 4.311143398284912, -2.2845375537872314, 0.047261837869882584, -0.20408199727535248, 
56, 2521898985, 0.79255027, 0.14939272, -0.5133065, 0.2933642, 8.87654972076416, -0.8500192165374756, 4.292561054229736, -1.2961498498916626, -0.0894075408577919, -0.0919559970498085, 
57, 2521915652, 0.7926383, 0.14910632, -0.5134091, 0.2930921, 8.868612289428711, -0.8080032467842102, 4.362401962280273, -0.7700521349906921, -0.4626869857311249, 0.2201027274131775, 
58, 2521932319, 0.7926056, 0.14900771, -0.5135092, 0.29305544, 8.933647155761719, -0.793324887752533, 4.275233745574951, -0.04699289798736572, -0.9266738891601562, 0.4630775451660156, 
59, 2521948986, 0.7925148, 0.14884521, -0.5137549, 0.29295295, 8.950508117675781, -0.8121894001960754, 4.362173080444336, -0.09753956645727158, -1.9067696332931519, 0.9436999559402466, 
60, 2521965653, 0.79236096, 0.14882015, -0.5140019, 0.29294863, 8.961721420288086, -0.8277646899223328, 4.367419719696045, 1.1507915258407593, -2.3195180892944336, 1.1483325958251953, 
61, 2521982320, 0.7921813, 0.14886308, -0.5142331, 0.2930065, 8.935295104980469, -0.8301756381988525, 4.390573024749756, 1.8527202606201172, -2.4021315574645996, 1.2895225286483765, 
62, 2521998987, 0.7920356, 0.14883676, -0.51445323, 0.29302737, 8.947469711303711, -0.8363080024719238, 4.462620735168457, 1.5482234954833984, -2.141394853591919, 1.3384811878204346, 
63, 2522015654, 0.7919343, 0.1486952, -0.5146563, 0.29301634, 8.959906578063965, -0.7910743951797485, 4.43314266204834, 1.1944866180419922, -1.7374376058578491, 1.6376888751983643, 
64, 2522032321, 0.7918324, 0.14845946, -0.5148375, 0.29309303, 8.941211700439453, -0.7665591835975647, 4.465188026428223, 0.600925087928772, -1.3200335502624512, 2.213564395904541, 
65, 2522048988, 0.79170984, 0.14811783, -0.5150735, 0.29318258, 8.891077995300293, -0.7505030035972595, 4.4414896965026855, 3.8419049815274775E-5, -1.4823544025421143, 2.7632133960723877, 
66, 2522065655, 0.7915019, 0.14778945, -0.5153918, 0.29335034, 8.86909294128418, -0.732119619846344, 4.4149932861328125, -0.021764393895864487, -2.1741151809692383, 3.2604458332061768, 
67, 2522082322, 0.7912449, 0.1474472, -0.51579195, 0.29351273, 8.904899597167969, -0.738795816898346, 4.424307823181152, -0.028615795075893402, -2.7996668815612793, 3.559922218322754, 
68, 2522098989, 0.7909476, 0.14716609, -0.5162343, 0.293677, 8.955902099609375, -0.7806902527809143, 4.424586772918701, 0.17690692842006683, -3.300779342651367, 3.438979387283325, 
69, 2522115656, 0.79068005, 0.1468282, -0.51669246, 0.29376096, 8.97059154510498, -0.8174128532409668, 4.469210147857666, 0.05537467077374458, -3.3004086017608643, 3.408846139907837, 
70, 2522132323, 0.79038745, 0.14659534, -0.5171975, 0.29377666, 8.906155586242676, -0.8290483951568604, 4.434679985046387, -0.0019529686542227864, -3.915689468383789, 2.609025239944458, 
71, 2522148990, 0.7899887, 0.14678119, -0.5176484, 0.29396167, 9.003647804260254, -0.7843226194381714, 4.20833158493042, 2.857327461242676, -4.669509410858154, 2.0851686000823975, 
72, 2522165657, 0.7898047, 0.14665496, -0.517806, 0.29424128, 8.998954772949219, -0.8765251040458679, 4.4975409507751465, 1.8190783262252808, -1.5692390203475952, 2.9542715549468994, 
73, 2522182324, 0.78974545, 0.14645977, -0.51780486, 0.29449892, 8.847583770751953, -0.8781116604804993, 4.301267623901367, 1.2987431287765503, -0.14277797937393188, 2.5377705097198486, 
74, 2522198991, 0.7895, 0.14657396, -0.5180944, 0.2945911, 8.823399543762207, -0.7825456261634827, 4.240224838256836, 2.2912607192993164, -3.2063193321228027, 1.3391215801239014, 
75, 2522215658, 0.78904843, 0.1467722, -0.51870173, 0.29463398, 8.984949111938477, -0.8190944790840149, 4.488689422607422, 2.3893959522247314, -5.906807899475098, 1.6292623281478882, 
76, 2522232325, 0.7887952, 0.14692749, -0.5188651, 0.29494664, 8.991966247558594, -0.8672334551811218, 4.444469451904297, 3.453226089477539, -2.4200289249420166, 2.225865364074707, 
77, 2522248992, 0.7887336, 0.1469613, -0.5187592, 0.29528084, 8.929136276245117, -0.8977644443511963, 4.364223957061768, 3.340306282043457, -0.032035090029239655, 2.16504168510437, 
78, 2522265659, 0.7886641, 0.1470202, -0.5186729, 0.29558852, 8.966279029846191, -0.8213614821434021, 4.3604607582092285, 3.4937009811401367, -0.26520031690597534, 2.025606155395508, 
79, 2522282326, 0.7885256, 0.14709117, -0.5186765, 0.29591635, 8.989849090576172, -0.772129237651825, 4.408346176147461, 3.2119996547698975, -0.9852502942085266, 2.1823177337646484, 
80, 2522298993, 0.7884562, 0.14708334, -0.5186445, 0.2961611, 8.923701286315918, -0.7212781310081482, 4.359550952911377, 2.887742042541504, -0.5116969347000122, 2.02679705619812, 
81, 2522315660, 0.78842056, 0.14710249, -0.5185668, 0.29638246, 8.819796562194824, -0.7273394465446472, 4.358652591705322, 2.7264721393585205, -0.20791752636432648, 1.5691365003585815, 
82, 2522332327, 0.7883867, 0.1471652, -0.5184874, 0.2965801, 8.7992525100708, -0.7328400611877441, 4.312697410583496, 2.7482941150665283, -0.3054378628730774, 1.2290383577346802, 
83, 2522348994, 0.7883757, 0.14719464, -0.5183998, 0.2967479, 8.80891227722168, -0.7677969336509705, 4.349323272705078, 2.7511885166168213, -0.17633704841136932, 1.277062177658081, 
84, 2522365661, 0.788314, 0.14730126, -0.5183808, 0.29689208, 8.869527816772461, -0.7645393013954163, 4.281518936157227, 2.9086551666259766, -0.9137651324272156, 1.00975501537323, 
85, 2522382328, 0.78819054, 0.14740013, -0.5185121, 0.29694167, 8.942398071289062, -0.7923627495765686, 4.3478217124938965, 2.368431806564331, -2.0377142429351807, 0.8455008268356323, 
86, 2522398995, 0.78801286, 0.1475979, -0.51867294, 0.29703373, 9.045034408569336, -0.8311258554458618, 4.3650054931640625, 2.8891642093658447, -2.542746067047119, 0.7917142510414124, 
87, 2522415662, 0.7878505, 0.14789885, -0.51871043, 0.2972496, 9.034773826599121, -0.8395483493804932, 4.3879618644714355, 4.1048903465271, -1.9054185152053833, 0.9261746406555176, 
88, 2522432329, 0.78774637, 0.14818111, -0.51862776, 0.29752892, 9.033493041992188, -0.8644065856933594, 4.45482873916626, 4.583053112030029, -0.9631399512290955, 1.1703530550003052, 
89, 2522448996, 0.7876566, 0.14849876, -0.5184187, 0.2979722, 9.01427173614502, -0.8690277338027954, 4.462319374084473, 5.418699741363525, -0.12984998524188995, 1.685725450515747, 
90, 2522465663, 0.7875713, 0.14881657, -0.5181343, 0.2985328, 8.979243278503418, -0.8326359391212463, 4.471244812011719, 6.136906623840332, 0.3890570104122162, 2.2974724769592285, 
91, 2522482330, 0.78747255, 0.149165, -0.5178009, 0.29919732, 8.939229965209961, -0.8332306146621704, 4.432255744934082, 6.841237545013428, 0.6298357248306274, 2.754396915435791, 
92, 2522498997, 0.7873212, 0.14960292, -0.51745665, 0.29997155, 8.911470413208008, -0.774060845375061, 4.401295185089111, 7.7615966796875, 0.4223790764808655, 3.1113030910491943, 
93, 2522515664, 0.7870994, 0.15014036, -0.5171406, 0.3008289, 8.845708847045898, -0.7814434170722961, 4.4054083824157715, 8.663100242614746, -0.11740222573280334, 3.410959482192993, 
94, 2522532331, 0.786791, 0.15076475, -0.5169063, 0.30172545, 8.804312705993652, -0.7393093109130859, 4.406915664672852, 9.065926551818848, -1.008980631828308, 3.5208382606506348, 
95, 2522548998, 0.7864077, 0.15140167, -0.5167922, 0.30259907, 8.806014060974121, -0.6612566709518433, 4.441449165344238, 9.103306770324707, -2.006864547729492, 3.7414019107818604, 
96, 2522565665, 0.78594655, 0.151963, -0.5168871, 0.30335283, 8.817152976989746, -0.6991337537765503, 4.402282238006592, 7.830227851867676, -3.3906421661376953, 3.714956521987915, 
97, 2522582332, 0.7854254, 0.15277784, -0.5170231, 0.30406103, 8.90846061706543, -0.6101402044296265, 4.24280309677124, 8.860767364501953, -4.401979923248291, 2.6708805561065674, 
98, 2522598999, 0.78506434, 0.15330093, -0.51701677, 0.3047404, 9.000694274902344, -0.7225338220596313, 4.46885871887207, 7.423713207244873, -2.4930572509765625, 3.1358530521392822, 
99, 2522615666, 0.78501713, 0.15346909, -0.5167447, 0.30523822, 8.861249923706055, -0.7781808376312256, 4.356051445007324, 5.136447906494141, 0.5918838977813721, 2.5087640285491943, 
100, 2522632333, 0.78489715, 0.15377326, -0.5166816, 0.30550063, 8.794587135314941, -0.6562945246696472, 4.2370758056640625, 4.575311660766602, -1.32899808883667, 1.0841214656829834, 
101, 2522649000, 0.784462, 0.15423468, -0.51714677, 0.30559838, 8.891632080078125, -0.6987619400024414, 4.499958038330078, 4.066720485687256, -5.805521488189697, 0.8671820163726807, 
102, 2522665667, 0.7841813, 0.15461591, -0.51735234, 0.3057785, 8.918553352355957, -0.7366795539855957, 4.459369659423828, 4.164881229400635, -3.6066336631774902, 0.9355423450469971, 
103, 2522682334, 0.7841061, 0.15480117, -0.51733464, 0.30590758, 8.847886085510254, -0.7873049974441528, 4.357454776763916, 3.3753437995910645, -1.344711422920227, 0.7821733951568604, 
104, 2522699001, 0.78407836, 0.15490991, -0.5172747, 0.3060249, 8.892809867858887, -0.790485143661499, 4.292586803436279, 2.894376039505005, -0.8052697777748108, 0.8134850263595581, 
105, 2522715668, 0.78396535, 0.1550029, -0.5173448, 0.30614892, 8.938700675964355, -0.772620439529419, 4.358273506164551, 2.6843771934509277, -1.775939702987671, 1.2359535694122314, 
106, 2522732335, 0.7838401, 0.15508325, -0.51744425, 0.30626014, 8.932913780212402, -0.7946475744247437, 4.3576226234436035, 2.562140703201294, -1.9763462543487549, 1.2869610786437988, 
107, 2522749002, 0.7837215, 0.15519291, -0.51752937, 0.30636477, 8.899931907653809, -0.8534983992576599, 4.401220798492432, 2.672544479370117, -1.948530912399292, 1.0928428173065186, 
108, 2522765669, 0.7836031, 0.15530725, -0.5175995, 0.30649117, 8.886474609375, -0.8003515601158142, 4.386675834655762, 2.739176034927368, -1.8603209257125854, 1.1390352249145508, 
109, 2522782336, 0.78349537, 0.15539744, -0.51762664, 0.30667475, 8.907515525817871, -0.7984106540679932, 4.378486156463623, 2.9735829830169678, -1.4963642358779907, 1.4974976778030396, 
110, 2522799003, 0.7833721, 0.15548761, -0.5176734, 0.30686522, 8.897550582885742, -0.7695909738540649, 4.370994567871094, 2.941823720932007, -1.6591204404830933, 1.572184443473816, 
111, 2522815670, 0.7832047, 0.15553182, -0.5178248, 0.30701417, 8.935443878173828, -0.7497755289077759, 4.426935195922852, 2.489004135131836, -2.346616744995117, 1.7698891162872314, 
112, 2522832337, 0.78301585, 0.15556599, -0.5180438, 0.30710927, 8.987006187438965, -0.7635430097579956, 4.446932792663574, 2.0658435821533203, -2.8330531120300293, 1.6073508262634277, 
113, 2522849004, 0.7828295, 0.155704, -0.51816714, 0.30730632, 8.94359302520752, -0.746992290019989, 4.44149923324585, 3.1021203994750977, -2.425772190093994, 1.6407110691070557, 
114, 2522865671, 0.7826967, 0.15574491, -0.5182724, 0.30744657, 8.945192337036133, -0.7722926735877991, 4.4671478271484375, 2.4454751014709473, -2.0150983333587646, 1.5897547006607056, 
115, 2522882338, 0.7826215, 0.1556868, -0.5183219, 0.307584, 8.916619300842285, -0.7714844346046448, 4.484731674194336, 1.9690659046173096, -1.320827603340149, 1.7500388622283936, 
116, 2522899005, 0.78259593, 0.15551199, -0.51835537, 0.30768076, 8.911972999572754, -0.7493936419487, 4.4471001625061035, 1.3121898174285889, -0.8847203254699707, 1.8873614072799683, 
117, 2522915672, 0.78255826, 0.15528081, -0.51843107, 0.3077658, 8.90788459777832, -0.7476730346679688, 4.448919296264648, 0.7404759526252747, -1.0523170232772827, 2.029358386993408, 
118, 2522932339, 0.7824986, 0.15503559, -0.5185575, 0.307828, 8.903542518615723, -0.7910466194152832, 4.429619312286377, 0.5545917749404907, -1.4188475608825684, 2.084399700164795, 
119, 2522949006, 0.7824342, 0.15480998, -0.51868767, 0.30788586, 8.908334732055664, -0.8167173862457275, 4.4146270751953125, 0.637871503829956, -1.5178022384643555, 2.002772331237793, 
120, 2522965673, 0.78237236, 0.15463188, -0.5188151, 0.30791748, 8.90418815612793, -0.8259324431419373, 4.421225070953369, 0.8414539694786072, -1.6399106979370117, 1.6989929676055908, 
121, 2522982340, 0.7822835, 0.15450145, -0.5189791, 0.30793265, 8.909207344055176, -0.8257854580879211, 4.436964511871338, 1.0854533910751343, -2.073610544204712, 1.575437068939209, 
122, 2522999007, 0.78214574, 0.1543594, -0.51924324, 0.30790865, 8.88932991027832, -0.873197615146637, 4.395394802093506, 0.4768059551715851, -2.7986416816711426, 1.5024151802062988, 
123, 2523015674, 0.78197443, 0.15456524, -0.5193979, 0.30797985, 8.928101539611816, -0.7775339484214783, 4.184821128845215, 3.026832103729248, -2.9823362827301025, 0.7520273327827454, 
124, 2523032341, 0.78191835, 0.15450662, -0.5194136, 0.308125, 8.993205070495605, -0.8792591094970703, 4.457797527313232, 2.182650327682495, -1.1975922584533691, 1.7689796686172485, 
125, 2523049008, 0.78204954, 0.15425877, -0.5192068, 0.30826476, 8.844443321228027, -0.9693106412887573, 4.425858497619629, 1.352581262588501, 1.053296685218811, 1.7476698160171509, 
126, 2523065675, 0.78214264, 0.15411873, -0.519075, 0.30832073, 8.855668067932129, -0.8374260663986206, 4.165976524353027, 1.5031579732894897, 0.18219591677188873, 1.056306004524231, 
127, 2523082342, 0.78196883, 0.1540642, -0.5194022, 0.30823773, 8.908419609069824, -0.8395769596099854, 4.505975246429443, 0.9307271838188171, -3.580469846725464, 1.121925950050354, 
128, 2523099009, 0.78178114, 0.154095, -0.5196177, 0.30833495, 9.009622573852539, -0.8188263773918152, 4.466914653778076, 2.150097131729126, -3.026902914047241, 1.632464051246643, 
129, 2523115676, 0.7817879, 0.15403157, -0.51953423, 0.30849, 8.918110847473145, -0.8691806793212891, 4.441773414611816, 2.3081653118133545, -0.48215267062187195, 1.5663831233978271, 
130, 2523132343, 0.78185284, 0.15395816, -0.5193537, 0.30866578, 8.934208869934082, -0.866544246673584, 4.42974328994751, 2.463839292526245, 0.2760792672634125, 1.4796967506408691, 
131, 2523149010, 0.78188497, 0.15391442, -0.51918316, 0.3088933, 8.952523231506348, -0.8290734887123108, 4.430400848388672, 2.8159496784210205, 0.0844578742980957, 1.7271026372909546, 
132, 2523165677, 0.7819065, 0.15383196, -0.51904976, 0.30910444, 8.926514625549316, -0.7854090332984924, 4.405086040496826, 2.480090856552124, -0.10111254453659058, 1.8385567665100098, 
133, 2523182344, 0.7819232, 0.15374726, -0.51894325, 0.3092831, 8.912548065185547, -0.8451721668243408, 4.418221950531006, 2.320869207382202, -0.30519455671310425, 1.724400520324707, 
134, 2523199011, 0.7819271, 0.15377137, -0.5187851, 0.30952615, 8.891613960266113, -0.8830673694610596, 4.439051628112793, 3.193852663040161, -0.24504312872886658, 1.6239734888076782, 
135, 2523215678, 0.78194237, 0.15387093, -0.51850873, 0.30990103, 8.895533561706543, -0.8996650576591492, 4.428377628326416, 4.365403652191162, 0.39197683334350586, 1.9379596710205078, 
136, 2523232345, 0.7819492, 0.15405956, -0.51817554, 0.3103472, 8.865686416625977, -0.8829404711723328, 4.366348743438721, 5.213888168334961, 0.540991485118866, 1.951303482055664, 
137, 2523249012, 0.7819021, 0.15427579, -0.51794523, 0.3107427, 8.827927589416504, -0.8596869111061096, 4.379852294921875, 5.05879020690918, -0.3292449116706848, 1.8206149339675903, 
138, 2523265679, 0.78176033, 0.15448926, -0.5178802, 0.3111011, 8.81928825378418, -0.8702188730239868, 4.471446514129639, 4.665213108062744, -1.5993661880493164, 2.008727550506592, 
139, 2523282346, 0.7815303, 0.1548385, -0.51786536, 0.31153032, 8.783679008483887, -0.8915135264396667, 4.4746503829956055, 5.561696529388428, -2.4084970951080322, 2.112471580505371, 
140, 2523299013, 0.7812931, 0.1551483, -0.5179063, 0.31190297, 8.804743766784668, -0.8699691891670227, 4.533197402954102, 5.2004289627075195, -2.741833448410034, 2.0940816402435303, 
141, 2523315680, 0.7811442, 0.15535775, -0.51786995, 0.31223175, 8.839288711547852, -0.7648872137069702, 4.489587306976318, 4.548572540283203, -1.861486554145813, 1.9289822578430176, 
142, 2523332347, 0.7810351, 0.15538746, -0.51787347, 0.31248364, 8.976569175720215, -0.7557408213615417, 4.491045951843262, 3.1325480937957764, -1.6421773433685303, 2.0951056480407715, 
143, 2523349014, 0.78100514, 0.155193, -0.5178543, 0.3126869, 9.015167236328125, -0.8519245982170105, 4.451749324798584, 1.757530689239502, -0.8259647488594055, 2.461636781692505, 
144, 2523365681, 0.7810039, 0.15496497, -0.5177776, 0.31293026, 8.980170249938965, -0.956200897693634, 4.433923244476318, 1.8882062435150146, -0.3167458474636078, 2.7072365283966064, 
145, 2523382348, 0.78101724, 0.15484995, -0.5175837, 0.3132743, 8.956527709960938, -1.016542911529541, 4.433912754058838, 3.1308834552764893, 0.21535156667232513, 2.701678514480591, 
146, 2523399015, 0.78100306, 0.15491329, -0.5173025, 0.31374276, 8.905863761901855, -1.0499857664108276, 4.425617218017578, 4.614051342010498, 0.33807486295700073, 2.6285290718078613, 
147, 2523415682, 0.7809281, 0.15517968, -0.5169762, 0.3143346, 8.885771751403809, -1.051546335220337, 4.417088508605957, 6.337992191314697, 0.04473258927464485, 2.655038356781006, 
148, 2523432349, 0.7807427, 0.15552737, -0.5167424, 0.31500694, 8.800012588500977, -1.0818134546279907, 4.45254373550415, 6.739292144775391, -0.9209753274917603, 3.0131940841674805, 
149, 2523449016, 0.78047717, 0.1563619, -0.51641554, 0.31578717, 8.774858474731445, -0.9289273023605347, 4.19944953918457, 10.391128540039062, -1.6911754608154297, 2.092545986175537, 
150, 2523465683, 0.78023416, 0.15724729, -0.51587075, 0.31683657, 8.899497032165527, -0.9378455877304077, 4.390334606170654, 11.927315711975098, -0.2474636286497116, 3.0031418800354004, 
151, 2523482350, 0.78019714, 0.15783188, -0.5151249, 0.31784943, 8.779142379760742, -0.9879962801933289, 4.616944789886475, 10.390911102294922, 2.1718811988830566, 3.2028310298919678, 
152, 2523499017, 0.78009665, 0.15867636, -0.5144625, 0.3187465, 8.759492874145508, -0.8203351497650146, 4.251984119415283, 11.407350540161133, 0.7717238068580627, 1.9514834880828857, 
153, 2523515684, 0.7797359, 0.1596533, -0.5142543, 0.31947637, 8.834742546081543, -0.8084613084793091, 4.53523063659668, 10.76984977722168, -3.053079843521118, 1.6347312927246094, 
154, 2523532351, 0.7793339, 0.16061318, -0.51408625, 0.32024586, 9.003605842590332, -0.7752538323402405, 4.564218521118164, 10.714512825012207, -3.3418757915496826, 2.017564296722412, 
155, 2523549018, 0.7791311, 0.16142835, -0.51361805, 0.32107997, 8.931634902954102, -0.8036966919898987, 4.600142478942871, 10.694254875183105, -0.6592135429382324, 2.1509170532226562, 
156, 2523565685, 0.77903485, 0.16211495, -0.5130505, 0.32187372, 8.897682189941406, -0.8174127340316772, 4.58119535446167, 9.92597484588623, 0.47687020897865295, 2.0292437076568604, 
157, 2523582352, 0.7789382, 0.16274348, -0.5124913, 0.32268074, 8.886687278747559, -0.7717466354370117, 4.584139347076416, 9.652814865112305, 0.5597272515296936, 2.3235719203948975, 
158, 2523599019, 0.7787994, 0.16332203, -0.51203513, 0.32344642, 8.879819869995117, -0.6821516752243042, 4.558930397033691, 9.089258193969727, -0.0932878851890564, 2.505844831466675, 
159, 2523615686, 0.77863336, 0.16383535, -0.5117123, 0.324097, 8.848315238952637, -0.6919043064117432, 4.567720890045166, 8.140613555908203, -0.9067215919494629, 2.3744001388549805, 
160, 2523632353, 0.77850974, 0.16425547, -0.51141, 0.3246579, 8.85054874420166, -0.7200995683670044, 4.602969169616699, 7.118194103240967, -0.7635083794593811, 2.1056718826293945, 
161, 2523649020, 0.7784661, 0.16456145, -0.5110218, 0.32521838, 8.866172790527344, -0.7541351914405823, 4.592128276824951, 6.672571659088135, 0.21088223159313202, 2.2663662433624268, 
162, 2523665687, 0.7784372, 0.16483323, -0.510629, 0.32576618, 8.868659973144531, -0.73567795753479, 4.589244842529297, 6.485162734985352, 0.33169734477996826, 2.3068339824676514, 
163, 2523682354, 0.7784344, 0.16500972, -0.51024556, 0.32628432, 8.916108131408691, -0.7534281611442566, 4.592585563659668, 5.751512050628662, 0.5453329086303711, 2.408618927001953, 
164, 2523699021, 0.77840376, 0.16516359, -0.50994825, 0.32674378, 8.887492179870605, -0.7735238075256348, 4.581571578979492, 5.340888023376465, -0.04587874934077263, 2.373682737350464, 
165, 2523715688, 0.77831066, 0.16544008, -0.50967944, 0.32724482, 8.834870338439941, -0.7965797185897827, 4.581573963165283, 6.001338481903076, -0.6443195939064026, 2.272141218185425, 
166, 2523732355, 0.778195, 0.16574182, -0.5094715, 0.32769066, 8.789648056030273, -0.8149746656417847, 4.597804069519043, 5.924039363861084, -1.1886279582977295, 2.051180839538574, 
167, 2523749022, 0.7781111, 0.16602896, -0.5092449, 0.3280961, 8.770113945007324, -0.7831304669380188, 4.575946807861328, 5.7668914794921875, -1.0086473226547241, 1.819551706314087, 
168, 2523765689, 0.77804947, 0.16626877, -0.509032, 0.32845116, 8.777994155883789, -0.7540541887283325, 4.5820794105529785, 5.305171489715576, -0.9673852920532227, 1.6927305459976196, 
169, 2523782356, 0.7779785, 0.16639674, -0.50891274, 0.32873923, 8.805961608886719, -0.7295831441879272, 4.56265926361084, 4.255896091461182, -1.3355164527893066, 1.8476872444152832, 
170, 2523799023, 0.77786857, 0.1664628, -0.5089128, 0.32896614, 8.795402526855469, -0.7282750606536865, 4.615889072418213, 3.5640461444854736, -2.057295560836792, 2.0029263496398926, 
171, 2523815690, 0.7777208, 0.16651696, -0.50899017, 0.32916814, 8.814925193786621, -0.7052040696144104, 4.59346342086792, 3.175462484359741, -2.6092617511749268, 2.036888360977173, 
172, 2523832357, 0.7776111, 0.1665011, -0.509078, 0.32929954, 8.786666870117188, -0.6966414451599121, 4.630660057067871, 2.6688687801361084, -2.4815311431884766, 1.9214774370193481, 
173, 2523849024, 0.77751726, 0.16643547, -0.50918126, 0.32939437, 8.78658390045166, -0.6908669471740723, 4.596230506896973, 1.8454844951629639, -2.419522762298584, 1.7082773447036743, 
174, 2523865691, 0.77744526, 0.16619861, -0.5093672, 0.32939658, 8.808900833129883, -0.7087579369544983, 4.65781307220459, 0.5401718616485596, -2.528428077697754, 1.9306085109710693, 
175, 2523882358, 0.77742, 0.16583593, -0.50966823, 0.3291734, 8.752445220947266, -0.7057188153266907, 4.589450359344482, -1.2043795585632324, -2.9712843894958496, 1.2102512121200562, 
176, 2523899025, 0.77727216, 0.16592725, -0.5099231, 0.3290816, 8.926401138305664, -0.6538815498352051, 4.402979373931885, 1.9485247135162354, -4.04525089263916, 0.5594454407691956, 
177, 2523915692, 0.7773917, 0.16547002, -0.50996184, 0.32896906, 8.983721733093262, -0.8118085861206055, 4.709245204925537, -0.88875412940979, -0.733835756778717, 1.520280122756958, 
178, 2523932359, 0.7776537, 0.16496246, -0.5098794, 0.3287326, 8.826274871826172, -0.8394902348518372, 4.492076873779297, -1.4276583194732666, 0.3682081401348114, 0.5974929928779602, 
179, 2523949026, 0.77773625, 0.16481602, -0.5099854, 0.32844654, 8.805462837219238, -0.7802193760871887, 4.439570903778076, -0.07598648220300674, -2.1299970149993896, -0.40373939275741577, 
180, 2523965693, 0.7776566, 0.16464682, -0.51041347, 0.32805476, 8.897072792053223, -0.7947146892547607, 4.658089637756348, -1.015857458114624, -4.50042724609375, -0.11518672853708267, 
181, 2523982360, 0.77767825, 0.16449775, -0.51055086, 0.32786444, 8.873811721801758, -0.8035823106765747, 4.588242530822754, 0.3353599011898041, -2.418933868408203, 0.3299556076526642, 
182, 2523999027, 0.77780676, 0.16423175, -0.5105536, 0.3276883, 8.802327156066895, -0.8578552007675171, 4.59977388381958, -0.09314697980880737, -1.0506904125213623, 0.40598687529563904, 
183, 2524015694, 0.7779451, 0.16393557, -0.5105374, 0.3275336, 8.8128023147583, -0.8288270831108093, 4.520772933959961, -0.11491778492927551, -0.8359408974647522, 0.593215823173523, 
184, 2524032361, 0.77800715, 0.16373323, -0.51059735, 0.32739398, 8.84368896484375, -0.7950093746185303, 4.50250244140625, 0.43559515476226807, -1.7189385890960693, 0.6380122900009155, 
185, 2524049028, 0.77803826, 0.16349319, -0.5107472, 0.32720637, 8.846611022949219, -0.7732269167900085, 4.47434139251709, 0.05036737397313118, -2.2965564727783203, 0.7560357451438904, 
186, 2524065695, 0.778082, 0.16321295, -0.51093805, 0.32694408, 8.83530330657959, -0.7850767374038696, 4.555291175842285, -0.48650678992271423, -2.4727203845977783, 0.5381868481636047, 
187, 2524082362, 0.7781905, 0.16291647, -0.5110143, 0.3267146, 8.834522247314453, -0.8179832100868225, 4.504360675811768, -0.22990596294403076, -1.570602536201477, 0.5165184140205383, 
188, 2524099029, 0.7782784, 0.16263038, -0.51109457, 0.32652193, 8.758574485778809, -0.7674747109413147, 4.572356700897217, -0.289007306098938, -1.628909945487976, 0.6062013506889343, 
189, 2524115696, 0.7783539, 0.16238001, -0.5112101, 0.32628578, 8.776440620422363, -0.7346656322479248, 4.481393814086914, -0.22186359763145447, -2.0092968940734863, 0.3604346811771393, 
190, 2524132363, 0.778405, 0.16206396, -0.5114143, 0.3260006, 8.789071083068848, -0.7530328035354614, 4.543898105621338, -0.8979172706604004, -2.4842398166656494, 0.49490776658058167, 
191, 2524149030, 0.77843237, 0.16171314, -0.5117004, 0.32566026, 8.840338706970215, -0.8177016973495483, 4.531449794769287, -1.3374758958816528, -3.005438804626465, 0.5137010812759399, 
192, 2524165697, 0.7784313, 0.16142783, -0.51198894, 0.32535088, 8.865234375, -0.8435407876968384, 4.553603172302246, -0.8885877728462219, -3.2345187664031982, 0.4965021312236786, 
193, 2524182364, 0.7784383, 0.16116361, -0.5122504, 0.32505336, 8.870519638061523, -0.8576613068580627, 4.560790061950684, -0.7272790670394897, -3.0987460613250732, 0.414426326751709, 
194, 2524199031, 0.7784523, 0.1609435, -0.51248026, 0.3247666, 8.85290813446045, -0.8083080649375916, 4.564239978790283, -0.39536407589912415, -2.997588872909546, 0.25994327664375305, 
195, 2524215698, 0.7784718, 0.16069505, -0.5127245, 0.32445708, 8.88148307800293, -0.7531763911247253, 4.5954742431640625, -0.5798267126083374, -3.032716751098633, 0.2815091907978058, 
196, 2524232365, 0.77849096, 0.16040304, -0.5129879, 0.32413894, 8.933736801147461, -0.7913116812705994, 4.623093605041504, -0.9814593195915222, -3.04937744140625, 0.36896371841430664, 
197, 2524249032, 0.778488, 0.16008599, -0.5133344, 0.32375422, 8.98796272277832, -0.8528884053230286, 4.733319282531738, -1.4258142709732056, -3.6066973209381104, 0.28359663486480713, 
198, 2524265699, 0.77853084, 0.15980844, -0.5135937, 0.32337716, 9.06050968170166, -0.8305283784866333, 4.776320457458496, -1.1532052755355835, -3.06144118309021, -0.0662536546587944, 
199, 2524282366, 0.778576, 0.15954405, -0.5138883, 0.32293043, 9.230846405029297, -0.8953878879547119, 4.906437397003174, -1.1422046422958374, -3.386261224746704, -0.32709336280822754, 
200, 2524299033, 0.7786153, 0.15938152, -0.51410466, 0.32257146, 9.37047290802002, -1.0460158586502075, 4.984012126922607, -0.2518817186355591, -3.1203508377075195, -0.3611455261707306, 
201, 2524315700, 0.7786405, 0.15917154, -0.5143321, 0.32225096, 9.348530769348145, -1.1959540843963623, 5.093441486358643, -0.2747282087802887, -3.107851266860962, 0.09356319904327393, 
202, 2524332367, 0.7786931, 0.15915953, -0.5144342, 0.32196736, 9.076786041259766, -1.1537322998046875, 4.643161296844482, 0.9822981953620911, -2.7427549362182617, -0.7092605233192444, 
203, 2524349034, 0.7784053, 0.15975823, -0.5146774, 0.32197815, 8.78990364074707, -1.2306523323059082, 4.283614635467529, 5.469862461090088, -5.74763822555542, -0.3480318486690521, 
204, 2524365701, 0.77810544, 0.16010037, -0.51501584, 0.32199186, 8.3352632522583, -1.2949460744857788, 4.460826873779297, 3.78057599067688, -5.711409091949463, 0.6221582293510437, 
205, 2524382368, 0.77757794, 0.16069414, -0.5156768, 0.3219123, 7.9028544425964355, -1.2742239236831665, 4.033512115478516, 4.515713214874268, -8.93154239654541, 0.14551861584186554, 
206, 2524399035, 0.77663946, 0.16158414, -0.5169317, 0.3217194, 7.785667896270752, -1.284401297569275, 4.068401336669922, 4.68606424331665, -14.333868026733398, -0.047633249312639236, 
207, 2524415702, 0.7755267, 0.16236174, -0.51855916, 0.32139316, 7.943436145782471, -1.201043963432312, 4.088428020477295, 3.055828809738159, -16.857406616210938, 0.4360310435295105, 
208, 2524432369, 0.77443516, 0.16300952, -0.5202299, 0.32099703, 8.18194580078125, -1.0686626434326172, 4.180347919464111, 2.1004104614257812, -16.82035255432129, 0.5436044931411743, 
209, 2524449036, 0.7735677, 0.16322605, -0.52183795, 0.32036763, 8.592666625976562, -0.9500409960746765, 4.376311779022217, -1.263718605041504, -14.993953704833984, 0.20324331521987915, 
210, 2524465703, 0.7731363, 0.16284476, -0.523215, 0.31935588, 8.905673027038574, -0.8870157599449158, 4.490366458892822, -5.66048002243042, -11.337423324584961, -0.860747218132019, 
211, 2524482370, 0.77325326, 0.16177443, -0.5242116, 0.31797925, 9.189263343811035, -0.8703287243843079, 4.500502586364746, -10.452235221862793, -6.247292995452881, -1.9759888648986816, 
212, 2524499037, 0.77396005, 0.16016182, -0.52467686, 0.31630462, 9.230072975158691, -1.0026776790618896, 4.454932689666748, -14.033123970031738, -0.4401865303516388, -3.5462918281555176, 
213, 2524515704, 0.7751497, 0.15824856, -0.52465665, 0.31438172, 9.047999382019043, -1.2135026454925537, 4.431819438934326, -15.811087608337402, 4.242850303649902, -5.294066905975342, 
214, 2524532371, 0.77664065, 0.1562581, -0.5242878, 0.31230584, 8.778692245483398, -1.4364200830459595, 4.401283264160156, -16.022165298461914, 7.152905464172363, -6.739228248596191, 
215, 2524549038, 0.77817374, 0.15434651, -0.5238122, 0.31023178, 8.500578880310059, -1.5369352102279663, 4.388587474822998, -15.613129615783691, 7.718102931976318, -7.338694095611572, 
216, 2524565705, 0.779527, 0.15262169, -0.52346355, 0.30826968, 8.361486434936523, -1.5950562953948975, 4.247050762176514, -14.358342170715332, 6.105318546295166, -6.963473320007324, 
217, 2524582372, 0.78058183, 0.1509632, -0.52346593, 0.30640787, 8.326069831848145, -1.6009823083877563, 4.221236705780029, -13.92763614654541, 3.09600830078125, -5.6419196128845215, 
218, 2524599039, 0.7813112, 0.14937627, -0.52379775, 0.30475497, 8.421266555786133, -1.6460025310516357, 4.286949157714844, -13.350046157836914, 0.2377116084098816, -3.8859293460845947, 
219, 2524615706, 0.78186625, 0.14787394, -0.5241799, 0.30340376, 8.574925422668457, -1.6956355571746826, 4.3884596824646, -11.564132690429688, -0.5520755648612976, -2.1194324493408203, 
220, 2524632373, 0.782368, 0.14651607, -0.5243918, 0.30240184, 8.826687812805176, -1.669623851776123, 4.48093318939209, -9.23674201965332, 0.22845254838466644, -0.9229218363761902, 
221, 2524649040, 0.7829201, 0.14535144, -0.52432317, 0.30165303, 9.108595848083496, -1.5476959943771362, 4.5770087242126465, -6.626857757568359, 1.7517808675765991, -0.6252508759498596, 
222, 2524665707, 0.7835864, 0.14439788, -0.5239431, 0.3010405, 9.392684936523438, -1.3211956024169922, 4.673177242279053, -4.542431831359863, 3.5394959449768066, -1.262994408607483, 
223, 2524682374, 0.7843888, 0.1436262, -0.5233746, 0.30030784, 9.576961517333984, -1.1187580823898315, 4.71239709854126, -3.6135621070861816, 4.534191608428955, -2.988586187362671, 
224, 2524699041, 0.7853407, 0.14314662, -0.5225944, 0.2994065, 9.513036727905273, -0.9418462514877319, 4.757379055023193, -2.379093647003174, 5.446771621704102, -5.477782726287842, 
225, 2524715708, 0.7864323, 0.14306861, -0.5215532, 0.29839227, 9.255378723144531, -0.7859460115432739, 4.627482891082764, -0.3867711126804352, 6.434821605682373, -8.143386840820312, 
226, 2524732375, 0.78763795, 0.14321783, -0.5203335, 0.29726756, 8.884660720825195, -0.7820589542388916, 4.626009941101074, 0.8390596508979797, 7.221415042877197, -9.8827486038208, 
227, 2524749042, 0.7889102, 0.14346284, -0.5189669, 0.29616293, 8.485060691833496, -0.773044764995575, 4.5697784423828125, 1.64621901512146, 8.076126098632812, -10.391342163085938, 
228, 2524765709, 0.7902025, 0.14339265, -0.51763946, 0.2950733, 8.125990867614746, -0.7439565658569336, 4.492458820343018, 0.03517905995249748, 8.571793556213379, -9.108360290527344, 
229, 2524782376, 0.7913503, 0.14320433, -0.51653653, 0.29401928, 7.926538467407227, -0.6621394157409668, 4.086254596710205, -1.0846917629241943, 7.126312732696533, -8.106185913085938, 
230, 2524799043, 0.7920782, 0.14341217, -0.51571995, 0.29339042, 8.148834228515625, -0.7226041555404663, 3.910292148590088, 2.630425214767456, 3.678701877593994, -5.956817626953125, 
231, 2524815710, 0.792682, 0.14325196, -0.5150503, 0.29301414, 8.495810508728027, -0.7950325608253479, 4.30585241317749, 1.2819797992706299, 3.4496593475341797, -2.903193235397339, 
232, 2524832377, 0.7930889, 0.1432302, -0.5145052, 0.29288152, 8.830042839050293, -0.7496933937072754, 4.032949447631836, 2.7652876377105713, 2.0458784103393555, -1.5781840085983276, 
233, 2524849044, 0.79305756, 0.14376765, -0.5141781, 0.29327744, 9.191904067993164, -0.6032036542892456, 4.157857894897461, 6.24688720703125, -1.1626181602478027, -0.2521762549877167, 
234, 2524865711, 0.79280454, 0.14447774, -0.5140174, 0.29389352, 9.500469207763672, -0.46466001868247986, 4.208372592926025, 7.899713039398193, -2.965803623199463, 0.9894700050354004, 
235, 2524882378, 0.7924457, 0.14548157, -0.5137995, 0.2947464, 9.593110084533691, -0.3683549165725708, 4.307379245758057, 10.50460433959961, -3.356602907180786, 1.3998754024505615, 
236, 2524899045, 0.7920404, 0.14668117, -0.5135873, 0.29560906, 9.64840030670166, -0.3453441858291626, 4.426136493682861, 11.63661003112793, -3.91668963432312, 0.8904259204864502, 
237, 2524915712, 0.7916478, 0.14790247, -0.5134606, 0.2962721, 9.601042747497559, -0.29867470264434814, 4.447585582733154, 12.256606101989746, -4.670036315917969, 0.4829917550086975, 
238, 2524932379, 0.7911047, 0.14920266, -0.5135312, 0.29694754, 9.537924766540527, -0.21276575326919556, 4.531893253326416, 12.539447784423828, -6.410677433013916, 0.8378943800926208, 
239, 2524949046, 0.7904175, 0.15057755, -0.51364416, 0.29788685, 9.440156936645508, -0.22477591037750244, 4.63355016708374, 12.41376781463623, -6.906130313873291, 1.6554524898529053, 
240, 2524965713, 0.7898892, 0.15158314, -0.5136486, 0.29876885, 9.354373931884766, -0.2917671501636505, 4.685413837432861, 11.721671104431152, -5.161121368408203, 2.9352810382843018, 
241, 2524982380, 0.7893977, 0.15255313, -0.5133753, 0.30004117, 9.27657413482666, -0.39140281081199646, 4.726676940917969, 12.049667358398438, -2.94206166267395, 4.185616970062256, 
242, 2524999047, 0.7889158, 0.15353686, -0.51292735, 0.30156913, 9.179220199584961, -0.4224523901939392, 4.816534519195557, 13.23811149597168, -1.7133816480636597, 5.280445575714111, 
243, 2525015714, 0.7883782, 0.15467165, -0.51237017, 0.30333728, 9.055750846862793, -0.3715263605117798, 4.707170486450195, 15.230696678161621, -1.3883696794509888, 6.091192245483398, 
244, 2525032381, 0.7877584, 0.15587193, -0.51189214, 0.30513442, 8.926260948181152, -0.3350706100463867, 4.65037727355957, 15.5941162109375, -2.2183377742767334, 6.289346218109131, 
245, 2525049048, 0.7870841, 0.15719806, -0.51146543, 0.30690503, 8.798761367797852, -0.28923293948173523, 4.626175403594971, 16.175498962402344, -2.9907658100128174, 5.916987419128418, 
246, 2525065715, 0.786385, 0.15861617, -0.5111435, 0.30849987, 8.677794456481934, -0.2668028771877289, 4.546177387237549, 15.842584609985352, -4.03447151184082, 4.825386047363281, 
247, 2525082382, 0.78567886, 0.16003987, -0.51098377, 0.30982494, 8.662375450134277, -0.2178933471441269, 4.429141044616699, 14.56805419921875, -5.247208118438721, 3.5546488761901855, 
248, 2525099049, 0.7849445, 0.16146664, -0.511036, 0.3108587, 8.684449195861816, -0.12580132484436035, 4.40984582901001, 13.150900840759277, -6.821223258972168, 2.295424699783325, 
249, 2525115716, 0.7842424, 0.16272126, -0.511247, 0.31162804, 8.841280937194824, -0.0826309472322464, 4.395136833190918, 10.940290451049805, -7.493619918823242, 1.6204906702041626, 
250, 2525132383, 0.7836178, 0.16365099, -0.511589, 0.3121511, 8.870891571044922, -0.08570966869592667, 4.332946300506592, 7.9034423828125, -7.501687526702881, 1.4204168319702148, 
251, 2525149050, 0.78302675, 0.1643648, -0.51204836, 0.312506, 8.929004669189453, -0.16876991093158722, 4.341024875640869, 5.741658687591553, -7.728084087371826, 1.307420015335083, 
252, 2525165717, 0.78251314, 0.16489838, -0.51249546, 0.31277823, 8.964079856872559, -0.21569421887397766, 4.266402244567871, 4.641061305999756, -7.106188774108887, 1.4437371492385864, 
253, 2525182384, 0.78197986, 0.16545169, -0.5129532, 0.31306922, 8.934008598327637, -0.26762205362319946, 4.219969749450684, 4.640869617462158, -7.235212802886963, 1.4695932865142822, 
254, 2525199051, 0.7814115, 0.16606462, -0.5134699, 0.3133169, 8.89138412475586, -0.2841704487800598, 4.301544666290283, 4.715785503387451, -7.843942165374756, 1.1835119724273682, 
255, 2525215718, 0.780807, 0.16676448, -0.51400805, 0.31356943, 8.923676490783691, -0.2961740791797638, 4.4042863845825195, 5.20954704284668, -8.266749382019043, 1.029092788696289, 
256, 2525232385, 0.78025025, 0.16733335, -0.51456577, 0.31373754, 8.910150527954102, -0.34849292039871216, 4.616521835327148, 4.131867408752441, -8.018819808959961, 0.9834638833999634, 
257, 2525249052, 0.77966905, 0.16847284, -0.514859, 0.31409144, 8.969382286071777, -0.1533111035823822, 4.2074480056762695, 8.368568420410156, -7.708329677581787, -0.31340348720550537, 
258, 2525265719, 0.77933514, 0.16914696, -0.51482844, 0.3146079, 9.019094467163086, -0.2330310195684433, 4.594649314880371, 7.100367546081543, -3.912590742111206, 1.4251805543899536, 
259, 2525282386, 0.7792792, 0.1695313, -0.5145043, 0.31506935, 8.8241548538208, -0.27372685074806213, 4.503321647644043, 5.518589496612549, -0.7911698818206787, 1.1655828952789307, 
260, 2525299053, 0.7790138, 0.17038065, -0.51439446, 0.31544614, 8.7412109375, -0.07114654779434204, 4.13948917388916, 7.44129753112793, -3.790379285812378, -0.237833172082901, 
261, 2525315720, 0.77845776, 0.17136589, -0.5147461, 0.31571156, 8.89930248260498, 5.07451593875885E-4, 4.318665027618408, 7.086946964263916, -7.7087531089782715, -0.13424262404441833, 
262, 2525332387, 0.7780341, 0.17221881, -0.5148942, 0.31605023, 9.047959327697754, 0.02713811956346035, 4.251059532165527, 7.025257110595703, -5.7837138175964355, 0.27120012044906616, 
263, 2525349054, 0.7777137, 0.17298035, -0.5149893, 0.31626827, 9.076064109802246, -0.10278401523828506, 4.32758092880249, 6.037618160247803, -5.070847988128662, -0.34079623222351074, 
264, 2525365721, 0.7775017, 0.17368047, -0.51495177, 0.31646645, 9.13979721069336, -0.16200478374958038, 4.416198253631592, 5.954927921295166, -3.873723030090332, -0.532263994216919, 
265, 2525382388, 0.7773385, 0.17432307, -0.5147646, 0.3168184, 9.145899772644043, -0.25271230936050415, 4.432574272155762, 6.19873571395874, -2.578552722930908, 0.10697146505117416, 
266, 2525399055, 0.777267, 0.17487523, -0.5143906, 0.31729642, 9.077232360839844, -0.3027997314929962, 4.473387241363525, 6.41969633102417, -0.905709981918335, 0.6717699766159058, 
267, 2525415722, 0.77726567, 0.17538893, -0.5138628, 0.31787074, 8.92791748046875, -0.2730728089809418, 4.4964919090271, 6.9280195236206055, 0.35424935817718506, 1.0481488704681396, 
268, 2525432389, 0.7773955, 0.17591587, -0.5130677, 0.3185458, 8.824420928955078, -0.23327699303627014, 4.325194358825684, 7.813962936401367, 2.329245090484619, 0.9570059776306152, 
269, 2525449056, 0.7775916, 0.17637132, -0.5122222, 0.31917572, 8.641671180725098, -0.19025234878063202, 4.119010925292969, 7.323555946350098, 2.933474063873291, 0.7817637920379639, 
270, 2525465723, 0.77772856, 0.17686692, -0.51158863, 0.31958345, 8.65622329711914, -0.1643347293138504, 4.056889533996582, 6.2720513343811035, 1.2418959140777588, -0.1898733675479889, 
271, 2525482390, 0.77774364, 0.17735332, -0.5113199, 0.31970724, 8.844301223754883, -0.1572878509759903, 4.315561771392822, 4.709484100341797, -1.4630167484283447, -0.8903295397758484, 
272, 2525499057, 0.7776672, 0.17772223, -0.5113975, 0.3195639, 9.174811363220215, -0.10913822054862976, 4.611678600311279, 2.3531410694122314, -3.6956629753112793, -1.3331218957901, 
273, 2525515724, 0.77773434, 0.17784017, -0.5114122, 0.3193118, 9.423331260681152, -0.16304455697536469, 4.747776031494141, 0.5944323539733887, -2.4406790733337402, -1.4111765623092651, 
274, 2525532391, 0.7781156, 0.1775399, -0.5111579, 0.31895703, 9.572726249694824, -0.3390660583972931, 4.758907318115234, -1.7464338541030884, 0.8846883177757263, -1.4738378524780273, 
275, 2525549058, 0.7787942, 0.1769662, -0.5105422, 0.31860557, 9.455470085144043, -0.463758260011673, 4.701714515686035, -2.8066461086273193, 4.464896202087402, -1.6035408973693848, 
276, 2525565725, 0.7794997, 0.17629515, -0.5099473, 0.31820488, 9.178203582763672, -0.5095670819282532, 4.6139817237854, -3.308706283569336, 4.585211277008057, -1.4373655319213867, 
277, 2525582392, 0.78019726, 0.17575781, -0.50924206, 0.3179217, 9.07396125793457, -0.4832253158092499, 4.626777648925781, -2.0472424030303955, 5.000777721405029, -1.4522979259490967, 
278, 2525599059, 0.78095293, 0.1752825, -0.50837904, 0.31770995, 8.860414505004883, -0.41502708196640015, 4.662178039550781, -1.3317902088165283, 6.005679607391357, -1.673258662223816, 
279, 2525615726, 0.78179294, 0.1747323, -0.50740176, 0.31750938, 8.694999694824219, -0.31572094559669495, 4.663628101348877, -1.6212778091430664, 7.085512161254883, -1.7109735012054443, 
280, 2525632393, 0.782676, 0.17403992, -0.50648206, 0.3171821, 8.682893753051758, -0.3198365867137909, 4.650488376617432, -2.9865245819091797, 7.073422908782959, -1.9097537994384766, 
281, 2525649060, 0.78354526, 0.17323299, -0.5057037, 0.3167195, 8.64993667602539, -0.3988686501979828, 4.650480270385742, -4.37041711807251, 6.344663619995117, -2.041659355163574, 
282, 2525665727, 0.7842059, 0.17237821, -0.5053705, 0.31608176, 8.643577575683594, -0.5073668360710144, 4.567161560058594, -5.740375995635986, 3.095960855484009, -1.7328850030899048, 
283, 2525682394, 0.78463775, 0.17152756, -0.5053616, 0.3154869, 8.644187927246094, -0.7023975253105164, 4.542113780975342, -6.091513156890869, 0.5945860147476196, -0.6835453510284424, 
284, 2525699061, 0.78479975, 0.17113288, -0.5054803, 0.31510776, 8.586199760437012, -0.606149435043335, 4.2523512840271, -2.9182276725769043, -1.7633252143859863, -0.4202851951122284, 
285, 2525715728, 0.78486925, 0.17076898, -0.5054622, 0.31516123, 8.710380554199219, -0.6352411508560181, 4.320199489593506, -0.8272197246551514, -0.9015606641769409, 1.8455103635787964, 
286, 2525732395, 0.78494066, 0.17017537, -0.50556046, 0.3151467, 8.517271041870117, -0.7052901983261108, 4.538198947906494, -2.518669605255127, -1.1003152132034302, 2.417595624923706, 
287, 2525749062, 0.78471744, 0.17004183, -0.50598717, 0.31509006, 8.55759334564209, -0.5686524510383606, 4.2791876792907715, -0.6535016894340515, -4.941797733306885, 1.55125892162323, 
288, 2525765729, 0.7841673, 0.17017949, -0.5068111, 0.31506136, 8.842050552368164, -0.6352291107177734, 4.616621494293213, 0.5054283738136292, -8.776175498962402, 1.9616258144378662, 
289, 2525782396, 0.7837705, 0.17020105, -0.50727713, 0.31528676, 9.016112327575684, -0.6231651902198792, 4.580569744110107, 1.329645037651062, -5.76511812210083, 2.9630823135375977, 
290, 2525799063, 0.78356564, 0.17005686, -0.5074852, 0.31553885, 8.965351104736328, -0.6264430284500122, 4.452426910400391, 0.7555874586105347, -3.3060553073883057, 2.9103198051452637, 
291, 2525815730, 0.7833851, 0.16992143, -0.50768346, 0.3157414, 9.00500774383545, -0.5743865966796875, 4.434391021728516, 0.6609613299369812, -3.245314359664917, 2.559771776199341, 
292, 2525832397, 0.78323406, 0.16969483, -0.5078656, 0.3159448, 9.097896575927734, -0.5438956618309021, 4.497241497039795, 0.21281595528125763, -2.853440761566162, 2.81500244140625, 
293, 2525849064, 0.78321016, 0.16925944, -0.5079655, 0.316077, 9.05373477935791, -0.5907192826271057, 4.450497150421143, -1.1287708282470703, -1.5907213687896729, 2.787353038787842, 
294, 2525865731, 0.7832658, 0.16876201, -0.5079861, 0.3161716, 9.043898582458496, -0.6781626343727112, 4.41855001449585, -1.4874510765075684, -0.7928731441497803, 2.5442628860473633, 
295, 2525882398, 0.7833551, 0.16826351, -0.50795925, 0.31625903, 8.994978904724121, -0.7023022770881653, 4.389379024505615, -1.409319519996643, -0.421898752450943, 2.394339084625244, 
296, 2525899065, 0.7834233, 0.16780324, -0.50789666, 0.31643534, 8.980414390563965, -0.7630212306976318, 4.309580326080322, -0.8239285349845886, -0.2765851616859436, 2.7227067947387695, 
297, 2525915732, 0.78346974, 0.16743982, -0.5078153, 0.31664345, 8.874176025390625, -0.7916005849838257, 4.258007526397705, -0.20950548350811005, -0.41056519746780396, 2.5305092334747314, 
298, 2525932399, 0.78347707, 0.16714445, -0.50771534, 0.3169415, 8.840320587158203, -0.8368977308273315, 4.225991249084473, 0.6017192602157593, -0.48686543107032776, 2.852614641189575, 
299, 2525949066, 0.78342867, 0.16684842, -0.50765574, 0.31731257, 8.890059471130371, -0.8794865012168884, 4.216286659240723, 0.9452879428863525, -0.8114423751831055, 3.460800886154175, 
300, 2525965733, 0.78331953, 0.16656631, -0.5076269, 0.31777635, 8.923432350158691, -0.853351891040802, 4.252153396606445, 1.4328513145446777, -1.1085240840911865, 4.107931613922119, 
301, 2525982400, 0.78319556, 0.16620667, -0.5076156, 0.31828752, 8.96623706817627, -0.9023004770278931, 4.249279022216797, 0.9838480949401855, -1.0107094049453735, 4.592243194580078, 
302, 2525999067, 0.7831427, 0.16592397, -0.50740266, 0.31890443, 9.01405143737793, -0.8820197582244873, 4.295068740844727, 2.204447031021118, 0.2815220057964325, 4.531796455383301, 
303, 2526015734, 0.7831737, 0.16564144, -0.5070457, 0.31954193, 8.970911979675293, -0.8073893785476685, 4.253914833068848, 2.603313446044922, 1.3752484321594238, 4.334129810333252, 
304, 2526032401, 0.78326124, 0.16550061, -0.5065359, 0.32020876, 8.903364181518555, -0.7573158144950867, 4.277238845825195, 3.572664976119995, 2.138827323913574, 3.613926649093628, 
305, 2526049068, 0.7833825, 0.1654411, -0.5059758, 0.32082787, 8.854555130004883, -0.7376341223716736, 4.318282604217529, 3.9452779293060303, 2.300302267074585, 2.950852155685425, 
306, 2526065735, 0.78348094, 0.16546789, -0.50545555, 0.32139254, 8.837064743041992, -0.739067018032074, 4.372164249420166, 4.19000768661499, 1.7585169076919556, 2.4643898010253906, 
307, 2526082402, 0.7835547, 0.16558032, -0.50494045, 0.32196397, 8.884827613830566, -0.7468748688697815, 4.44968843460083, 4.606328964233398, 1.4756373167037964, 2.2184441089630127, 
308, 2526099069, 0.78361, 0.16569534, -0.5044962, 0.32246637, 8.911009788513184, -0.7894458770751953, 4.517826557159424, 4.2828288078308105, 0.9458771347999573, 1.9738301038742065, 
309, 2526115736, 0.78360575, 0.16581999, -0.50410765, 0.32301986, 8.92701244354248, -0.8569930791854858, 4.601678371429443, 4.479738235473633, 0.47701096534729004, 2.4174678325653076, 
310, 2526132403, 0.7835653, 0.16586979, -0.50381464, 0.32354924, 8.89145278930664, -0.9061815142631531, 4.650838375091553, 3.8022823333740234, -0.021341782063245773, 2.7200560569763184, 
311, 2526149070, 0.7833486, 0.16648786, -0.50346106, 0.3243058, 8.903752326965332, -0.7303643822669983, 4.345596790313721, 8.036165237426758, -1.3160640001296997, 2.313467264175415, 
312, 2526165737, 0.78320855, 0.16668998, -0.50315833, 0.32500955, 8.868961334228516, -0.859465479850769, 4.702770233154297, 5.7179718017578125, -0.47220221161842346, 3.5038180351257324, 
313, 2526182404, 0.7831313, 0.16690095, -0.5027488, 0.3257206, 8.653614044189453, -0.8480258584022522, 4.526632785797119, 5.653088092803955, 0.3293985426425934, 3.093649387359619, 
314, 2526199071, 0.78287417, 0.16726808, -0.5026456, 0.3263093, 8.683246612548828, -0.7223166227340698, 4.518913269042969, 5.595805644989014, -2.4334757328033447, 2.644953489303589, 
315, 2526215738, 0.782429, 0.16770893, -0.50282246, 0.32687783, 8.813237190246582, -0.7004035711288452, 4.700009822845459, 5.6299285888671875, -4.785804271697998, 3.0812594890594482, 
316, 2526232405, 0.78214043, 0.16815236, -0.5027088, 0.32751453, 8.867127418518066, -0.7102941274642944, 4.628029823303223, 6.215024948120117, -2.603358268737793, 2.6844418048858643, 
317, 2526249072, 0.78202677, 0.16859125, -0.5024042, 0.32802725, 8.810948371887207, -0.6747993230819702, 4.6553778648376465, 6.014285087585449, -1.1062190532684326, 1.4297393560409546, 
318, 2526265739, 0.781923, 0.16907881, -0.5021761, 0.32837293, 8.799805641174316, -0.6451428532600403, 4.614097595214844, 5.5536789894104, -1.7929978370666504, 0.44868335127830505, 
319, 2526282406, 0.78177726, 0.16958344, -0.50201935, 0.32869923, 8.786955833435059, -0.5865405201911926, 4.605608940124512, 5.363569259643555, -2.3754310607910156, 0.4135426878929138, 
320, 2526299073, 0.7815626, 0.16997223, -0.5021433, 0.32881948, 8.694046020507812, -0.5674546360969543, 4.601688861846924, 3.4181690216064453, -4.096591472625732, 0.16326817870140076, 
321, 2526315740, 0.7813364, 0.17031719, -0.5023486, 0.32886472, 8.674064636230469, -0.5928925275802612, 4.64678955078125, 2.863372325897217, -4.572566032409668, 0.08765947818756104, 
322, 2526332407, 0.78111285, 0.17066284, -0.50257355, 0.3288734, 8.752665519714355, -0.6448328495025635, 4.619884490966797, 2.5684804916381836, -4.708454132080078, -0.15349051356315613, 
323, 2526349074, 0.78094906, 0.1709539, -0.5027042, 0.3289112, 8.714396476745605, -0.6465932726860046, 4.67055606842041, 2.4602792263031006, -3.83553409576416, -0.08364468812942505, 
324, 2526365741, 0.7807216, 0.17144296, -0.5028299, 0.3290047, 8.726861000061035, -0.6246363520622253, 4.634369373321533, 3.7105629444122314, -4.409028053283691, -0.3754117488861084, 
325, 2526382408, 0.78040075, 0.17194387, -0.50310147, 0.3290893, 8.744466781616211, -0.627525806427002, 4.695557117462158, 3.74770188331604, -5.571447372436523, 0.027533654123544693, 
326, 2526399075, 0.77995, 0.17237413, -0.5037014, 0.3290154, 8.626766204833984, -0.5385807752609253, 4.688268184661865, 2.304093360900879, -7.819334506988525, 0.13866718113422394, 
327, 2526415742, 0.7793829, 0.17291899, -0.50442046, 0.32897145, 8.732885360717773, -0.5202568769454956, 4.750288486480713, 2.845993995666504, -9.088956832885742, 0.28681105375289917, 
328, 2526432409, 0.7788772, 0.17317, -0.5051636, 0.3288974, 8.689082145690918, -0.39395788311958313, 4.7782979011535645, 0.7321006655693054, -8.361798286437988, 0.8913989067077637, 
329, 2526449076, 0.77843654, 0.1732054, -0.5059499, 0.32871315, 8.645607948303223, -0.3229382336139679, 4.821161270141602, -0.7462965846061707, -8.036491394042969, 1.0725446939468384, 
330, 2526465743, 0.77790445, 0.17294781, -0.50716275, 0.3282389, 8.581910133361816, -0.5109633207321167, 4.796609401702881, -4.035416126251221, -10.341418266296387, 1.3300294876098633, 
331, 2526482410, 0.7774928, 0.1726339, -0.5081189, 0.32790077, 8.612242698669434, -0.7249820232391357, 4.753926753997803, -3.3742501735687256, -8.27575397491455, 1.702873706817627, 
332, 2526499077, 0.777104, 0.1722765, -0.508947, 0.3277254, 8.406778335571289, -0.7645079493522644, 4.628022193908691, -2.970529317855835, -7.216309070587158, 2.4260737895965576, 
333, 2526515744, 0.7765605, 0.17208241, -0.50993526, 0.32757998, 8.270678520202637, -0.8565425872802734, 4.4909162521362305, -1.9208694696426392, -8.97383975982666, 2.6636059284210205, 
334, 2526532411, 0.7758013, 0.17206103, -0.5112216, 0.32738537, 8.264792442321777, -0.9309024214744568, 4.402952671051025, -1.6267977952957153, -11.77438735961914, 2.6065673828125, 
335, 2526549078, 0.77475375, 0.1722188, -0.51284707, 0.32724103, 8.360594749450684, -0.9679179787635803, 4.406796932220459, -1.3536642789840698, -14.913141250610352, 3.0843093395233154, 
336, 2526565745, 0.77334803, 0.17246686, -0.51497114, 0.3270991, 8.677967071533203, -1.0384091138839722, 4.504251003265381, -1.296087384223938, -19.059207916259766, 4.2859320640563965, 
337, 2526582412, 0.77168304, 0.17269953, -0.5174661, 0.32697093, 8.912102699279785, -1.0823363065719604, 4.660656452178955, -1.831176996231079, -21.905948638916016, 5.436958312988281, 
338, 2526599079, 0.7697147, 0.1735865, -0.52003443, 0.32706657, 9.164079666137695, -0.8806118965148926, 4.20542049407959, 2.623591184616089, -24.588871002197266, 5.050386905670166, 
339, 2526615746, 0.7678789, 0.17409512, -0.52255696, 0.32709098, 9.296578407287598, -1.0126672983169556, 4.513138294219971, 0.3649817407131195, -23.105655670166016, 5.6938300132751465, 
340, 2526632413, 0.76621157, 0.17473474, -0.5248425, 0.32700017, 9.138166427612305, -1.0404711961746216, 4.3124165534973145, 0.9976804256439209, -21.687496185302734, 3.9540188312530518, 
341, 2526649080, 0.7644324, 0.17577924, -0.52720594, 0.3268025, 8.99113655090332, -0.8608298897743225, 4.169007301330566, 2.5922281742095947, -23.53315544128418, 2.2209582328796387, 
342, 2526665747, 0.7623578, 0.1770953, -0.5299307, 0.32653165, 8.948890686035156, -0.8218939900398254, 4.449207305908203, 3.3637757301330566, -27.20962905883789, 1.9771004915237427, 
343, 2526682414, 0.7605622, 0.17834808, -0.5321301, 0.32645977, 8.92098331451416, -0.8216078281402588, 4.426201820373535, 4.6135735511779785, -23.067527770996094, 1.9897778034210205, 
344, 2526699081, 0.7591025, 0.17936242, -0.5339331, 0.32635766, 8.841296195983887, -0.972594678401947, 4.311148166656494, 3.91650652885437, -19.29617691040039, 1.5366486310958862, 
345, 2526715748, 0.7577074, 0.1804173, -0.5356007, 0.32628593, 9.025262832641602, -1.1279163360595703, 4.239736557006836, 4.459535598754883, -18.41736602783203, 1.2251211404800415, 
346, 2526732415, 0.75638944, 0.18146107, -0.5370069, 0.32645336, 9.356369972229004, -1.2898613214492798, 4.2703680992126465, 5.55255651473999, -16.43913459777832, 1.9193023443222046, 
347, 2526749082, 0.755129, 0.18242154, -0.53815985, 0.32693806, 9.528233528137207, -1.374842882156372, 4.294039726257324, 6.686598777770996, -14.326931953430176, 3.380418300628662, 
348, 2526765749, 0.75391275, 0.183399, -0.5390043, 0.3278053, 9.497995376586914, -1.4376848936080933, 4.380208492279053, 8.853075981140137, -12.12979507446289, 4.811900615692139, 
349, 2526782416, 0.7527304, 0.1844363, -0.53956836, 0.3290106, 9.395308494567871, -1.4065505266189575, 4.321868419647217, 11.129471778869629, -10.27978801727295, 5.944994926452637, 
350, 2526799083, 0.75156116, 0.1855036, -0.5399536, 0.3304481, 9.14544677734375, -1.3374570608139038, 4.379192352294922, 12.47216510772705, -9.08565902709961, 6.741447925567627, 
351, 2526815750, 0.75029874, 0.18671048, -0.54036105, 0.3319677, 8.919964790344238, -1.185973882675171, 4.339688777923584, 13.702962875366211, -9.786066055297852, 6.928012371063232, 
352, 2526832417, 0.7489259, 0.18792038, -0.540924, 0.33346495, 8.767845153808594, -1.1219884157180786, 4.314772129058838, 13.404716491699219, -11.048223495483398, 7.238464832305908, 
353, 2526849084, 0.7475175, 0.18910712, -0.5415736, 0.3348968, 8.651775360107422, -1.1332712173461914, 4.177338123321533, 13.130993843078613, -11.695995330810547, 7.265037536621094, 
354, 2526865751, 0.7459981, 0.19047508, -0.5423115, 0.3363126, 8.485173225402832, -1.1544480323791504, 4.133764743804932, 13.70319652557373, -12.997533798217773, 6.78250789642334, 
355, 2526882418, 0.7444339, 0.19200827, -0.54309326, 0.33764255, 8.426100730895996, -1.1191580295562744, 4.121706008911133, 14.27123737335205, -13.907441139221191, 5.91236686706543, 
356, 2526899085, 0.7428088, 0.19376054, -0.5439366, 0.33886087, 8.460599899291992, -1.0887060165405273, 4.12155294418335, 14.841994285583496, -15.117300987243652, 4.713500022888184, 
357, 2526915752, 0.7411031, 0.19569375, -0.5448774, 0.33997175, 8.599947929382324, -1.100070595741272, 4.140745162963867, 15.587079048156738, -16.528072357177734, 3.9219839572906494, 
358, 2526932419, 0.73927695, 0.19784246, -0.5458541, 0.34113553, 8.686217308044434, -1.123171091079712, 4.130854606628418, 16.73202133178711, -17.592180252075195, 3.6300573348999023, 
359, 2526949086, 0.737281, 0.20015721, -0.54695904, 0.34233245, 8.695839881896973, -1.1172995567321777, 4.140030384063721, 17.477258682250977, -19.229381561279297, 3.6898961067199707, 
360, 2526965753, 0.73514736, 0.20268941, -0.54809266, 0.3436158, 8.73036003112793, -1.1550085544586182, 4.230259418487549, 18.969388961791992, -20.29832649230957, 3.6510045528411865, 
361, 2526982420, 0.73294675, 0.20540899, -0.54915226, 0.34500736, 8.752532958984375, -1.2126743793487549, 4.290058612823486, 20.931032180786133, -20.517915725708008, 3.65697979927063, 
362, 2526999087, 0.73062706, 0.2083939, -0.55006117, 0.34668607, 8.78264331817627, -1.2501051425933838, 4.357780933380127, 23.441526412963867, -20.41890525817871, 4.01956844329834, 
363, 2527015754, 0.7281668, 0.21159838, -0.55090135, 0.34858173, 8.818643569946289, -1.2987494468688965, 4.39502477645874, 25.852703094482422, -20.852642059326172, 4.552111625671387, 
364, 2527032421, 0.7255634, 0.214814, -0.5517827, 0.35064346, 8.792548179626465, -1.3495651483535767, 4.499792098999023, 26.680692672729492, -21.416833877563477, 5.7494730949401855, 
365, 2527049088, 0.72278166, 0.21847181, -0.5524826, 0.35301837, 8.767854690551758, -1.1965937614440918, 4.123354434967041, 30.791154861450195, -21.8226375579834, 5.794185638427734, 
366, 2527065755, 0.7198794, 0.22217199, -0.5530357, 0.35576296, 8.971402168273926, -1.220712423324585, 4.319326400756836, 33.03080749511719, -21.1284122467041, 7.567583084106445, 
367, 2527082422, 0.71713656, 0.22546816, -0.5535445, 0.35842746, 8.902414321899414, -1.3066803216934204, 4.520681381225586, 30.483049392700195, -19.4560546875, 8.214762687683105, 
368, 2527099089, 0.71425104, 0.22916155, -0.5540487, 0.36105776, 8.923272132873535, -1.0804466009140015, 4.161263465881348, 32.423702239990234, -21.029951095581055, 6.838563919067383, 
369, 2527115756, 0.71109587, 0.23309974, -0.55484545, 0.363533, 9.047112464904785, -0.8862438201904297, 4.325931549072266, 32.65889358520508, -24.365461349487305, 6.255887508392334, 
370, 2527132423, 0.70806164, 0.23680106, -0.5555367, 0.36599943, 9.108832359313965, -0.8461169004440308, 4.247670650482178, 31.663875579833984, -22.848800659179688, 6.689549446105957, 
371, 2527149090, 0.70532084, 0.24004282, -0.5561163, 0.36829257, 9.043892860412598, -1.0069782733917236, 4.12998104095459, 28.590984344482422, -20.338809967041016, 6.695715427398682, 
372, 2527165757, 0.70298445, 0.24282153, -0.5566244, 0.3701654, 9.005268096923828, -1.0299623012542725, 3.768296718597412, 24.255752563476562, -17.992830276489258, 5.289333343505859, 
373, 2527182424, 0.70109105, 0.24525236, -0.55699396, 0.3715954, 8.778207778930664, -0.9040943384170532, 3.441683769226074, 20.497379302978516, -15.49863338470459, 3.1221697330474854, 
374, 2527199091, 0.6997141, 0.24715023, -0.55736965, 0.3723692, 8.764357566833496, -0.7179721593856812, 3.1882290840148926, 14.48083782196045, -13.30424690246582, 0.6775208711624146, 
375, 2527215758, 0.69895685, 0.24828273, -0.5578209, 0.3723622, 9.396773338317871, -0.5315267443656921, 3.3089635372161865, 6.647158622741699, -10.671831130981445, -1.5781528949737549, 
376, 2527232425, 0.6988927, 0.24835616, -0.5585478, 0.37134284, 11.262120246887207, -0.26118502020835876, 3.1479289531707764, -4.1321306228637695, -8.365501403808594, -3.658769369125366, 
377, 2527249092, 0.69876826, 0.2481839, -0.5597414, 0.36989197, 11.396255493164062, -0.4718806743621826, 2.904806613922119, -8.194025993347168, -10.931487083435059, -3.8645172119140625, 
378, 2527265759, 0.69790196, 0.24844313, -0.5619311, 0.36802876, 11.329089164733887, -0.727953314781189, 2.747264862060547, -9.00369930267334, -20.35426902770996, -3.923654794692993, 
379, 2527282426, 0.6976667, 0.248263, -0.56366986, 0.3659317, 10.92560863494873, -0.7929868698120117, 2.3604063987731934, -11.91059398651123, -15.025627136230469, -5.70539665222168, 
380, 2527299093, 0.69757026, 0.24814996, -0.56542015, 0.36348364, 10.272007942199707, -0.2799449563026428, 2.221261978149414, -13.214850425720215, -15.28859806060791, -7.983421325683594, 
381, 2527315760, 0.6970071, 0.24864538, -0.5677184, 0.36063188, 9.456655502319336, 0.46978533267974854, 2.361990451812744, -12.432031631469727, -21.920074462890625, -10.178121566772461, 
382, 2527332427, 0.6964248, 0.24876744, -0.5705903, 0.3571233, 8.884736061096191, 0.9816887974739075, 2.042447090148926, -18.191545486450195, -24.930028915405273, -10.822577476501465, 
383, 2527349094, 0.69610065, 0.2480213, -0.57388544, 0.3529699, 8.799994468688965, 0.8289783596992493, 1.8023672103881836, -26.358327865600586, -24.90172576904297, -10.384772300720215, 
384, 2527365761, 0.6958993, 0.24644096, -0.57776624, 0.3481094, 9.295096397399902, 0.1355644166469574, 2.1194889545440674, -34.765323638916016, -26.385364532470703, -9.753192901611328, 
385, 2527382428, 0.6958191, 0.2444931, -0.58157504, 0.34326702, 9.567244529724121, -0.47612079977989197, 2.3431074619293213, -36.49098205566406, -24.63898277282715, -8.61529541015625, 
386, 2527399095, 0.6956286, 0.24309202, -0.5848473, 0.33906278, 9.567240715026855, -0.614820122718811, 2.1523609161376953, -29.92055892944336, -22.72272491455078, -8.40935230255127, 
387, 2527415762, 0.6954081, 0.24232295, -0.58751595, 0.33543226, 9.638697624206543, -0.4840730130672455, 1.9684112071990967, -23.01143455505371, -20.470123291015625, -9.128853797912598, 
388, 2527432429, 0.69522905, 0.24199505, -0.58963, 0.33231604, 9.776871681213379, -0.27583208680152893, 1.900569200515747, -17.675094604492188, -17.797597885131836, -9.488434791564941, 
389, 2527449096, 0.6951218, 0.24186772, -0.5912446, 0.32975486, 9.617833137512207, -0.16252389550209045, 1.9488160610198975, -13.442007064819336, -14.641836166381836, -8.64179515838623, 
390, 2527465763, 0.6951079, 0.24166219, -0.59255826, 0.3275693, 9.268351554870605, -0.0551886111497879, 1.9883407354354858, -11.767441749572754, -12.01554012298584, -7.236639976501465, 
391, 2527482430, 0.6950874, 0.24121815, -0.5938886, 0.32552442, 8.898111343383789, -0.08607956022024155, 1.9732685089111328, -12.357475280761719, -11.344839096069336, -5.543644905090332, 
392, 2527499097, 0.6948843, 0.24053235, -0.595487, 0.32353938, 8.709299087524414, -0.25077879428863525, 2.119981288909912, -13.568431854248047, -12.728015899658203, -3.413651943206787, 
393, 2527515764, 0.6946242, 0.24010794, -0.5968209, 0.32195142, 8.586735725402832, -0.14690274000167847, 1.7628718614578247, -10.022623062133789, -11.622151374816895, -2.898674964904785, 
394, 2527532431, 0.6946131, 0.23937888, -0.5977136, 0.32085997, 8.568379402160645, -0.08395107835531235, 1.8343720436096191, -8.860122680664062, -6.995478630065918, -0.5508205890655518, 
395, 2527549098, 0.6951963, 0.23809087, -0.5980726, 0.31988493, 8.429936408996582, -0.08666691184043884, 1.7784199714660645, -10.85335922241211, -0.5774513483047485, 0.1186956986784935, 
396, 2527565765, 0.69602495, 0.23709135, -0.59782004, 0.31929645, 8.33213996887207, 0.07938996702432632, 1.2484614849090576, -6.940690517425537, 3.3575310707092285, -0.7558372616767883, 
397, 2527582432, 0.69685405, 0.23631337, -0.597274, 0.3190867, 8.532449722290039, -0.02321421168744564, 1.5817829370498657, -3.6856865882873535, 4.909454822540283, -0.32547974586486816, 
398, 2527599099, 0.69793457, 0.23562738, -0.5959769, 0.31965715, 8.836919784545898, -0.19787736237049103, 1.749078392982483, 1.201364278793335, 10.614073753356934, 1.2721065282821655, 
399, 2527615766, 0.6990113, 0.23511665, -0.59423244, 0.32092583, 8.967615127563477, -0.390762060880661, 2.1228103637695312, 5.887141704559326, 13.497243881225586, 3.193758964538574, 
400, 2527632433, 0.6998446, 0.23482876, -0.5923092, 0.32286987, 9.306699752807617, -0.6621572375297546, 2.708798885345459, 10.504426956176758, 13.962401390075684, 5.780133247375488, 
401, 2527649100, 0.70058984, 0.23468399, -0.5898422, 0.32586142, 9.712961196899414, -0.786501944065094, 3.163498878479004, 16.806499481201172, 17.583641052246094, 9.554231643676758, 
402, 2527665767, 0.7014499, 0.23450892, -0.5865421, 0.33006692, 9.744105339050293, -0.6883174777030945, 3.1839816570281982, 23.264230728149414, 24.072864532470703, 13.922375679016113, 
403, 2527682434, 0.7023541, 0.23438385, -0.5824866, 0.33537167, 9.56633472442627, -0.5246807932853699, 2.8678622245788574, 29.577253341674805, 29.53816795349121, 17.707883834838867, 
404, 2527699101, 0.70323086, 0.23464724, -0.5776819, 0.3416029, 9.415658950805664, -0.5125892758369446, 2.698495388031006, 36.9298095703125, 33.6373176574707, 19.48979377746582, 
405, 2527715768, 0.70380324, 0.2358881, -0.5721073, 0.34887382, 9.017683982849121, -0.32430562376976013, 2.7882261276245117, 48.07660675048828, 35.52968978881836, 20.119775772094727, 
406, 2527732435, 0.70426416, 0.23802926, -0.5656658, 0.3569009, 8.184069633483887, -0.2017192393541336, 2.9702064990997314, 57.66397476196289, 38.351226806640625, 19.116426467895508, 
407, 2527749102, 0.70497537, 0.24072896, -0.5580661, 0.3655453, 6.9028520584106445, -0.11509587615728378, 3.0162134170532227, 65.19528198242188, 44.56448745727539, 17.44647789001465, 
408, 2527765769, 0.7058914, 0.24375604, -0.54960823, 0.37447736, 5.307094573974609, -0.21981260180473328, 2.756009101867676, 69.69641876220703, 49.15156936645508, 15.672063827514648, 
409, 2527782436, 0.70687705, 0.24674842, -0.5408184, 0.3833501, 3.3665874004364014, -0.5599289536476135, 1.9697624444961548, 70.03511810302734, 51.002105712890625, 14.798491477966309, 
410, 2527799103, 0.7075592, 0.24899416, -0.53285336, 0.39170277, 1.5552053451538086, -0.9416566491127014, 1.116181492805481, 62.80912780761719, 46.94390869140625, 17.255231857299805, 
411, 2527815770, 0.7074994, 0.25053436, -0.5265538, 0.3992746, 0.022055724635720253, -0.9528430104255676, 0.07927994430065155, 53.30082321166992, 36.6875, 20.88701057434082, 
412, 2527832437, 0.70469296, 0.2539446, -0.5241098, 0.4052539, -0.22043801844120026, -0.46335121989250183, 0.6174895763397217, 50.778812408447266, 0.12371063977479935, 20.543869018554688, 
413, 2527849104, 0.6980276, 0.2610762, -0.52703005, 0.4084578, 1.5466471910476685, 0.5468853712081909, 1.7365686893463135, 50.60060501098633, -54.98777389526367, 13.808445930480957, 
414, 2527865771, 0.6895853, 0.26969174, -0.5329296, 0.40954414, 4.7146430015563965, 1.5281877517700195, 2.1019773483276367, 44.86655044555664, -83.70650482177734, 8.631462097167969, 
415, 2527882438, 0.6821852, 0.276641, -0.5394183, 0.4088066, 8.905770301818848, 0.44551190733909607, 2.815633773803711, 26.684961318969727, -81.37171173095703, 4.291595935821533, 
416, 2527899105, 0.6813531, 0.2726302, -0.54558355, 0.4046865, 28.199831008911133, -4.275534629821777, 5.537312030792236, -48.853878021240234, -31.119787216186523, 10.013239860534668, 
417, 2527915772, 0.67654717, 0.27616602, -0.54875743, 0.4060585, 17.141069412231445, 3.658991813659668, 4.560381889343262, 22.88762092590332, -42.663570404052734, 12.833574295043945, 
418, 2527932439, 0.67669195, 0.2755722, -0.55177575, 0.40211096, 18.189390182495117, -0.6534366011619568, 6.617764949798584, -25.378124237060547, -21.828317642211914, -10.354432106018066, 
419, 2527949106, 0.6832911, 0.27136374, -0.54717857, 0.4000902, 14.981395721435547, -1.59280526638031, 3.3974695205688477, -26.06123161315918, 51.699562072753906, -19.949691772460938, 
420, 2527965773, 0.6869795, 0.26983967, -0.54462147, 0.39828995, 13.047098159790039, -2.8917388916015625, 4.006519794464111, -12.795939445495605, 24.208736419677734, -17.21907615661621, 
421, 2527982440, 0.68981, 0.26798758, -0.54336226, 0.3963637, 11.466146469116211, -2.5527656078338623, 4.993608474731445, -16.765296936035156, 15.529412269592285, -11.874978065490723, 
422, 2527999107, 0.6932012, 0.26497456, -0.5405602, 0.39630413, 10.21837043762207, -0.8834528923034668, 4.549349308013916, -12.116706848144531, 31.519861221313477, -3.0983362197875977, 
423, 2528015774, 0.69708514, 0.2609299, -0.53703904, 0.3969619, 9.129389762878418, -0.47098836302757263, 4.208062171936035, -13.30500602722168, 40.875484466552734, 1.4899258613586426, 
424, 2528032441, 0.7011788, 0.25635275, -0.5332505, 0.39784074, 7.642143249511719, -0.22038361430168152, 2.7835330963134766, -14.6892728805542, 44.761131286621094, 3.457613468170166, 
425, 2528049108, 0.7062746, 0.25072894, -0.52914876, 0.39788747, 4.145482063293457, 0.2838408946990967, 2.3442251682281494, -23.698373794555664, 51.343833923339844, -0.013286737725138664, 
426, 2528065775, 0.71255815, 0.24354732, -0.525437, 0.39605984, 1.6299062967300415, 0.47449547052383423, 2.184047222137451, -41.20011520385742, 54.79152297973633, -6.027461051940918, 
427, 2528082442, 0.71927845, 0.2355213, -0.52236027, 0.3928228, 0.7719277143478394, 0.5033044219017029, 2.2126152515411377, -52.892494201660156, 53.17591094970703, -10.014908790588379, 
428, 2528099109, 0.725467, 0.22764882, -0.5204474, 0.38860008, 0.4308789372444153, 1.1837912797927856, 1.8407208919525146, -57.95734405517578, 43.47443771362305, -12.130111694335938, 
429, 2528115776, 0.7293507, 0.22105756, -0.52206385, 0.38292584, 1.4556095600128174, 0.8010265827178955, 1.7654913663864136, -62.58679962158203, 11.90493392944336, -12.272435188293457, 
430, 2528132443, 0.72995627, 0.21687017, -0.52801895, 0.37593755, 3.9795329570770264, -0.7504503130912781, 1.9534165859222412, -61.69187545776367, -29.95768165588379, -12.270721435546875, 
431, 2528149110, 0.72817916, 0.21496843, -0.53644025, 0.36847985, 7.86868143081665, -1.8915139436721802, 1.8199400901794434, -54.73801040649414, -57.590980529785156, -13.112279891967773, 
432, 2528165777, 0.7244461, 0.21493648, -0.5466806, 0.3607244, 15.897658348083496, -1.9409191608428955, 2.4410178661346436, -48.1790657043457, -79.06058502197266, -13.891725540161133, 
433, 2528182444, 0.72174454, 0.21669717, -0.5518798, 0.35715216, 24.62441635131836, -0.4739666283130646, 5.2493577003479, -12.536409378051758, -48.27569580078125, -9.815842628479004, 
434, 2528199111, 0.7172029, 0.21999054, -0.55783814, 0.35502493, 22.617097854614258, -0.20621436834335327, 5.595459938049316, 1.427580714225769, -60.58030700683594, -2.7822988033294678, 
435, 2528215778, 0.71617943, 0.2217958, -0.5582771, 0.3552777, 22.158519744873047, -0.014444919303059578, 5.921070098876953, 11.363866806030273, -12.61005973815918, -2.2414658069610596, 
436, 2528232445, 0.7163647, 0.22280255, -0.5571225, 0.3560857, 18.568222045898438, 0.7886623740196228, 4.593334674835205, 11.607449531555176, 2.692331552505493, -1.791557788848877, 
437, 2528249112, 0.7168307, 0.22283243, -0.555836, 0.35713822, 16.446453094482422, -0.6939608454704285, 4.569126129150391, 7.616983413696289, 7.203415393829346, 2.307506799697876, 
438, 2528265779, 0.7192584, 0.22097953, -0.55201674, 0.35932568, 14.63101863861084, -1.0138003826141357, 4.176738262176514, 5.885259628295898, 33.55881118774414, 6.409092426300049, 
439, 2528282446, 0.7227889, 0.21852937, -0.54583234, 0.36316705, 12.009333610534668, -0.7613690495491028, 3.5728759765625, 13.373971939086914, 53.440185546875, 10.540188789367676, 
440, 2528299113, 0.72676724, 0.21490745, -0.5384561, 0.36836302, 9.09056568145752, -1.1998555660247803, 3.0023698806762695, 14.932910919189453, 66.01851654052734, 18.763751983642578, 
441, 2528315780, 0.72932386, 0.21283802, -0.5309428, 0.37535095, 4.600369930267334, -1.971552848815918, 1.2933608293533325, 31.7684326171875, 60.16554641723633, 25.363075256347656, 
442, 2528332447, 0.7306299, 0.21418785, -0.5222934, 0.384077, 0.31452476978302, -1.867394208908081, 1.069753646850586, 60.02341079711914, 55.03411865234375, 23.142515182495117, 
443, 2528349114, 0.7315758, 0.21785158, -0.5125017, 0.39329588, -2.3262197971343994, -0.691162645816803, 0.8957504034042358, 76.97062683105469, 54.09031677246094, 16.556095123291016, 
444, 2528365781, 0.7318678, 0.22229117, -0.50338525, 0.40194726, -2.842402696609497, 0.15059728920459747, 1.5252737998962402, 78.02536010742188, 45.42167663574219, 13.746047019958496, 
445, 2528382448, 0.73064363, 0.22743885, -0.4972965, 0.4088151, -2.432077646255493, 0.4604923129081726, 2.3429574966430664, 69.36063385009766, 20.22127342224121, 11.148161888122559, 
446, 2528399115, 0.7267548, 0.23433231, -0.49629822, 0.41304445, -0.24938072264194489, -0.014615863561630249, 2.3855419158935547, 58.96149826049805, -23.538042068481445, 7.390625, 
447, 2528415782, 0.72101814, 0.24215093, -0.49904737, 0.4152704, 2.8370182514190674, 0.024179477244615555, 2.5104541778564453, 49.08298110961914, -54.45367431640625, 5.518860340118408, 
448, 2528432449, 0.7142552, 0.24953951, -0.50465786, 0.41580296, 6.542815685272217, 0.32321423292160034, 2.8355488777160645, 34.68052673339844, -73.7625732421875, 6.306341648101807, 
449, 2528449116, 0.7074259, 0.25519833, -0.5124899, 0.41446203, 11.028226852416992, 0.15535469353199005, 3.3706116676330566, 13.448735237121582, -83.1656723022461, 7.128052711486816, 
450, 2528465783, 0.7028667, 0.2550387, -0.52020633, 0.41269955, 23.391481399536133, 0.35096532106399536, 4.529059410095215, -19.993267059326172, -58.74179458618164, 18.921161651611328, 
451, 2528482450, 0.70001584, 0.2559721, -0.52395344, 0.4122271, 16.685136795043945, 2.473858118057251, 4.671411037445068, -1.8345305919647217, -34.22032928466797, 9.470715522766113, 
452, 2528499117, 0.7014078, 0.25465265, -0.5266406, 0.40722352, 15.635880470275879, -0.0011333376169204712, 4.5719122886657715, -33.47372817993164, -15.403951644897461, -18.05567741394043, 
453, 2528515784, 0.70456874, 0.25222293, -0.52809256, 0.40135628, 14.89577865600586, -1.6549795866012573, 4.383862495422363, -41.592750549316406, -1.4321268796920776, -25.307178497314453, 
454, 2528532451, 0.7074301, 0.2500813, -0.5293904, 0.39591625, 12.797039985656738, -2.1992321014404297, 4.2712554931640625, -37.6913948059082, -1.8163820505142212, -23.7431583404541, 
455, 2528549118, 0.7100566, 0.24721889, -0.53043246, 0.3915938, 10.885557174682617, -1.5244907140731812, 5.003983020782471, -36.01789093017578, 2.4609262943267822, -15.517050743103027, 
456, 2528565785, 0.7134917, 0.24239813, -0.52988195, 0.38910136, 8.911882400512695, -1.1561594009399414, 4.789055347442627, -35.98604202270508, 21.55079460144043, -4.349895477294922, 
457, 2528582452, 0.7172221, 0.23592326, -0.52845263, 0.38816574, 6.488064765930176, -1.4495753049850464, 4.075573444366455, -36.57020568847656, 33.93356704711914, 7.038804054260254, 
458, 2528599119, 0.72127074, 0.2285312, -0.525869, 0.3885948, 3.485490560531616, -1.1652021408081055, 2.8622548580169678, -33.56995391845703, 45.4217643737793, 14.350505828857422, 
459, 2528615786, 0.7258552, 0.22057395, -0.522329, 0.3894302, 0.747708797454834, -0.3025820255279541, 1.5213737487792969, -33.191680908203125, 54.2318000793457, 15.448750495910645, 
460, 2528632453, 0.7304802, 0.2127672, -0.51886946, 0.38975012, -0.6029509902000427, 0.6839287877082825, 0.8082490563392639, -34.572391510009766, 52.77869415283203, 12.334717750549316, 
461, 2528649120, 0.7330135, 0.2066716, -0.5185732, 0.38866675, -0.016341300681233406, 0.7182530760765076, 1.0450329780578613, -36.40798568725586, 22.780502319335938, 9.412897109985352, 
462, 2528665787, 0.73159105, 0.20408037, -0.5238243, 0.3856632, 3.1874005794525146, -0.3337022662162781, 1.667314887046814, -34.799400329589844, -31.382728576660156, 5.695733070373535, 
463, 2528682454, 0.72716206, 0.20468138, -0.533014, 0.38110226, 7.0749287605285645, -1.7292509078979492, 1.250072956085205, -30.575748443603516, -72.67214965820312, -0.14426028728485107, 
464, 2528699121, 0.72163105, 0.20556164, -0.54391116, 0.37570712, 14.472867965698242, -2.001711130142212, 2.5679283142089844, -35.14955520629883, -87.12319946289062, -0.06705612689256668, 
465, 2528715788, 0.71979487, 0.20622411, -0.5464407, 0.37519538, 27.11850357055664, -3.9430229663848877, 3.6120026111602783, -1.5684609413146973, -24.277854919433594, 3.599398374557495, 
466, 2528732455, 0.71182936, 0.2133993, -0.5540042, 0.3752879, 19.324735641479492, -1.467857003211975, 3.8433661460876465, 28.65003204345703, -88.0683822631836, 5.0641937255859375, 
467, 2528749122, 0.70773333, 0.2176326, -0.55514085, 0.37890652, 21.274553298950195, -1.1115391254425049, 5.240432262420654, 38.589847564697266, -29.067235946655273, 14.133843421936035, 
468, 2528765789, 0.7064256, 0.21924247, -0.55315334, 0.38330045, 18.147083282470703, 0.43732741475105286, 4.201136589050293, 32.747196197509766, 4.7973198890686035, 16.00832176208496, 
469, 2528782456, 0.7029156, 0.22176453, -0.5546817, 0.38608328, 15.82692813873291, 0.41626298427581787, 4.532873153686523, 25.097354888916016, -25.461307525634766, 15.861686706542969, 
470, 2528799123, 0.6998376, 0.22470272, -0.55546665, 0.38883802, 14.72115707397461, 0.05766740068793297, 4.571923732757568, 28.309062957763672, -21.360166549682617, 11.898539543151855, 
471, 2528815790, 0.6994379, 0.22729552, -0.5527195, 0.3919523, 12.776893615722656, 0.011499188840389252, 4.189806938171387, 33.320106506347656, 7.3456244468688965, 2.361269950866699, 
472, 2528832457, 0.70153683, 0.22944893, -0.54637563, 0.39582178, 10.491506576538086, -0.39981186389923096, 3.2948060035705566, 39.859230041503906, 36.500797271728516, -4.665088176727295, 
473, 2528849124, 0.7042851, 0.2313017, -0.53848755, 0.40064323, 7.686200141906738, -0.3947715759277344, 2.426847219467163, 45.15925598144531, 48.71482467651367, -3.1318604946136475, 
474, 2528865791, 0.70642954, 0.23296496, -0.5306084, 0.4063758, 4.186858177185059, -0.6357665061950684, 1.8608665466308594, 48.547149658203125, 48.41655731201172, 3.6673505306243896, 
475, 2528882458, 0.70820445, 0.23402101, -0.5223758, 0.4132869, 1.1074565649032593, -1.0837303400039673, 1.786524772644043, 51.47306823730469, 52.37050247192383, 12.073472023010254, 
476, 2528899125, 0.7090714, 0.23544979, -0.51463, 0.4206414, -0.24502187967300415, -1.4316895008087158, 2.3530213832855225, 54.95664978027344, 46.38370132446289, 16.244205474853516, 
477, 2528915792, 0.7088897, 0.23804547, -0.5084223, 0.42698762, 0.4754418134689331, -0.806778073310852, 1.655427098274231, 54.32542419433594, 30.142833709716797, 12.703028678894043, 
478, 2528932459, 0.7066025, 0.24242094, -0.50576323, 0.43145183, 2.4968981742858887, -0.32942548394203186, 2.1796958446502686, 49.45062255859375, -2.8319380283355713, 9.29032039642334, 
479, 2528949126, 0.7025416, 0.24780786, -0.5065287, 0.43411642, 4.666854381561279, -0.25785157084465027, 2.7933249473571777, 40.9039421081543, -31.64403533935547, 8.002689361572266, 
480, 2528965793, 0.6976689, 0.25336242, -0.5099495, 0.4347633, 7.171605587005615, -0.48118478059768677, 3.0634653568267822, 28.146442413330078, -51.241512298583984, 4.626157283782959, 
481, 2528982460, 0.6936872, 0.25675416, -0.5143724, 0.43393388, 10.59207534790039, -0.4960363805294037, 3.4285521507263184, 8.051692008972168, -49.03001022338867, 4.214325428009033, 
482, 2528999127, 0.6924297, 0.2552462, -0.51786923, 0.43267074, 16.693130493164062, -0.5664790868759155, 4.012352466583252, -18.895078659057617, -21.114282608032227, 9.715707778930664, 
483, 2529015794, 0.69164115, 0.2546279, -0.5189047, 0.43305555, 15.609234809875488, -0.4116899073123932, 3.991699457168579, -2.292126178741455, -7.451422214508057, 8.69277286529541, 
484, 2529032461, 0.692844, 0.25407267, -0.51938105, 0.4308824, 14.63194465637207, -1.7437673807144165, 4.294427871704102, -12.940093040466309, -2.3290226459503174, -10.589983940124512, 
485, 2529049128, 0.6956949, 0.2530017, -0.51912236, 0.427215, 13.471041679382324, -1.6043113470077515, 4.542020797729492, -21.429391860961914, 5.98947286605835, -22.040679931640625, 
486, 2529065795, 0.6987744, 0.25222057, -0.518968, 0.422816, 12.551814079284668, -1.099761962890625, 5.027056694030762, -23.351303100585938, 4.187260150909424, -27.074241638183594, 
487, 2529082462, 0.7024125, 0.25061193, -0.51878893, 0.41793594, 11.30404281616211, -1.1783193349838257, 4.667754650115967, -29.938608169555664, 7.863557815551758, -28.10595703125, 
488, 2529099129, 0.70687425, 0.2476851, -0.5180038, 0.413104, 9.805035591125488, -1.3661415576934814, 4.695199966430664, -35.80760192871094, 17.59084129333496, -26.592247009277344, 
489, 2529115796, 0.71219546, 0.2432917, -0.5162056, 0.4088038, 8.191463470458984, -0.8824002742767334, 4.1293230056762695, -39.622276306152344, 30.63146209716797, -22.96858024597168, 
490, 2529132463, 0.7184177, 0.2373213, -0.51318955, 0.40520748, 6.025677680969238, -0.23136447370052338, 2.8045363426208496, -42.93034362792969, 45.388893127441406, -18.507686614990234, 
491, 2529149130, 0.7250166, 0.23050751, -0.5096016, 0.40190244, 3.435563087463379, 0.3075365126132965, 1.9991716146469116, -45.091129302978516, 52.360713958740234, -16.081560134887695, 
492, 2529165797, 0.73160917, 0.22355665, -0.50592464, 0.3985133, 1.7168772220611572, 0.7992642521858215, 0.9997109174728394, -45.81428527832031, 53.0195198059082, -16.145442962646484, 
493, 2529182464, 0.7376551, 0.21646973, -0.5031938, 0.3947199, 0.8644317388534546, 0.9464576244354248, 0.41120654344558716, -49.661067962646484, 46.10704803466797, -14.75164794921875, 
494, 2529199131, 0.7403097, 0.21094626, -0.5058011, 0.38937178, 2.0253124237060547, 0.13139697909355164, 1.0417941808700562, -56.55167770385742, 0.7425976991653442, -10.892268180847168, 
495, 2529215798, 0.73882294, 0.20759147, -0.5146425, 0.38234997, 5.374391078948975, -1.6282474994659424, 1.87783682346344, -62.013999938964844, -53.625431060791016, -6.830902576446533, 
496, 2529232465, 0.7351988, 0.20618384, -0.52546185, 0.37531683, 9.5895414352417, -3.0263211727142334, 2.101234197616577, -54.303627014160156, -76.36582946777344, -5.360744476318359, 
497, 2529249132, 0.7330679, 0.2040405, -0.5331044, 0.36983863, 16.190263748168945, -2.1855883598327637, 3.5534796714782715, -46.30921936035156, -50.78009033203125, -3.235891819000244, 
498, 2529265799, 0.7316905, 0.20653088, -0.534206, 0.36959425, 21.813444137573242, -1.1785961389541626, 3.790086507797241, 11.811548233032227, -19.452016830444336, -4.9417548179626465, 
499, 2529282466, 0.7267923, 0.21265198, -0.5393378, 0.36833262, 19.45134925842285, -0.8452368378639221, 5.046379089355469, 21.103069305419922, -63.268104553222656, -8.707086563110352, 
500, 2529299133, 0.7254974, 0.21587774, -0.5382712, 0.37056226, 17.60698699951172, -0.4088190495967865, 5.169081211090088, 30.00975799560547, -6.466888904571533, 1.303229808807373, 
501, 2529315800, 0.72467935, 0.21794575, -0.53630435, 0.37379017, 15.152800559997559, -0.1380535513162613, 4.257482528686523, 29.513595581054688, 4.235585689544678, 8.035767555236816, 
502, 2529332467, 0.722524, 0.2208706, -0.5357583, 0.3770149, 13.310519218444824, -0.49332985281944275, 4.065463542938232, 32.1223030090332, -9.964197158813477, 10.44494342803955, 
503, 2529349134, 0.72131723, 0.22391656, -0.53344214, 0.38079423, 11.43847942352295, -0.4330412745475769, 3.7219491004943848, 37.91444396972656, 2.8633551597595215, 7.618429660797119, 
504, 2529365801, 0.7226408, 0.22678691, -0.5261931, 0.38662767, 8.491006851196289, -0.48521578311920166, 3.109070062637329, 53.59369659423828, 40.23912811279297, 4.239256858825684, 
505, 2529382468, 0.7242349, 0.23003285, -0.51747555, 0.39343345, 4.726280689239502, -1.075011134147644, 1.986894130706787, 62.45674514770508, 49.03652572631836, 4.707763671875, 
506, 2529399135, 0.7250895, 0.23430946, -0.50785893, 0.40177816, 1.6044939756393433, -1.1101322174072266, 1.0426589250564575, 76.66523742675781, 50.534523010253906, 9.274797439575195, 
507, 2529415802, 0.72635746, 0.23772174, -0.49686795, 0.41111735, -0.8625473380088806, -0.49253204464912415, 1.1132949590682983, 78.9592056274414, 62.82179260253906, 13.883166313171387, 
508, 2529432469, 0.7266407, 0.24119195, -0.4876601, 0.41953477, -1.4199422597885132, 0.09975998103618622, 1.1896748542785645, 72.66515350341797, 48.87053298950195, 14.773892402648926, 
509, 2529449136, 0.72411674, 0.24608012, -0.48358482, 0.42573115, 0.9834845066070557, -0.013166090473532677, 1.2698510885238647, 62.14860916137695, 6.026589393615723, 15.534034729003906, 
510, 2529465803, 0.718773, 0.25262088, -0.4846624, 0.42971185, 4.438270568847656, -0.8274911046028137, 2.1808981895446777, 52.69745635986328, -37.59454345703125, 15.983291625976562, 
511, 2529482470, 0.71191955, 0.26024255, -0.48886418, 0.43180797, 8.474502563476562, -1.0921707153320312, 3.0640645027160645, 45.15616989135742, -64.52774810791016, 12.949898719787598, 
512, 2529499137, 0.70651907, 0.26612604, -0.49265358, 0.43278438, 13.041309356689453, -0.47159135341644287, 4.216172695159912, 31.51409339904785, -54.4560661315918, 8.253310203552246, 
513, 2529515804, 0.7046979, 0.2667108, -0.49290758, 0.43509784, 20.731868743896484, -0.8270403742790222, 4.271631240844727, 14.276748657226562, -6.926537990570068, 15.580860137939453, 
514, 2529532471, 0.7015117, 0.27005994, -0.492826, 0.43826196, 17.453054428100586, 0.8081232905387878, 4.099968433380127, 34.06216049194336, -16.583797454833984, 13.809113502502441, 
515, 2529549138, 0.7005518, 0.2727481, -0.49275124, 0.43821698, 14.999870300292969, 0.0588272325694561, 4.586845397949219, 15.845308303833008, -13.002006530761719, -6.09987211227417, 
516, 2529565805, 0.70117795, 0.27401564, -0.49289295, 0.43626085, 13.244608879089355, 0.3520110547542572, 3.9549710750579834, -1.0988820791244507, -7.957265377044678, -14.853684425354004, 
517, 2529582472, 0.7020429, 0.27451223, -0.4941532, 0.43312085, 12.46652603149414, -0.8154321312904358, 4.462146759033203, -12.62955093383789, -12.444332122802734, -16.544384002685547, 
518, 2529599139, 0.70326, 0.27383336, -0.4954672, 0.43006364, 11.761149406433105, -1.8760708570480347, 4.726178169250488, -18.845497131347656, -7.846050262451172, -13.104655265808105, 
519, 2529615806, 0.70483285, 0.27219957, -0.49561915, 0.42834768, 10.438690185546875, -1.8605685234069824, 4.906422138214111, -16.122819900512695, 4.330471515655518, -6.6262102127075195, 
520, 2529632473, 0.7064764, 0.26948264, -0.495532, 0.4274578, 9.895523071289062, -1.5129616260528564, 4.858817100524902, -17.983041763305664, 10.456795692443848, 0.3880329728126526, 
521, 2529649140, 0.7077763, 0.26633927, -0.4952558, 0.4275978, 10.003141403198242, -1.1669402122497559, 3.633509635925293, -15.35071849822998, 13.35464859008789, 7.486911296844482, 
522, 2529665807, 0.7087291, 0.26273218, -0.4952885, 0.42821258, 9.842456817626953, -0.7547139525413513, 3.256937026977539, -16.26145362854004, 12.905842781066895, 12.95022964477539, 
523, 2529682474, 0.71049684, 0.2582455, -0.49459463, 0.42881426, 8.89348030090332, -0.7014780640602112, 3.9574332237243652, -19.927705764770508, 21.795331954956055, 12.164115905761719, 
524, 2529699141, 0.71347725, 0.25341368, -0.4922923, 0.42939726, 7.61060094833374, -0.6282339692115784, 3.623711109161377, -19.085535049438477, 34.757659912109375, 6.811800479888916, 
525, 2529715808, 0.7177977, 0.24836084, -0.4883356, 0.42966717, 6.025130748748779, -0.1300048828125, 2.762679100036621, -18.682531356811523, 47.50914001464844, -0.8192233443260193, 
526, 2529732475, 0.72299564, 0.2433697, -0.48355463, 0.42921486, 4.619649410247803, 0.4733029901981354, 1.929038643836975, -19.868572235107422, 53.10596466064453, -8.59049129486084, 
527, 2529749142, 0.72792625, 0.23949054, -0.47934985, 0.42777738, 4.213725566864014, 0.9852302670478821, 1.692348599433899, -18.871355056762695, 44.423587799072266, -15.423805236816406, 
528, 2529765809, 0.7310852, 0.23755988, -0.4782508, 0.42468578, 5.313909530639648, 0.6754475831985474, 2.392232656478882, -20.793638229370117, 14.587996482849121, -19.785276412963867, 
529, 2529782476, 0.73222893, 0.23757951, -0.480269, 0.4204051, 7.338068962097168, 0.20265398919582367, 3.1102583408355713, -20.713459014892578, -15.344160079956055, -21.189306259155273, 
530, 2529799143, 0.7322609, 0.23723164, -0.48470694, 0.41542327, 11.30065631866455, 0.18877264857292175, 4.145984172821045, -30.05380630493164, -31.276880264282227, -16.332874298095703, 
531, 2529815810, 0.7334285, 0.23295335, -0.48822954, 0.41164228, 17.711183547973633, -0.02636357955634594, 4.334212303161621, -45.077266693115234, -9.689605712890625, -1.9154918193817139, 
532, 2529832477, 0.73191285, 0.23270045, -0.4921574, 0.40980124, 16.427452087402344, 1.7472178936004639, 4.541778564453125, -15.114117622375488, -28.983932495117188, 2.6123645305633545, 
533, 2529849144, 0.7303673, 0.23218034, -0.49690828, 0.4071118, 17.57122230529785, 0.5692857503890991, 5.692090034484863, -21.6020565032959, -33.80234909057617, 0.6851051449775696, 
534, 2529865811, 0.73057353, 0.23034115, -0.49958193, 0.40450627, 16.755992889404297, -0.3406693637371063, 5.578407287597656, -24.929073333740234, -13.539830207824707, -2.5884974002838135, 
535, 2529882478, 0.7294753, 0.22994435, -0.5024103, 0.4032087, 15.679882049560547, 0.299909770488739, 5.427194595336914, -11.549962043762207, -20.720504760742188, 2.9133737087249756, 
536, 2529899145, 0.72733545, 0.22946797, -0.50671715, 0.40195435, 14.94603443145752, -0.14768372476100922, 6.00662088394165, -14.25362491607666, -31.433252334594727, 8.6458101272583, 
537, 2529915812, 0.72562087, 0.22842139, -0.5104952, 0.40086764, 13.889511108398438, -0.541614830493927, 5.017828941345215, -15.749007225036621, -25.464065551757812, 9.462496757507324, 
538, 2529932479, 0.72406304, 0.22743016, -0.51357484, 0.4003139, 12.598494529724121, -0.7239973545074463, 4.307957172393799, -11.888450622558594, -20.74355125427246, 10.418566703796387, 
539, 2529949146, 0.7225946, 0.22639303, -0.51575756, 0.40074852, 11.843860626220703, -0.6577680706977844, 3.6804370880126953, -6.300548076629639, -14.28266716003418, 13.853800773620605, 
540, 2529965813, 0.7214218, 0.22524357, -0.5167253, 0.40225944, 10.801885604858398, -0.5239743590354919, 3.4110145568847656, -0.1734621822834015, -5.201790809631348, 16.88743782043457, 
541, 2529982480, 0.72047883, 0.22425878, -0.5165821, 0.40467644, 9.849742889404297, -0.6480741500854492, 3.0079407691955566, 6.591975212097168, 2.0812268257141113, 18.44977569580078, 
542, 2529999147, 0.719617, 0.22396788, -0.51529473, 0.40799886, 9.014982223510742, -0.6914961338043213, 2.3625941276550293, 16.275278091430664, 7.516306400299072, 18.469932556152344, 
543, 2530015814, 0.71864045, 0.22465335, -0.51321983, 0.4119396, 8.101273536682129, -0.6463910937309265, 1.9755079746246338, 25.721786499023438, 9.229300498962402, 17.197017669677734, 
544, 2530032481, 0.7176189, 0.22605142, -0.51068664, 0.4160832, 7.414028644561768, -0.49606069922447205, 1.7042092084884644, 31.326440811157227, 9.646113395690918, 15.10390853881836, 
545, 2530049148, 0.71672803, 0.22787757, -0.50775295, 0.42019272, 6.811877250671387, -0.14621269702911377, 1.6879838705062866, 34.24330139160156, 10.823348999023438, 12.428351402282715, 
546, 2530065815, 0.7159942, 0.2298446, -0.5047469, 0.42397693, 6.4270758628845215, 0.3065863251686096, 1.7625926733016968, 33.72854995727539, 10.828536033630371, 9.755064964294434, 
547, 2530082482, 0.715291, 0.23180316, -0.50198376, 0.42736432, 6.32816219329834, 0.4853590428829193, 1.8986802101135254, 31.565357208251953, 9.14569091796875, 8.139927864074707, 
548, 2530099149, 0.71462375, 0.23332064, -0.49962044, 0.4304135, 6.542132377624512, 0.3055116534233093, 2.124267101287842, 27.010616302490234, 8.06893253326416, 8.547981262207031, 
549, 2530115816, 0.7138945, 0.23451549, -0.49769628, 0.43319464, 7.135207653045654, -0.17634521424770355, 2.1336920261383057, 23.34385108947754, 6.225565433502197, 9.254364013671875, 
550, 2530132483, 0.71302915, 0.23555739, -0.49628866, 0.43566224, 7.928164958953857, -0.6048881411552429, 2.4513142108917236, 20.20567512512207, 3.184880495071411, 9.483284950256348, 
551, 2530149150, 0.7123057, 0.23635922, -0.49521154, 0.4376329, 9.05600643157959, -0.7609708905220032, 2.8472230434417725, 16.123212814331055, 1.9720393419265747, 7.980106353759766, 
552, 2530165817, 0.71196663, 0.23692341, -0.49416593, 0.43905902, 10.176130294799805, -0.7842624187469482, 3.0184593200683594, 12.339271545410156, 2.973982334136963, 4.994210720062256, 
553, 2530182484, 0.7121652, 0.23746277, -0.49270093, 0.44009098, 11.112439155578613, -0.6861795783042908, 2.9389584064483643, 11.306388854980469, 6.296067237854004, 0.8613685369491577, 
554, 2530199151, 0.7127398, 0.23765579, -0.49133295, 0.44058535, 11.157175064086914, -0.7981194853782654, 2.9239704608917236, 6.78196382522583, 7.295868873596191, -1.6222896575927734, 
555, 2530215818, 0.7136151, 0.23720923, -0.49019036, 0.44068202, 10.656574249267578, -1.2246723175048828, 2.8422248363494873, 1.3060429096221924, 8.495964050292969, -1.8663846254348755, 
556, 2530232485, 0.7144678, 0.23633528, -0.48954087, 0.440492, 10.039460182189941, -1.75324547290802, 2.8018364906311035, -3.2872047424316406, 6.852627754211426, -0.9986841082572937, 
557, 2530249152, 0.715029, 0.23546655, -0.48945498, 0.4401417, 9.648653984069824, -2.0057053565979004, 2.8843910694122314, -5.020146369934082, 2.8416008949279785, -0.00970081053674221, 
558, 2530265819, 0.7149758, 0.23514228, -0.48998505, 0.43981174, 9.586347579956055, -1.9926366806030273, 2.913808822631836, -3.132747173309326, -3.856459856033325, 1.1055339574813843, 
559, 2530282486, 0.71437836, 0.23546763, -0.4909175, 0.43956876, 9.927639961242676, -1.8616892099380493, 2.987612009048462, -0.03272663801908493, -9.472674369812012, 1.601985216140747, 
560, 2530299153, 0.71370196, 0.23610678, -0.49194744, 0.4391729, 10.53180980682373, -1.465409755706787, 3.2326183319091797, 0.9290754199028015, -11.41162109375, 0.22416242957115173, 
561, 2530315820, 0.7133717, 0.23660158, -0.4927363, 0.43855837, 11.056872367858887, -1.116837978363037, 3.5034902095794678, -0.22872783243656158, -8.974825859069824, -1.7453198432922363, 
562, 2530332487, 0.7135844, 0.23680656, -0.49322882, 0.4375471, 11.02402400970459, -0.8096571564674377, 3.627218723297119, -3.0613651275634766, -5.435611724853516, -4.866382122039795, 
563, 2530349154, 0.7147101, 0.23643005, -0.49319094, 0.4359529, 10.761270523071289, -0.6770086884498596, 3.8597517013549805, -7.7497992515563965, 1.0692028999328613, -9.346611022949219, 
564, 2530365821, 0.7167921, 0.23569262, -0.49237323, 0.43385336, 10.271747589111328, -0.5757174491882324, 3.5638797283172607, -10.556807518005371, 8.41980266571045, -14.784472465515137, 
565, 2530382488, 0.719577, 0.23460218, -0.49103504, 0.43134362, 9.694570541381836, -0.381914883852005, 3.5032691955566406, -13.338724136352539, 13.764413833618164, -18.577878952026367, 
566, 2530399155, 0.7230738, 0.23252109, -0.48982826, 0.42798194, 8.867424964904785, -0.4832168221473694, 3.7424333095550537, -22.70403480529785, 17.087753295898438, -21.36237144470215, 
567, 2530415822, 0.72686845, 0.23019134, -0.48902434, 0.4237114, 8.139251708984375, -0.43748390674591064, 3.069587230682373, -28.643436431884766, 15.36150074005127, -25.26150131225586, 
568, 2530432489, 0.73038745, 0.22819176, -0.48904625, 0.4186866, 7.9049177169799805, -0.33032622933387756, 3.2133467197418213, -31.44367790222168, 8.147554397583008, -27.99855613708496, 
569, 2530449156, 0.7339896, 0.22594069, -0.4895453, 0.41298625, 8.032625198364258, -0.239149808883667, 3.234896183013916, -36.466182708740234, 5.6913275718688965, -30.020580291748047, 
570, 2530465823, 0.73756474, 0.22340722, -0.4906347, 0.40665373, 8.302356719970703, -0.3221498727798462, 3.2875237464904785, -41.68557357788086, 2.440708637237549, -31.274770736694336, 
571, 2530482490, 0.7410239, 0.22049487, -0.4923093, 0.399874, 8.891839027404785, -0.6088795065879822, 3.1857810020446777, -46.70205307006836, -0.5399664640426636, -31.09756088256836, 
572, 2530499157, 0.7444392, 0.21683067, -0.49444333, 0.39283937, 9.477648735046387, -0.8477191925048828, 2.913893222808838, -52.401947021484375, -1.3606853485107422, -28.936100006103516, 
573, 2530515824, 0.74754256, 0.21269448, -0.4970787, 0.3858189, 9.559959411621094, -0.8375648856163025, 2.756054162979126, -55.70951461791992, -3.682469606399536, -25.69154930114746, 
574, 2530532491, 0.75033027, 0.20799033, -0.5003919, 0.37862176, 9.407401084899902, -0.6979836225509644, 3.1629233360290527, -60.66011428833008, -6.9818572998046875, -22.872753143310547, 
575, 2530549158, 0.75326544, 0.20255235, -0.5038327, 0.371104, 9.227664947509766, -0.6500440835952759, 3.372100591659546, -66.10556030273438, -5.678567409515381, -22.205842971801758, 
576, 2530565825, 0.7561719, 0.19701418, -0.5073159, 0.36334804, 9.25692081451416, -0.5912739634513855, 3.516564130783081, -67.53924560546875, -6.073078155517578, -22.96413803100586, 
577, 2530582492, 0.75899637, 0.1915311, -0.5107162, 0.35554376, 9.557561874389648, -0.7241377830505371, 3.654224157333374, -66.96406555175781, -6.147190093994141, -23.24179458618164, 
578, 2530599159, 0.7619467, 0.18566698, -0.5139114, 0.34765258, 9.680057525634766, -0.8626387119293213, 3.8060436248779297, -68.99552917480469, -3.8163440227508545, -22.96575355529785, 
579, 2530615826, 0.7651322, 0.17934215, -0.5168791, 0.33948082, 9.518293380737305, -0.9741402268409729, 3.7098886966705322, -72.30879211425781, -1.0424004793167114, -23.729167938232422, 
580, 2530632493, 0.76860535, 0.17286104, -0.51941323, 0.331024, 9.266732215881348, -1.010765790939331, 3.7500557899475098, -73.32804107666016, 2.2546823024749756, -25.800416946411133, 
581, 2530649160, 0.7725302, 0.16614984, -0.52126515, 0.32229754, 9.061299324035645, -1.1095240116119385, 3.763965368270874, -74.48843383789062, 7.668435096740723, -28.240447998046875, 
582, 2530665827, 0.7767926, 0.15905407, -0.52260154, 0.31334463, 8.887683868408203, -1.2604347467422485, 3.7414333820343018, -76.7347640991211, 12.214508056640625, -29.470630645751953, 
583, 2530682494, 0.7809992, 0.1516298, -0.5238806, 0.30430242, 8.950775146484375, -1.3965981006622314, 3.754673957824707, -78.43802642822266, 12.905231475830078, -28.621442794799805, 
584, 2530699161, 0.7848202, 0.1440977, -0.5253087, 0.29554325, 9.162519454956055, -1.489208459854126, 3.682967185974121, -77.76506805419922, 11.21439266204834, -25.685958862304688, 
585, 2530715828, 0.78806055, 0.13670076, -0.5270177, 0.28727663, 9.322782516479492, -1.5926164388656616, 3.614269971847534, -75.57377624511719, 7.840662956237793, -22.214115142822266, 
586, 2530732495, 0.79071605, 0.12973681, -0.52902853, 0.27940536, 9.524672508239746, -1.562127709388733, 3.5359385013580322, -71.65206146240234, 3.5783302783966064, -20.116567611694336, 
587, 2530749162, 0.7928879, 0.12346399, -0.53117675, 0.27191663, 9.698661804199219, -1.577332615852356, 3.507456064224243, -66.31818389892578, 0.08283927291631699, -19.49529457092285, 
588, 2530765829, 0.79467493, 0.11818213, -0.53325474, 0.26488912, 9.649459838867188, -1.575642466545105, 3.532275438308716, -58.58060836791992, -2.4238009452819824, -19.852567672729492, 
589, 2530782496, 0.796068, 0.1139571, -0.5352666, 0.2584203, 9.300108909606934, -1.547414779663086, 3.5063259601593018, -50.41151809692383, -4.965893268585205, -20.0621395111084, 
590, 2530799163, 0.79711837, 0.1107679, -0.5371947, 0.25250056, 8.971725463867188, -1.44307541847229, 3.4789235591888428, -42.51420593261719, -7.155925273895264, -20.42858123779297, 
591, 2530815830, 0.79791987, 0.10839287, -0.5390387, 0.24701023, 8.617999076843262, -1.2917314767837524, 3.406460762023926, -36.14157485961914, -8.699658393859863, -20.725650787353516, 
592, 2530832497, 0.7984826, 0.10647393, -0.54094064, 0.24181426, 8.333956718444824, -1.0557128190994263, 3.4651482105255127, -32.45753479003906, -10.460740089416504, -20.350921630859375, 
593, 2530849164, 0.79877937, 0.10453879, -0.5431172, 0.23674673, 8.298855781555176, -0.8805895447731018, 3.5843348503112793, -32.27315902709961, -12.847881317138672, -18.918699264526367, 
594, 2530865831, 0.7988259, 0.10219919, -0.5455905, 0.23187442, 8.566925048828125, -0.6974998116493225, 3.6462655067443848, -34.071781158447266, -14.618069648742676, -15.718743324279785, 
595, 2530882498, 0.7985593, 0.09959724, -0.54837203, 0.22731833, 8.94797134399414, -0.6197353005409241, 3.7920591831207275, -34.804378509521484, -16.82691192626953, -12.372465133666992, 
596, 2530899165, 0.7982256, 0.097097255, -0.5508937, 0.22344214, 9.520950317382812, -0.43296900391578674, 3.894963502883911, -31.190670013427734, -15.357647895812988, -9.076669692993164, 
597, 2530915832, 0.7981274, 0.09405356, -0.5530714, 0.21968289, 9.596319198608398, -0.3060319423675537, 4.556417465209961, -33.32292938232422, -11.67368221282959, -6.945068836212158, 
598, 2530932499, 0.7982741, 0.09111862, -0.5549604, 0.21558507, 9.423324584960938, 0.09384327381849289, 3.990043878555298, -33.66649627685547, -9.56026554107666, -9.737147331237793, 
599, 2530949166, 0.7983802, 0.08862329, -0.55697745, 0.21098158, 9.346060752868652, 0.4549095928668976, 3.83180570602417, -33.52619171142578, -11.372965812683105, -14.115345001220703, 
600, 2530965833, 0.79874444, 0.08619122, -0.5588631, 0.20555459, 9.164836883544922, 0.5917196273803711, 3.6324105262756348, -36.299896240234375, -10.265405654907227, -19.316606521606445, 
601, 2530982500, 0.7992898, 0.08390764, -0.5606989, 0.19928373, 9.101487159729004, 0.685778796672821, 3.6838667392730713, -38.51913070678711, -10.039063453674316, -24.69025230407715, 
602, 2530999167, 0.7999949, 0.08124753, -0.56267565, 0.19184694, 9.083085060119629, 0.7479295134544373, 3.7698142528533936, -45.23728942871094, -10.378826141357422, -29.71367645263672, 
603, 2531015834, 0.8009767, 0.07766978, -0.5646681, 0.18318209, 9.11465835571289, 0.6774218082427979, 3.5086987018585205, -55.11103439331055, -8.889262199401855, -33.218833923339844, 
604, 2531032501, 0.8015509, 0.07380159, -0.5672927, 0.17392702, 8.978154182434082, 0.8295632600784302, 3.1434831619262695, -59.86115264892578, -13.885143280029297, -34.587913513183594, 
605, 2531049168, 0.8015903, 0.06963056, -0.57066745, 0.16414987, 9.186927795410156, 0.8802704215049744, 3.236762285232544, -64.33993530273438, -20.002416610717773, -35.30517578125, 
606, 2531065835, 0.8014689, 0.0648547, -0.5742425, 0.153913, 9.445568084716797, 0.826975405216217, 3.225396156311035, -69.47947692871094, -21.297048568725586, -35.11496353149414, 
607, 2531082502, 0.8013887, 0.05944908, -0.5776636, 0.14334935, 9.622876167297363, 0.7199562191963196, 3.3428618907928467, -74.17516326904297, -19.76966667175293, -34.5555534362793, 
608, 2531099169, 0.80150265, 0.05376526, -0.5806174, 0.13262054, 9.668764114379883, 0.601024866104126, 3.283513307571411, -75.84429931640625, -16.240299224853516, -34.6772346496582, 
609, 2531115836, 0.80181545, 0.04806252, -0.58306915, 0.12171508, 9.717768669128418, 0.5817050933837891, 3.3649473190307617, -76.38297271728516, -12.729454040527344, -35.97186279296875, 
610, 2531132503, 0.8024033, 0.042357605, -0.5849269, 0.11053148, 9.796780586242676, 0.6325109601020813, 3.3487017154693604, -76.9397201538086, -8.469419479370117, -37.85307693481445, 
611, 2531149170, 0.8031631, 0.03647146, -0.586334, 0.09906218, 9.782049179077148, 0.668100118637085, 3.39581036567688, -78.76390838623047, -5.251976013183594, -38.9398307800293, 
612, 2531165837, 0.80408317, 0.030511959, -0.58727074, 0.08737498, 9.653544425964355, 0.6829966306686401, 3.35390043258667, -79.89888763427734, -2.017850875854492, -40.1109619140625, 
613, 2531182504, 0.80508727, 0.02442779, -0.58783424, 0.07543496, 9.50830364227295, 0.6846212148666382, 3.251566171646118, -81.25985717773438, 0.38281217217445374, -41.0743522644043, 
614, 2531199171, 0.8060836, 0.018208185, -0.58812976, 0.06326931, 9.38116455078125, 0.7372063994407654, 3.1438138484954834, -82.86487579345703, 1.8582769632339478, -41.83724594116211, 
615, 2531215838, 0.8070268, 0.0118350405, -0.5881995, 0.05090345, 9.333824157714844, 0.809076189994812, 3.0649430751800537, -84.39057159423828, 2.920189142227173, -42.31247329711914, 
616, 2531232505, 0.8078308, 0.005350279, -0.5881431, 0.038347807, 9.386662483215332, 0.9090797901153564, 3.0691189765930176, -85.83023834228516, 3.0734634399414062, -42.90349578857422, 
617, 2531249172, 0.80847585, -0.0012989972, -0.5879735, 0.025578959, 9.516491889953613, 0.9559271931648254, 3.0953497886657715, -87.50171661376953, 3.0766563415527344, -43.35323715209961, 
618, 2531265839, 0.808967, -0.008082937, -0.5876635, 0.012672485, 9.5819673538208, 1.0258084535598755, 3.1884987354278564, -88.90951538085938, 3.2523298263549805, -43.58050537109375, 
619, 2531282506, 0.80931354, -0.015043927, -0.5871857, -4.1830726E-4, 9.594243049621582, 1.0935488939285278, 3.282700777053833, -90.51512145996094, 3.6060311794281006, -43.820369720458984, 
620, 2531299173, 0.8095935, -0.022318924, -0.58640605, -0.013795677, 9.601613998413086, 1.1111853122711182, 3.241387367248535, -93.3837661743164, 5.028365612030029, -44.09329605102539, 
621, 2531315840, 0.80980504, -0.029798634, -0.5853012, -0.027427254, 9.556900978088379, 1.1363525390625, 3.097344398498535, -95.28974151611328, 6.555551528930664, -44.529335021972656, 
622, 2531332507, 0.80989087, -0.037412133, -0.5839405, -0.04114401, 9.430460929870605, 1.2111854553222656, 3.030773162841797, -96.771240234375, 7.464039325714111, -44.540672302246094, 
623, 2531349174, 0.8098052, -0.045225736, -0.582368, -0.054950006, 9.290290832519531, 1.2654772996902466, 2.9116764068603516, -98.17952728271484, 7.901811122894287, -44.16361999511719, 
624, 2531365841, 0.809484, -0.053245507, -0.5806635, -0.06879438, 9.18035888671875, 1.2390625476837158, 2.8478100299835205, -99.74899291992188, 7.617645263671875, -43.644309997558594, 
625, 2531382508, 0.8088589, -0.06157428, -0.5788984, -0.08267056, 9.122729301452637, 1.2004936933517456, 2.8105859756469727, -101.83435821533203, 6.597469329833984, -42.74073028564453, 
626, 2531399175, 0.8078651, -0.07050313, -0.577102, -0.09663593, 9.119504928588867, 1.1837375164031982, 2.9147820472717285, -105.63544464111328, 4.984771728515625, -41.0178108215332, 
627, 2531415842, 0.80654675, -0.07940989, -0.57531726, -0.11040167, 9.273282051086426, 1.1999568939208984, 2.357668399810791, -105.00403594970703, 3.5390069484710693, -40.26371765136719, 
628, 2531432509, 0.8050494, -0.08910495, -0.57313144, -0.12441218, 9.475214958190918, 0.9678310751914978, 2.9004311561584473, -110.6192626953125, 4.579125881195068, -38.37255859375, 
629, 2531449176, 0.8032328, -0.099116065, -0.5707311, -0.13878381, 9.488411903381348, 0.839290976524353, 2.794706106185913, -114.17655944824219, 4.4462409019470215, -39.272308349609375, 
630, 2531465843, 0.801185, -0.10866714, -0.5682275, -0.15301433, 9.662705421447754, 1.2119417190551758, 2.7832796573638916, -111.31282043457031, 4.439201831817627, -40.44193649291992, 
631, 2531482510, 0.79920447, -0.117991075, -0.5651183, -0.16731362, 10.152461051940918, 1.4674837589263916, 2.892133951187134, -110.95118713378906, 8.319385528564453, -41.19689178466797, 
632, 2531499177, 0.79740316, -0.12704222, -0.5612041, -0.18182538, 10.38831615447998, 1.562070369720459, 3.0999176502227783, -111.10279846191406, 13.915167808532715, -42.58005142211914, 
633, 2531515844, 0.79563946, -0.13622108, -0.55647564, -0.19682117, 10.291460990905762, 1.5896555185317993, 3.276817798614502, -114.62899017333984, 18.776390075683594, -43.969879150390625, 
634, 2531532511, 0.79382426, -0.14574648, -0.55097383, -0.2122048, 10.069426536560059, 1.4782780408859253, 3.2124404907226562, -119.11592864990234, 22.692663192749023, -44.11308288574219, 
635, 2531549178, 0.79204476, -0.1555344, -0.54460967, -0.22776465, 9.796195983886719, 1.2726390361785889, 3.1583588123321533, -122.43982696533203, 27.31529998779297, -43.163856506347656, 
636, 2531565845, 0.79009813, -0.16575736, -0.537634, -0.24335398, 9.552319526672363, 0.8351565599441528, 3.2134060859680176, -126.04891967773438, 29.356412887573242, -41.3028450012207, 
637, 2531582512, 0.7876806, -0.1765949, -0.53046906, -0.25880137, 9.732702255249023, 0.2486530989408493, 3.3954741954803467, -129.7154083251953, 27.441635131835938, -38.83878707885742, 
638, 2531599179, 0.784756, -0.18779366, -0.5233367, -0.27388352, 10.126336097717285, 0.06109616160392761, 3.7082743644714355, -130.91232299804688, 24.316761016845703, -36.50591278076172, 
639, 2531615846, 0.78135866, -0.19924879, -0.51622385, -0.2886064, 10.553725242614746, 0.2271527349948883, 3.7715744972229004, -131.56863403320312, 21.549734115600586, -34.57178497314453, 
640, 2531632513, 0.7777133, -0.21057324, -0.5090379, -0.30282563, 10.726396560668945, 0.5309150815010071, 3.9787027835845947, -129.54653930664062, 20.620018005371094, -32.72993469238281, 
641, 2531649180, 0.77397805, -0.22145416, -0.50165665, -0.31663656, 10.588281631469727, 0.5711038708686829, 4.020730018615723, -126.30191802978516, 21.672834396362305, -32.02145767211914, 
642, 2531665847, 0.77019304, -0.23210566, -0.49382442, -0.33025587, 10.315152168273926, 0.10302453488111496, 4.080929756164551, -125.48031616210938, 24.10014533996582, -31.22278594970703, 
643, 2531682514, 0.76656955, -0.24210149, -0.48557365, -0.34347937, 9.900206565856934, -0.4252428412437439, 3.9661684036254883, -121.3705062866211, 27.713394165039062, -30.339458465576172, 
644, 2531699181, 0.7630563, -0.25135317, -0.477256, -0.35608363, 9.231942176818848, -0.673653244972229, 4.054424285888672, -115.35330200195312, 29.15224838256836, -29.20664405822754, 
645, 2531715848, 0.7596149, -0.26009464, -0.4686675, -0.36835954, 8.54151439666748, -0.7097426652908325, 3.9834043979644775, -112.13922119140625, 31.48242950439453, -28.5323543548584, 
646, 2531732515, 0.7559551, -0.26849878, -0.4601135, -0.38044453, 7.889483451843262, -0.6016858816146851, 3.7542521953582764, -110.06101989746094, 31.101369857788086, -29.255773544311523, 
647, 2531749182, 0.751589, -0.27715337, -0.4520014, -0.3924242, 7.520293235778809, -0.45478740334510803, 3.505878210067749, -111.17832946777344, 25.7126407623291, -30.598779678344727, 
648, 2531765849, 0.7462689, -0.28647283, -0.44442552, -0.40435627, 7.64065408706665, -0.5107425451278687, 3.427656650543213, -114.8316650390625, 18.085588455200195, -31.89586067199707, 
649, 2531782516, 0.73997694, -0.29661593, -0.43738952, -0.4161076, 8.22118091583252, -0.7661435604095459, 3.615694046020508, -118.91397857666016, 9.6934232711792, -32.23366165161133, 
