sep=,
DeviceTag:,L Forearm - 10,,,,,,,,,,,,,,,,,
FirmwareVersion:,3.0.0,,,,,,,,,,,,,,,,,
AppVersion:,2023.6.1,,,,,,,,,,,,,,,,,
StartTime:,2024-05-25 15:19:41.000 +0200,,,,,,,,,,,,,,,,,
 2024,,,,,,,,,,,,,,,,,,,

PacketCounter,SampleTimeFine,Quat_W,Quat_X,Quat_Y,Quat_Z,Acc_X,Acc_Y,Acc_Z,Gyr_X,Gyr_Y,Gyr_Z,
0, 1213479089, 0.56850886, 0.5757468, -0.343944, 0.4764621, 0.0, 0.0, 0.0, 0.0, 0.0, 0.0, 
1, 1213495756, 0.5679491, 0.57570195, -0.34470588, 0.47663304, 9.273453712463379, 3.2796525955200195, 0.9917586445808411, -0.673409104347229, -3.6815693378448486, 6.188316822052002, 
2, 1213512423, 0.5676181, 0.57599986, -0.34486055, 0.47655553, 9.251496315002441, 3.3066320419311523, 0.9872222542762756, -0.3671324551105499, -3.6122617721557617, 4.433091163635254, 
3, 1213529090, 0.56770146, 0.57636607, -0.34483725, 0.47603014, 9.316021919250488, 3.333510637283325, 0.9950121641159058, -0.5766187906265259, -3.727173328399658, 2.9688005447387695, 
4, 1213545757, 0.56793827, 0.5766761, -0.34483698, 0.47537187, 9.376784324645996, 3.359877347946167, 1.0142872333526611, -0.9943106770515442, -3.859257459640503, 1.828932523727417, 
5, 1213562424, 0.5683159, 0.57689637, -0.34492794, 0.4745866, 9.39426040649414, 3.348644495010376, 1.0849679708480835, -1.0748368501663208, -4.060675621032715, 0.5913395285606384, 
6, 1213579091, 0.56864524, 0.5770746, -0.34489495, 0.47399932, 9.404815673828125, 3.3340606689453125, 1.0816481113433838, -0.7535256147384644, -4.379208087921143, -0.2455233484506607, 
7, 1213595758, 0.5690343, 0.5771444, -0.34508097, 0.47331125, 9.385594367980957, 3.380035161972046, 1.1103867292404175, -0.6193535327911377, -4.849739074707031, -0.6762778162956238, 
8, 1213612425, 0.5695006, 0.57712936, -0.3453973, 0.47253722, 9.331600189208984, 3.4260106086730957, 1.1403735876083374, -1.2554962635040283, -5.306337356567383, -0.7342392802238464, 
9, 1213629092, 0.5700027, 0.57709247, -0.3456711, 0.47177652, 9.291059494018555, 3.417696237564087, 1.1781326532363892, -2.6054906845092773, -5.661073207855225, -0.8660295605659485, 
10, 1213645759, 0.5705589, 0.5769842, -0.3459611, 0.4710233, 9.310470581054688, 3.405036687850952, 1.1744849681854248, -3.735856533050537, -5.836892127990723, -0.8758264183998108, 
11, 1213662426, 0.5712144, 0.5767958, -0.34631896, 0.4701956, 9.348445892333984, 3.356717109680176, 1.160228967666626, -4.199945449829102, -5.680692195892334, -1.198840856552124, 
12, 1213679093, 0.571681, 0.5767317, -0.34644997, 0.46961033, 9.343958854675293, 3.3221848011016846, 1.1948150396347046, -3.865814447402954, -5.287742614746094, -1.5307046175003052, 
13, 1213695760, 0.57212996, 0.5766964, -0.34650522, 0.4690658, 9.337629318237305, 3.2864608764648438, 1.205296277999878, -3.1761672496795654, -4.844974517822266, -2.132154703140259, 
14, 1213712427, 0.57264143, 0.5766376, -0.34655514, 0.46847683, 9.300365447998047, 3.2795345783233643, 1.2062844038009644, -2.633574962615967, -4.3516106605529785, -2.814157009124756, 
15, 1213729094, 0.57318866, 0.5765856, -0.34657186, 0.46785903, 9.282317161560059, 3.2767648696899414, 1.2406554222106934, -2.0131969451904297, -3.9149274826049805, -3.427748203277588, 
16, 1213745761, 0.57381237, 0.5764966, -0.34658557, 0.46719337, 9.310165405273438, 3.282916307449341, 1.2664748430252075, -1.514543056488037, -3.3714895248413086, -3.9077296257019043, 
17, 1213762428, 0.57429105, 0.5765165, -0.3463278, 0.46677172, 9.341412544250488, 3.283003330230713, 1.265070915222168, -0.9310088753700256, -2.6706364154815674, -4.19456672668457, 
18, 1213779095, 0.57481146, 0.57650423, -0.3460381, 0.46636078, 9.332700729370117, 3.2662577629089355, 1.2673819065093994, -0.25699782371520996, -1.9157658815383911, -4.420085906982422, 
19, 1213795762, 0.57527626, 0.57651913, -0.34561324, 0.46608415, 9.314679145812988, 3.291064739227295, 1.274698257446289, 0.14640861749649048, -1.2205734252929688, -4.53863525390625, 
20, 1213812429, 0.5756496, 0.57658607, -0.34499282, 0.46599996, 9.36264419555664, 3.268557071685791, 1.2622708082199097, 0.34161579608917236, -0.503033459186554, -4.620941638946533, 
21, 1213829096, 0.57607377, 0.57658005, -0.34439084, 0.46592885, 9.394630432128906, 3.2418415546417236, 1.2857609987258911, 0.4276617467403412, 0.18097294867038727, -4.54553747177124, 
22, 1213845763, 0.5764768, 0.5765293, -0.3437917, 0.46593544, 9.41162109375, 3.2236766815185547, 1.2911423444747925, 0.4044820964336395, 0.6382235884666443, -4.2084736824035645, 
23, 1213862430, 0.57678926, 0.5764736, -0.34314197, 0.46609655, 9.376062393188477, 3.1960084438323975, 1.3099596500396729, 0.6018664240837097, 1.1121737957000732, -3.706925868988037, 
24, 1213879097, 0.5771453, 0.5763259, -0.34259674, 0.46623963, 9.33751392364502, 3.1974852085113525, 1.3127855062484741, 0.7799131274223328, 1.5178662538528442, -3.2964699268341064, 
25, 1213895764, 0.5772784, 0.57628685, -0.34184697, 0.46667308, 9.287871360778809, 3.217302083969116, 1.336759328842163, 0.8370805978775024, 1.730643630027771, -2.8641655445098877, 
26, 1213912431, 0.5776605, 0.5760002, -0.34143645, 0.466855, 9.24709415435791, 3.254258871078491, 1.3132266998291016, 0.13811008632183075, 1.9340471029281616, -2.4532358646392822, 
27, 1213929098, 0.5780459, 0.5756507, -0.34108284, 0.46706754, 9.216194152832031, 3.2714757919311523, 1.2562264204025269, -0.958555281162262, 1.8670698404312134, -2.042433500289917, 
28, 1213945765, 0.5786646, 0.5750568, -0.341107, 0.46701506, 9.215493202209473, 3.3089756965637207, 1.2234233617782593, -2.231813669204712, 1.7016116380691528, -1.4730374813079834, 
29, 1213962432, 0.57909316, 0.5745288, -0.34096596, 0.46723652, 9.201794624328613, 3.3261630535125732, 1.1946393251419067, -3.5968434810638428, 1.6149897575378418, -0.9361571669578552, 
30, 1213979099, 0.5795837, 0.57387286, -0.3410086, 0.4674033, 9.204217910766602, 3.347862958908081, 1.1607154607772827, -4.5167107582092285, 1.5925018787384033, -0.20663048326969147, 
31, 1213995766, 0.580043, 0.57315135, -0.34120724, 0.46757385, 9.259011268615723, 3.345564842224121, 1.12968909740448, -5.129251003265381, 1.3004401922225952, 0.7414941787719727, 
32, 1214012433, 0.58044004, 0.5724037, -0.3415101, 0.46777636, 9.297389030456543, 3.357304096221924, 1.1493852138519287, -5.393496990203857, 1.0697466135025024, 1.5713071823120117, 
33, 1214029100, 0.5807112, 0.5716974, -0.34180176, 0.46809003, 9.303895950317383, 3.344419479370117, 1.1306313276290894, -4.9659953117370605, 1.0797994136810303, 2.2587649822235107, 
34, 1214045767, 0.58089083, 0.5710424, -0.3421438, 0.4684168, 9.224207878112793, 3.344162702560425, 1.1256424188613892, -4.189584732055664, 0.8214569687843323, 2.761798620223999, 
35, 1214062434, 0.58104044, 0.5703954, -0.34259236, 0.4686915, 9.217795372009277, 3.407498836517334, 1.107268214225769, -4.2491984367370605, 0.32357168197631836, 3.132401704788208, 
36, 1214079101, 0.58120686, 0.5697007, -0.3431595, 0.468915, 9.171170234680176, 3.4392645359039307, 1.1021596193313599, -5.3814849853515625, -0.16629047691822052, 3.4798507690429688, 
37, 1214095768, 0.5815939, 0.5688096, -0.34402323, 0.46888393, 9.15611457824707, 3.484570264816284, 1.142089605331421, -7.449085712432861, -0.664406418800354, 3.605020761489868, 
38, 1214112435, 0.5817036, 0.5680892, -0.34455904, 0.46922782, 9.198836326599121, 3.4854695796966553, 1.1643508672714233, -9.391192436218262, -1.0496982336044312, 3.705294370651245, 
39, 1214129102, 0.5821953, 0.5670642, -0.34552345, 0.46914876, 9.224483489990234, 3.457209348678589, 1.1479123830795288, -10.711657524108887, -1.082610845565796, 3.7339038848876953, 
40, 1214145769, 0.5828479, 0.56593287, -0.34660476, 0.46890697, 9.240720748901367, 3.431814193725586, 1.1299563646316528, -10.936180114746094, -0.8087725639343262, 3.5418472290039062, 
41, 1214162436, 0.5834339, 0.56489396, -0.3474856, 0.4687789, 9.200267791748047, 3.4107916355133057, 1.094822883605957, -10.578560829162598, -0.36599278450012207, 3.1165478229522705, 
42, 1214179103, 0.5840942, 0.5638437, -0.34833765, 0.4685884, 9.152344703674316, 3.399712085723877, 1.0819602012634277, -10.301199913024902, 0.03984697163105011, 2.679800033569336, 
43, 1214195770, 0.58469963, 0.56288534, -0.3490381, 0.4684645, 9.156085014343262, 3.4092257022857666, 1.0674610137939453, -9.871176719665527, 0.27357572317123413, 2.263350248336792, 
44, 1214212437, 0.5854213, 0.56189865, -0.34976125, 0.46820843, 9.288904190063477, 3.38199520111084, 1.0810916423797607, -8.963947296142578, 0.7777361869812012, 1.8084810972213745, 
45, 1214229104, 0.5858746, 0.56120443, -0.3500412, 0.46826473, 9.370957374572754, 3.324939489364624, 1.0247349739074707, -7.042724609375, 1.3813121318817139, 1.2198240756988525, 
46, 1214245771, 0.5862122, 0.5607205, -0.350096, 0.46838102, 9.353988647460938, 3.332740545272827, 1.0364742279052734, -4.476510524749756, 1.7916274070739746, 0.5211479663848877, 
47, 1214262438, 0.5864464, 0.5604082, -0.34997422, 0.46855265, 9.317614555358887, 3.373431444168091, 1.0223127603530884, -2.5421500205993652, 2.0397250652313232, 0.013542714528739452, 
48, 1214279105, 0.58650994, 0.5602808, -0.34966737, 0.46885434, 9.28313159942627, 3.447401523590088, 0.9751596450805664, -1.8401827812194824, 1.7877856492996216, -0.2648737132549286, 
49, 1214295772, 0.5868837, 0.5599702, -0.34976208, 0.4686868, 9.223105430603027, 3.4470677375793457, 0.9470102190971375, -2.4579355716705322, 1.0874449014663696, -0.6213128566741943, 
50, 1214312439, 0.58705515, 0.55984735, -0.34970814, 0.46865928, 9.173148155212402, 3.4546923637390137, 0.9720717072486877, -3.332967758178711, 0.07549984008073807, -0.8252156376838684, 
51, 1214329106, 0.5873652, 0.5596487, -0.3499195, 0.4683502, 9.164044380187988, 3.473764657974243, 0.9694787263870239, -4.199010372161865, -0.9078933000564575, -0.9592724442481995, 
52, 1214345773, 0.58753353, 0.55955344, -0.35006163, 0.46814674, 9.126228332519531, 3.461301326751709, 0.9872276782989502, -5.510176181793213, -1.8081800937652588, -0.926821231842041, 
53, 1214362440, 0.5879377, 0.55929136, -0.35058087, 0.4675635, 9.13110637664795, 3.401217460632324, 0.9765980243682861, -6.37808895111084, -2.6374170780181885, -0.9422018527984619, 
54, 1214379107, 0.58807343, 0.55924714, -0.35093006, 0.46718356, 9.167214393615723, 3.415977716445923, 0.9481995105743408, -6.363987445831299, -3.5068397521972656, -0.8161999583244324, 
55, 1214395774, 0.5883046, 0.55908734, -0.35150602, 0.46665052, 9.20899486541748, 3.4780638217926025, 0.9917282462120056, -7.142640590667725, -3.957304000854492, -0.41002100706100464, 
56, 1214412441, 0.5886848, 0.55883217, -0.352289, 0.46588582, 9.25694465637207, 3.412856340408325, 0.9729572534561157, -7.120831489562988, -4.204158782958984, -0.46918630599975586, 
57, 1214429108, 0.5888194, 0.5588233, -0.35283646, 0.46531156, 9.283284187316895, 3.345729351043701, 1.0087770223617554, -5.841784477233887, -4.528467655181885, -0.6530855894088745, 
58, 1214445775, 0.5887141, 0.55908173, -0.35311845, 0.4649201, 9.298589706420898, 3.378812074661255, 1.041411280632019, -4.21663236618042, -4.75291109085083, -1.040144681930542, 
59, 1214462442, 0.5887345, 0.55934703, -0.35349378, 0.46428958, 9.310471534729004, 3.4097940921783447, 1.0618823766708374, -3.2608938217163086, -4.940779685974121, -1.749923825263977, 
60, 1214479109, 0.58873457, 0.5597223, -0.35374427, 0.46364623, 9.342001914978027, 3.4148058891296387, 1.1184617280960083, -2.8332138061523438, -5.038403511047363, -2.5397303104400635, 
61, 1214495776, 0.5887638, 0.56018037, -0.35387328, 0.4629568, 9.320394515991211, 3.395843267440796, 1.1044049263000488, -2.768362045288086, -5.070432186126709, -3.5398166179656982, 
62, 1214512443, 0.5889912, 0.56057465, -0.3541054, 0.46201184, 9.240047454833984, 3.3840346336364746, 1.114621639251709, -3.3181257247924805, -5.285360813140869, -4.463717937469482, 
63, 1214529110, 0.5892601, 0.56099814, -0.35431433, 0.46099347, 9.227897644042969, 3.3983685970306396, 1.1590720415115356, -4.097213268280029, -5.694447040557861, -5.1326584815979, 
64, 1214545777, 0.5896513, 0.5613537, -0.3545784, 0.45985615, 9.221484184265137, 3.397230625152588, 1.1905227899551392, -5.212646961212158, -5.843730926513672, -5.606979846954346, 
65, 1214562444, 0.5901814, 0.56158984, -0.35492888, 0.4586156, 9.2620210647583, 3.3714678287506104, 1.2287065982818604, -6.2434306144714355, -5.709661483764648, -5.774308681488037, 
66, 1214579111, 0.59070146, 0.5618101, -0.35524338, 0.45743155, 9.320449829101562, 3.3268826007843018, 1.1994587182998657, -6.2368998527526855, -5.420763969421387, -5.648434638977051, 
67, 1214595778, 0.5912055, 0.5619961, -0.35550582, 0.45634672, 9.341459274291992, 3.295557975769043, 1.2681140899658203, -5.648780345916748, -4.684218406677246, -5.294005870819092, 
68, 1214612445, 0.5915352, 0.5622231, -0.3555996, 0.45556602, 9.344094276428223, 3.2941133975982666, 1.3089969158172607, -5.107212066650391, -3.9781527519226074, -4.478522777557373, 
69, 1214629112, 0.5919443, 0.5622779, -0.35580292, 0.45480758, 9.355688095092773, 3.2724595069885254, 1.3480652570724487, -4.942394256591797, -3.104887008666992, -3.633815288543701, 
70, 1214645779, 0.59231305, 0.56223285, -0.3559979, 0.45423028, 9.403729438781738, 3.2654995918273926, 1.3955507278442383, -4.90968656539917, -2.2614223957061768, -2.6055548191070557, 
71, 1214662446, 0.5925681, 0.5621498, -0.35612166, 0.45390323, 9.443492889404297, 3.2354705333709717, 1.39778733253479, -4.555654048919678, -1.4812078475952148, -1.5377222299575806, 
72, 1214679113, 0.59282595, 0.56199795, -0.35622486, 0.45367342, 9.42225456237793, 3.2037603855133057, 1.4007437229156494, -3.8291378021240234, -0.5740447044372559, -1.0032240152359009, 
73, 1214695780, 0.5930193, 0.5618521, -0.35622987, 0.45359746, 9.365358352661133, 3.168800115585327, 1.3615062236785889, -2.6329472064971924, 0.2963581383228302, -0.5752099752426147, 
74, 1214712447, 0.59310704, 0.56178355, -0.35606128, 0.4537002, 9.317095756530762, 3.2183380126953125, 1.3447997570037842, -1.7133868932724, 0.8785730600357056, -0.5080150365829468, 
75, 1214729114, 0.59339064, 0.561542, -0.35605046, 0.45363665, 9.284750938415527, 3.2849676609039307, 1.3029171228408813, -1.8903709650039673, 1.391173005104065, -0.5139828324317932, 
76, 1214745781, 0.5936838, 0.56126004, -0.35595366, 0.45367798, 9.23659610748291, 3.3024537563323975, 1.2861249446868896, -2.586191177368164, 1.9012500047683716, -0.4916101396083832, 
77, 1214762448, 0.59403294, 0.5608727, -0.355888, 0.4537517, 9.212430953979492, 3.3379881381988525, 1.1958130598068237, -3.7249064445495605, 2.173794746398926, -0.22865739464759827, 
78, 1214779115, 0.5944153, 0.5603538, -0.3558864, 0.45389324, 9.257616996765137, 3.366079807281494, 1.1757583618164062, -5.109055519104004, 2.4065120220184326, 0.41822341084480286, 
79, 1214795782, 0.59492326, 0.5596018, -0.35611802, 0.453974, 9.303665161132812, 3.3593568801879883, 1.1694430112838745, -6.219648361206055, 2.6976771354675293, 1.3973585367202759, 
80, 1214812449, 0.59526974, 0.5588535, -0.35629264, 0.45430446, 9.336212158203125, 3.3320865631103516, 1.1634961366653442, -6.094645023345947, 3.0080389976501465, 2.517235517501831, 
81, 1214829116, 0.5954813, 0.55811274, -0.35648087, 0.4547898, 9.387645721435547, 3.3057684898376465, 1.148273229598999, -4.847423076629639, 3.333897352218628, 3.6431832313537598, 
82, 1214845783, 0.59550923, 0.5574483, -0.3565884, 0.4554832, 9.353056907653809, 3.3020291328430176, 1.1217788457870483, -3.139207601547241, 3.754213571548462, 4.551357746124268, 
83, 1214862450, 0.59538704, 0.55686885, -0.35662988, 0.45631856, 9.318113327026367, 3.341456890106201, 1.0811569690704346, -1.6797962188720703, 3.943286895751953, 5.128808975219727, 
84, 1214879117, 0.5950943, 0.5564027, -0.35653064, 0.45734543, 9.294788360595703, 3.410031795501709, 1.0753319263458252, -1.2621684074401855, 3.914165496826172, 5.407949447631836, 
85, 1214895784, 0.5949279, 0.5558128, -0.35662097, 0.45820826, 9.27818489074707, 3.438737154006958, 1.1076382398605347, -1.9287265539169312, 3.705819606781006, 5.551675796508789, 
86, 1214912451, 0.5948779, 0.55513847, -0.35682824, 0.45892838, 9.260550498962402, 3.452533483505249, 1.1011030673980713, -2.703702688217163, 3.5123276710510254, 5.365931987762451, 
87, 1214929118, 0.5948416, 0.55447114, -0.35705012, 0.4596092, 9.262700080871582, 3.422679901123047, 1.1034824848175049, -3.125671863555908, 3.242549180984497, 5.1793694496154785, 
88, 1214945785, 0.59478325, 0.55386543, -0.3572254, 0.46027848, 9.282085418701172, 3.395219087600708, 1.0782862901687622, -2.902700662612915, 3.0742099285125732, 4.8484787940979, 
89, 1214962452, 0.5946212, 0.5533966, -0.3572805, 0.46100825, 9.279945373535156, 3.383730173110962, 1.0764284133911133, -2.1573450565338135, 2.869550943374634, 4.536656379699707, 
90, 1214979119, 0.5944759, 0.55297303, -0.35734326, 0.461655, 9.248087882995605, 3.3857152462005615, 1.0724400281906128, -1.428907036781311, 2.734431266784668, 4.188528537750244, 
91, 1214995786, 0.5942936, 0.5526341, -0.35737035, 0.46227404, 9.193503379821777, 3.3994603157043457, 1.0809351205825806, -0.9694023728370667, 2.4121463298797607, 3.850133180618286, 
92, 1215012453, 0.5941315, 0.5523152, -0.35744122, 0.46280825, 9.213705062866211, 3.396728754043579, 1.0467954874038696, -0.8939600586891174, 2.0609705448150635, 3.6306960582733154, 
93, 1215029120, 0.59390646, 0.55206597, -0.35745665, 0.4633823, 9.323107719421387, 3.3585734367370605, 1.027866005897522, -0.5422208309173584, 1.930166482925415, 3.563629150390625, 
94, 1215045787, 0.5936486, 0.551879, -0.35743925, 0.46394858, 9.371508598327637, 3.3306453227996826, 0.9565754532814026, 0.18507099151611328, 1.8712577819824219, 3.406560182571411, 
95, 1215062454, 0.59338707, 0.5517431, -0.35747817, 0.46441445, 9.258077621459961, 3.4242305755615234, 0.953533947467804, -0.1366693526506424, 1.081054449081421, 3.0844027996063232, 
96, 1215079121, 0.5933378, 0.5514539, -0.3578801, 0.4645115, 9.157604217529297, 3.5669474601745605, 0.9458855390548706, -4.248084545135498, -0.9683907628059387, 2.5836880207061768, 
97, 1215095788, 0.5937132, 0.55080366, -0.3588556, 0.46405032, 9.106689453125, 3.565312147140503, 0.9859825968742371, -10.288959503173828, -3.1120083332061768, 2.0837156772613525, 
98, 1215112455, 0.5943838, 0.54990774, -0.36025563, 0.46316904, 9.06816291809082, 3.428821086883545, 0.9299325346946716, -15.035345077514648, -4.976987361907959, 1.639284610748291, 
99, 1215129122, 0.5952509, 0.54884475, -0.36206615, 0.46190262, 9.133074760437012, 3.2937896251678467, 0.902123212814331, -17.058982849121094, -6.497295379638672, 1.6740670204162598, 
100, 1215145789, 0.5959037, 0.5479419, -0.36381152, 0.46075976, 9.189656257629395, 3.2483372688293457, 0.8738011121749878, -17.092424392700195, -7.457619667053223, 1.9350993633270264, 
101, 1215162456, 0.59653354, 0.5469949, -0.3657011, 0.4595728, 9.223917007446289, 3.2721335887908936, 0.9426575303077698, -16.324825286865234, -7.618006229400635, 2.700061798095703, 
102, 1215179123, 0.59692365, 0.5461613, -0.36744156, 0.45866868, 9.223454475402832, 3.259445905685425, 0.9377418160438538, -15.337077140808105, -7.4003214836120605, 3.557203531265259, 
103, 1215195790, 0.59714305, 0.54540473, -0.36913276, 0.45792478, 9.237066268920898, 3.170549154281616, 0.9127203226089478, -13.203459739685059, -7.039054870605469, 4.475125312805176, 
104, 1215212457, 0.59707713, 0.54485434, -0.37063503, 0.457452, 9.243605613708496, 3.134221315383911, 0.9384180307388306, -9.580961227416992, -6.454250335693359, 5.322494983673096, 
105, 1215229124, 0.5966612, 0.54459804, -0.37184516, 0.45731783, 9.227445602416992, 3.1618268489837646, 1.0031983852386475, -5.367616653442383, -5.808885097503662, 5.961581707000732, 
106, 1215245791, 0.5959138, 0.5446409, -0.3727206, 0.45752868, 9.2434663772583, 3.2028310298919678, 1.0085599422454834, -1.533970594406128, -5.099809646606445, 6.3299689292907715, 
107, 1215262458, 0.5949915, 0.5448421, -0.3734489, 0.45789525, 9.261070251464844, 3.280517101287842, 1.0692218542099, 1.180867314338684, -4.664637088775635, 6.648207187652588, 
108, 1215279125, 0.59402734, 0.54507834, -0.37411952, 0.45831856, 9.234660148620605, 3.4008681774139404, 1.1008243560791016, 2.1450324058532715, -4.316227912902832, 6.769495964050293, 
109, 1215295792, 0.5930703, 0.5453005, -0.37471092, 0.45881003, 9.227431297302246, 3.4375414848327637, 1.1134324073791504, 1.6994990110397339, -3.915849447250366, 6.684345722198486, 
110, 1215312459, 0.59224665, 0.54546076, -0.37535045, 0.45916072, 9.221400260925293, 3.453948736190796, 1.1474649906158447, 1.1191151142120361, -3.8788132667541504, 6.15322732925415, 
111, 1215329126, 0.5914956, 0.54564506, -0.37594995, 0.4594194, 9.219127655029297, 3.4474802017211914, 1.182874321937561, 0.5738076567649841, -4.0295562744140625, 5.335310935974121, 
112, 1215345793, 0.5908603, 0.5458686, -0.3764976, 0.4595233, 9.230060577392578, 3.433988094329834, 1.2127684354782104, 0.3573932349681854, -4.132571220397949, 4.115121841430664, 
113, 1215362460, 0.5903225, 0.54615927, -0.37694854, 0.4594991, 9.273895263671875, 3.4533731937408447, 1.2133936882019043, 0.17797625064849854, -4.210792064666748, 2.7765769958496094, 
114, 1215379127, 0.58987606, 0.5465276, -0.37726933, 0.45937112, 9.315335273742676, 3.4625017642974854, 1.2355185747146606, -0.34929320216178894, -4.283186435699463, 1.3266161680221558, 
115, 1215395794, 0.5896206, 0.54687005, -0.3775838, 0.4590331, 9.316176414489746, 3.4919652938842773, 1.2509585618972778, -1.3090652227401733, -4.360626697540283, -0.001984984613955021, 
116, 1215412461, 0.5895338, 0.5471817, -0.37781155, 0.4585854, 9.345480918884277, 3.450333595275879, 1.2769372463226318, -2.347442626953125, -3.976102828979492, -1.2254270315170288, 
117, 1215429128, 0.58960176, 0.54747856, -0.3779566, 0.4580239, 9.33977222442627, 3.3768374919891357, 1.2894810438156128, -2.3780112266540527, -3.442129373550415, -2.338298797607422, 
118, 1215445795, 0.5897074, 0.547864, -0.37786204, 0.45750478, 9.30087661743164, 3.3434271812438965, 1.2915865182876587, -1.751371145248413, -2.6450109481811523, -3.4482638835906982, 
119, 1215462462, 0.5898791, 0.54826385, -0.37761062, 0.45701152, 9.268439292907715, 3.3404979705810547, 1.2556686401367188, -1.2176533937454224, -1.7546237707138062, -4.138411045074463, 
120, 1215479129, 0.59013724, 0.5486098, -0.37727427, 0.45654097, 9.266419410705566, 3.3572421073913574, 1.2807642221450806, -1.302559494972229, -0.9022330045700073, -4.462475776672363, 
121, 1215495796, 0.5904145, 0.54891896, -0.37682304, 0.4561833, 9.243014335632324, 3.3762547969818115, 1.2626211643218994, -1.6924362182617188, -0.12052058428525925, -4.479969024658203, 
122, 1215512463, 0.59077156, 0.5491088, -0.37637824, 0.4558596, 9.257063865661621, 3.3314449787139893, 1.2378698587417603, -1.7878817319869995, 0.7415709495544434, -4.164100170135498, 
123, 1215529130, 0.5910771, 0.5492798, -0.37586287, 0.4556826, 9.267024040222168, 3.3179290294647217, 1.20955228805542, -1.098298192024231, 1.4900766611099243, -3.612978935241699, 
124, 1215545797, 0.59132755, 0.5494187, -0.37529975, 0.45565447, 9.287403106689453, 3.337543487548828, 1.1710741519927979, -0.18575610220432281, 2.2833917140960693, -2.8824918270111084, 
125, 1215562464, 0.5914973, 0.5495472, -0.37467122, 0.45579645, 9.320311546325684, 3.3513174057006836, 1.1686362028121948, 0.46106061339378357, 2.9293694496154785, -2.1765286922454834, 
126, 1215579131, 0.591619, 0.549642, -0.3740029, 0.45607296, 9.326701164245605, 3.366071939468384, 1.1589120626449585, 0.8335334658622742, 3.530884027481079, -1.547135353088379, 
127, 1215595798, 0.59174705, 0.54967827, -0.37334016, 0.45640644, 9.329182624816895, 3.3790526390075684, 1.1425988674163818, 0.8198304176330566, 3.9580647945404053, -1.1368067264556885, 
128, 1215612465, 0.591907, 0.54966027, -0.37270415, 0.45673993, 9.348711967468262, 3.3881492614746094, 1.1321508884429932, 0.7929883599281311, 4.226242542266846, -0.9343769550323486, 
129, 1215629132, 0.5920907, 0.5496027, -0.3720844, 0.45707625, 9.332723617553711, 3.3911004066467285, 1.108587384223938, 0.5374376773834229, 4.36665153503418, -0.8169169425964355, 
130, 1215645799, 0.59223205, 0.54958516, -0.37137884, 0.457488, 9.294415473937988, 3.391099214553833, 1.063551425933838, 0.2357713282108307, 4.424421787261963, -0.9268340468406677, 
131, 1215662466, 0.5924908, 0.5494822, -0.3707714, 0.45776966, 9.287578582763672, 3.4041295051574707, 1.075274109840393, -0.34318456053733826, 4.37981653213501, -1.1167263984680176, 
132, 1215679133, 0.5928067, 0.5493399, -0.37018326, 0.458007, 9.270146369934082, 3.385784864425659, 1.0706740617752075, -0.7665753960609436, 4.449932098388672, -1.2741423845291138, 
133, 1215695800, 0.593088, 0.54922956, -0.36955374, 0.45828345, 9.25113582611084, 3.3692851066589355, 1.03425931930542, -0.7178600430488586, 4.443785190582275, -1.2872048616409302, 
134, 1215712467, 0.5933766, 0.5491199, -0.3689623, 0.45851758, 9.239679336547852, 3.3842933177948, 1.0085718631744385, -0.6464133262634277, 4.257528781890869, -1.2884724140167236, 
135, 1215729134, 0.59367305, 0.5489648, -0.36842993, 0.45874757, 9.263001441955566, 3.411377191543579, 1.0361385345458984, -1.0569336414337158, 4.178603649139404, -0.9805821776390076, 
136, 1215745801, 0.5940159, 0.54874676, -0.36797932, 0.45892632, 9.283899307250977, 3.4013619422912598, 0.9922099113464355, -1.3836363554000854, 4.132423400878906, -0.7892040610313416, 
137, 1215762468, 0.59430623, 0.5485251, -0.3675793, 0.45913613, 9.276314735412598, 3.392361640930176, 0.9975565075874329, -1.481464147567749, 3.875643253326416, -0.3101569712162018, 
138, 1215779135, 0.59453267, 0.54831785, -0.36721095, 0.45938516, 9.28920841217041, 3.4079883098602295, 1.0137604475021362, -1.5690854787826538, 3.5770254135131836, 0.09333909302949905, 
139, 1215795802, 0.59473276, 0.5481177, -0.36685315, 0.45965096, 9.322978973388672, 3.420053482055664, 0.9935601949691772, -1.6186460256576538, 3.4586305618286133, 0.2521250545978546, 
140, 1215812469, 0.5949028, 0.54793936, -0.3665081, 0.45991862, 9.327316284179688, 3.3616271018981934, 0.9627652764320374, -1.1289438009262085, 3.396916389465332, 0.40251001715660095, 
141, 1215829136, 0.5950154, 0.5478379, -0.36613572, 0.4601901, 9.309179306030273, 3.3555877208709717, 0.9694678783416748, -0.332119882106781, 3.2093546390533447, 0.3346107006072998, 
142, 1215845803, 0.5950927, 0.54779506, -0.36574945, 0.46044832, 9.274110794067383, 3.4028828144073486, 0.9494927525520325, 0.2751252353191376, 3.0314230918884277, 0.23103293776512146, 
143, 1215862470, 0.59515685, 0.54775834, -0.36538446, 0.46069884, 9.261246681213379, 3.399604082107544, 0.9971632957458496, -0.058870796114206314, 2.775385618209839, 0.27182120084762573, 
144, 1215879137, 0.5952155, 0.547717, -0.36508664, 0.4609082, 9.271531105041504, 3.373353958129883, 0.9525375962257385, -0.1406649500131607, 2.447761058807373, 0.42868614196777344, 
145, 1215895804, 0.59521884, 0.54771954, -0.36480263, 0.4611257, 9.247429847717285, 3.3573861122131348, 0.93431556224823, 0.07210616022348404, 2.1152825355529785, 0.5660086870193481, 
146, 1215912471, 0.5951589, 0.5477561, -0.36456907, 0.46134442, 9.230063438415527, 3.362179756164551, 0.9587939381599426, 0.4630071520805359, 1.7242916822433472, 0.90989750623703, 
147, 1215929138, 0.59500444, 0.5478562, -0.3643395, 0.4616059, 9.249402046203613, 3.371145009994507, 0.9688873887062073, 0.8017735481262207, 1.3304452896118164, 1.1937758922576904, 
148, 1215945805, 0.59480137, 0.54797626, -0.3641562, 0.46186966, 9.270051956176758, 3.3664896488189697, 0.9598898887634277, 1.1065647602081299, 1.0425201654434204, 1.5177637338638306, 
149, 1215962472, 0.5945393, 0.5481215, -0.36400384, 0.46215484, 9.254983901977539, 3.362539052963257, 0.9608629941940308, 1.3284090757369995, 0.7714225053787231, 1.845247745513916, 
150, 1215979139, 0.5942414, 0.5482978, -0.3638906, 0.4624181, 9.244457244873047, 3.377119779586792, 0.9687796831130981, 1.6145155429840088, 0.42553579807281494, 1.976730465888977, 
151, 1215995806, 0.5938875, 0.5485035, -0.36378974, 0.46270782, 9.247672080993652, 3.390000104904175, 0.999101996421814, 1.552046537399292, 0.12321630865335464, 2.18442440032959, 
152, 1216012473, 0.59363335, 0.5486477, -0.36382973, 0.46283156, 9.243035316467285, 3.3871467113494873, 1.0148042440414429, 1.2791303396224976, -0.215018630027771, 2.0595364570617676, 
153, 1216029140, 0.59331805, 0.54884195, -0.3638139, 0.46301812, 9.222345352172852, 3.3810384273529053, 1.016214370727539, 1.2297489643096924, -0.3211064338684082, 2.067002773284912, 
154, 1216045807, 0.5929815, 0.5490669, -0.36381555, 0.46318123, 9.208850860595703, 3.3580198287963867, 1.0162419080734253, 1.4250839948654175, -0.5842768549919128, 2.0555920600891113, 
155, 1216062474, 0.59258527, 0.5493552, -0.36377254, 0.46338004, 9.224699974060059, 3.3686890602111816, 1.0064632892608643, 1.6442265510559082, -0.7615551948547363, 1.9979379177093506, 
156, 1216079141, 0.59217495, 0.5496278, -0.3637547, 0.4635956, 9.208813667297363, 3.386540174484253, 1.0721138715744019, 1.5651729106903076, -0.7797402143478394, 2.251093864440918, 
157, 1216095808, 0.59172904, 0.5499093, -0.3637268, 0.46385276, 9.2244873046875, 3.3909718990325928, 1.074173927307129, 1.4623761177062988, -0.8243191242218018, 2.4264254570007324, 
158, 1216112475, 0.5913176, 0.55014724, -0.36375517, 0.46407312, 9.223161697387695, 3.3984827995300293, 1.079071283340454, 1.7249447107315063, -0.6873936057090759, 2.6195068359375, 
159, 1216129142, 0.5908851, 0.5503999, -0.36378118, 0.46430406, 9.223251342773438, 3.4102890491485596, 1.0899630784988403, 1.9370564222335815, -0.7157084345817566, 2.699495315551758, 
160, 1216145809, 0.5904653, 0.5506432, -0.36380276, 0.4645326, 9.240558624267578, 3.4449470043182373, 1.1051808595657349, 1.8592321872711182, -0.6396771669387817, 2.6689648628234863, 
161, 1216162476, 0.5901114, 0.55082136, -0.36388573, 0.464706, 9.2794828414917, 3.476452112197876, 1.1132819652557373, 1.4265187978744507, -0.585045337677002, 2.70217227935791, 
162, 1216179143, 0.58974546, 0.55099255, -0.36396345, 0.46490687, 9.26538372039795, 3.4939143657684326, 1.1328104734420776, 0.8198433518409729, -0.6876882314682007, 2.7623236179351807, 
163, 1216195810, 0.5894323, 0.55112463, -0.36405715, 0.46507373, 9.274212837219238, 3.4921317100524902, 1.1383808851242065, 0.3485568165779114, -0.6140516400337219, 2.63399076461792, 
164, 1216212477, 0.58919567, 0.55122685, -0.36417717, 0.4651583, 9.25358772277832, 3.478315830230713, 1.1529191732406616, 0.07181160897016525, -0.6100049614906311, 2.30707049369812, 
165, 1216229144, 0.58895725, 0.5513602, -0.36422837, 0.4652625, 9.242880821228027, 3.4712252616882324, 1.1710329055786133, 0.0906241312623024, -0.483170747756958, 2.0153160095214844, 
166, 1216245811, 0.5887778, 0.55150855, -0.36422545, 0.46531594, 9.252655982971191, 3.5016732215881348, 1.1937808990478516, 0.008701915852725506, -0.34573301672935486, 1.3998173475265503, 
167, 1216262478, 0.58869165, 0.5516459, -0.36418205, 0.46529606, 9.261661529541016, 3.496354103088379, 1.1909116506576538, -0.44998955726623535, -0.1894059181213379, 0.6910498738288879, 
168, 1216279145, 0.5886984, 0.5517709, -0.36408412, 0.46521604, 9.255396842956543, 3.4823713302612305, 1.2058966159820557, -0.8886069655418396, 0.04785092547535896, -0.014317499473690987, 
169, 1216295812, 0.58879817, 0.5518974, -0.36389855, 0.46508464, 9.293882369995117, 3.4455816745758057, 1.1970688104629517, -0.6605002880096436, 0.5685698986053467, -0.7836974263191223, 
170, 1216312479, 0.5889457, 0.55207443, -0.3636215, 0.4649046, 9.27968692779541, 3.424260377883911, 1.1889773607254028, -0.24125882983207703, 0.7842544913291931, -1.5636169910430908, 
171, 1216329146, 0.589077, 0.5523185, -0.36322448, 0.4647585, 9.303102493286133, 3.4528985023498535, 1.1773561239242554, 0.0709407776594162, 0.9813697934150696, -2.055291175842285, 
172, 1216345813, 0.5893153, 0.55251217, -0.36286965, 0.46450323, 9.288043975830078, 3.4683990478515625, 1.2067357301712036, -0.1594134271144867, 1.0797607898712158, -2.4358699321746826, 
173, 1216362480, 0.5895697, 0.5527227, -0.36243066, 0.4642729, 9.262950897216797, 3.4407262802124023, 1.2321524620056152, -0.5831500291824341, 1.2468583583831787, -2.8373494148254395, 
174, 1216379147, 0.5898551, 0.5529236, -0.3619653, 0.46403432, 9.277112007141113, 3.3931236267089844, 1.196881890296936, -0.49196872115135193, 1.4892053604125977, -3.0132315158843994, 
175, 1216395814, 0.59014505, 0.5531513, -0.3614384, 0.46380487, 9.277680397033691, 3.3824048042297363, 1.1794686317443848, -0.25462865829467773, 1.6737580299377441, -3.2963931560516357, 
176, 1216412481, 0.59051514, 0.55329406, -0.36095455, 0.4635402, 9.249731063842773, 3.4050052165985107, 1.1958457231521606, -0.7372615933418274, 1.964577317237854, -3.2623791694641113, 
177, 1216429148, 0.59095925, 0.5533284, -0.36051914, 0.463272, 9.251335144042969, 3.4080374240875244, 1.20466148853302, -1.888142466545105, 2.1915698051452637, -3.0897367000579834, 
178, 1216445815, 0.59150195, 0.55322796, -0.36022398, 0.4629289, 9.253868103027344, 3.3801934719085693, 1.1948351860046387, -2.4813711643218994, 2.331056833267212, -2.702831506729126, 
179, 1216462482, 0.59193295, 0.5531705, -0.35985476, 0.46273372, 9.26960563659668, 3.351536750793457, 1.1911946535110474, -2.257439374923706, 2.4544715881347656, -2.267364501953125, 
180, 1216479149, 0.5922371, 0.5531748, -0.3594202, 0.46267733, 9.279632568359375, 3.3331708908081055, 1.2097560167312622, -1.4295471906661987, 2.582995653152466, -1.7657907009124756, 
181, 1216495816, 0.5924783, 0.5531758, -0.3590112, 0.46268463, 9.273606300354004, 3.3629283905029297, 1.1777406930923462, -0.89762282371521, 2.65216326713562, -1.169924259185791, 
182, 1216512483, 0.5927402, 0.5531042, -0.35870254, 0.46267453, 9.251188278198242, 3.3921806812286377, 1.1519089937210083, -1.1150487661361694, 2.631608724594116, -0.6735371351242065, 
183, 1216529150, 0.592995, 0.55296916, -0.35847956, 0.46268174, 9.23991870880127, 3.398512840270996, 1.1605966091156006, -1.8743759393692017, 2.4349417686462402, -0.1382061243057251, 
184, 1216545817, 0.59327936, 0.55275106, -0.3583482, 0.46267956, 9.250250816345215, 3.3859221935272217, 1.1447604894638062, -2.408003807067871, 2.44449520111084, 0.3175782561302185, 
185, 1216562484, 0.5935294, 0.55253583, -0.3582531, 0.46268964, 9.235421180725098, 3.3751978874206543, 1.1315724849700928, -2.419503688812256, 2.2313077449798584, 0.5962828397750854, 
186, 1216579151, 0.5937384, 0.5523344, -0.35817116, 0.46272537, 9.228808403015137, 3.365600824356079, 1.1370329856872559, -2.084733247756958, 2.169299840927124, 0.8637052178382874, 
187, 1216595818, 0.5938886, 0.55216485, -0.3580816, 0.46280435, 9.252756118774414, 3.3730227947235107, 1.098278522491455, -1.7805179357528687, 2.0633912086486816, 1.0915684700012207, 
188, 1216612485, 0.5939878, 0.55202097, -0.3580145, 0.4629007, 9.257681846618652, 3.384298801422119, 1.122728705406189, -1.5893449783325195, 1.8085448741912842, 1.335888147354126, 
189, 1216629152, 0.59405965, 0.551887, -0.35794923, 0.46301898, 9.237991333007812, 3.3959338665008545, 1.1049079895019531, -1.631580114364624, 1.7113701105117798, 1.4610189199447632, 
190, 1216645819, 0.5941519, 0.55173284, -0.3579596, 0.46307603, 9.220096588134766, 3.3809444904327393, 1.0951422452926636, -1.62361478805542, 1.4853894710540771, 1.5640971660614014, 
191, 1216662486, 0.59422874, 0.5516015, -0.3579869, 0.4631128, 9.190004348754883, 3.3687613010406494, 1.0674924850463867, -1.3772716522216797, 1.3025403022766113, 1.569616675376892, 
192, 1216679153, 0.5942046, 0.55156195, -0.35793513, 0.4632309, 9.166655540466309, 3.3683934211730957, 1.0793945789337158, -1.1126797199249268, 1.0780192613601685, 1.557181715965271, 
193, 1216695820, 0.59413826, 0.55155706, -0.3578988, 0.46334967, 9.186994552612305, 3.3815231323242188, 1.057585597038269, -0.8727269768714905, 0.8071776628494263, 1.6666500568389893, 
194, 1216712487, 0.5940643, 0.5515499, -0.35792965, 0.46342933, 9.217123985290527, 3.396392583847046, 1.0531467199325562, -0.7735675573348999, 0.5167810320854187, 1.8510489463806152, 
195, 1216729154, 0.59394825, 0.55155176, -0.35799772, 0.4635235, 9.210187911987305, 3.403360366821289, 1.058826208114624, -1.0698039531707764, 0.15664087235927582, 2.1054599285125732, 
196, 1216745821, 0.59386486, 0.5515151, -0.35818523, 0.46352914, 9.21456241607666, 3.406464099884033, 1.0640209913253784, -1.136268973350525, -0.17622816562652588, 2.3107330799102783, 
197, 1216762488, 0.5937679, 0.5514784, -0.35841778, 0.46351716, 9.232320785522461, 3.4195969104766846, 1.0807337760925293, -1.1611517667770386, -0.41264617443084717, 2.4706971645355225, 
198, 1216779155, 0.59356856, 0.5515153, -0.35858026, 0.46360296, 9.228928565979004, 3.3906290531158447, 1.06916344165802, -0.9171265363693237, -0.5469335317611694, 2.616945505142212, 
199, 1216795822, 0.5932845, 0.5516248, -0.35870552, 0.46373925, 9.21022891998291, 3.395719528198242, 1.0758492946624756, -0.38264089822769165, -0.7472120523452759, 2.7264394760131836, 
200, 1216812489, 0.5929999, 0.5517304, -0.3589008, 0.4638267, 9.23848819732666, 3.4414632320404053, 1.0773152112960815, -0.26970174908638, -1.0389409065246582, 2.876671552658081, 
201, 1216829156, 0.59273165, 0.5518237, -0.35917997, 0.46384257, 9.223406791687012, 3.408520460128784, 1.0969674587249756, -0.19712814688682556, -1.3489696979522705, 2.979173183441162, 
202, 1216845823, 0.5924077, 0.55198026, -0.35944363, 0.4638659, 9.230836868286133, 3.432356595993042, 1.079075813293457, 0.19626370072364807, -1.641735553741455, 2.9526638984680176, 
203, 1216862490, 0.59217113, 0.55207676, -0.35984877, 0.46373883, 9.225090026855469, 3.468996286392212, 1.0937315225601196, -0.09367844462394714, -1.9972525835037231, 2.913066864013672, 
204, 1216879157, 0.59186393, 0.5521745, -0.36024204, 0.46370912, 9.203460693359375, 3.440901041030884, 1.1224777698516846, -1.2528834342956543, -2.3373377323150635, 3.2441492080688477, 
205, 1216895824, 0.5916209, 0.55222124, -0.36074486, 0.46357286, 9.181177139282227, 3.4355714321136475, 1.1525969505310059, -1.510521650314331, -2.589366912841797, 3.2701332569122314, 
206, 1216912491, 0.5914375, 0.5522244, -0.36129886, 0.4633717, 9.205689430236816, 3.453059196472168, 1.1637604236602783, -1.8055543899536133, -2.6107537746429443, 3.1860342025756836, 
207, 1216929158, 0.59118783, 0.5522801, -0.36179462, 0.46323675, 9.239468574523926, 3.3841464519500732, 1.1654325723648071, -1.68575119972229, -2.6919078826904297, 3.2238001823425293, 
208, 1216945825, 0.59091777, 0.55239093, -0.36222735, 0.46311116, 9.278353691101074, 3.384765863418579, 1.1584852933883667, -0.8104755878448486, -2.5109667778015137, 3.0027501583099365, 
209, 1216962492, 0.5906027, 0.55254, -0.36258936, 0.4630518, 9.249049186706543, 3.44810152053833, 1.1964545249938965, -0.49969103932380676, -2.3446125984191895, 2.993529796600342, 
210, 1216979159, 0.5902974, 0.5526646, -0.36293045, 0.46302533, 9.264191627502441, 3.4578969478607178, 1.2072131633758545, -0.995309591293335, -2.2059197425842285, 3.013110399246216, 
211, 1216995826, 0.5900533, 0.55273205, -0.36332092, 0.4629495, 9.272469520568848, 3.447887420654297, 1.2299724817276, -1.1645455360412598, -2.0705180168151855, 3.0345993041992188, 
212, 1217012493, 0.5898948, 0.55274314, -0.36373457, 0.4628136, 9.286664009094238, 3.4071590900421143, 1.2477415800094604, -0.9747810363769531, -1.6823318004608154, 2.8846240043640137, 
213, 1217029160, 0.58963317, 0.55285394, -0.3639562, 0.46284047, 9.295475006103516, 3.4284892082214355, 1.2393431663513184, -0.32291215658187866, -1.2571995258331299, 2.7396435737609863, 
214, 1217045827, 0.58937335, 0.55297965, -0.36407438, 0.46292818, 9.312149047851562, 3.455005407333374, 1.2572894096374512, 0.14227214455604553, -0.6787493824958801, 2.545422077178955, 
215, 1217062494, 0.5892157, 0.5530474, -0.36420855, 0.4629422, 9.311604499816895, 3.4826266765594482, 1.2887568473815918, 0.39882177114486694, -0.21952645480632782, 2.282123565673828, 
216, 1217079161, 0.58901316, 0.5531594, -0.36415508, 0.4631085, 9.295317649841309, 3.4905614852905273, 1.3281822204589844, 0.2777504622936249, 0.3736187815666199, 2.031054973602295, 
217, 1217095828, 0.58895606, 0.55318624, -0.36414555, 0.46315634, 9.277365684509277, 3.4918150901794434, 1.31410813331604, 0.1599065065383911, 0.7742271423339844, 1.6374008655548096, 
218, 1217112495, 0.58890766, 0.55324495, -0.36404765, 0.4632249, 9.235719680786133, 3.476383686065674, 1.3354969024658203, 0.19947810471057892, 0.9905776381492615, 1.2352044582366943, 
219, 1217129162, 0.5889437, 0.5532562, -0.36394763, 0.463244, 9.215557098388672, 3.48771071434021, 1.3301194906234741, -0.07936093956232071, 1.2785283327102661, 0.9317195415496826, 
220, 1217145829, 0.58906883, 0.5531883, -0.36389315, 0.4632088, 9.199913024902344, 3.4882452487945557, 1.2889753580093384, -0.9787124395370483, 1.3651632070541382, 0.8121082186698914, 
221, 1217162496, 0.58924246, 0.5530647, -0.3638688, 0.4631549, 9.218443870544434, 3.4802894592285156, 1.2671799659729004, -1.8853381872177124, 1.3447628021240234, 0.7979573011398315, 
222, 1217179163, 0.5894687, 0.5528645, -0.36387628, 0.46309996, 9.214055061340332, 3.4374542236328125, 1.2297298908233643, -2.519073009490967, 1.5724211931228638, 0.9437958598136902, 
223, 1217195830, 0.58970374, 0.55263853, -0.36389425, 0.46305627, 9.209672927856445, 3.4238405227661133, 1.2120826244354248, -2.709861993789673, 1.6518974304199219, 1.066659927368164, 
224, 1217212497, 0.5899237, 0.55240875, -0.3639172, 0.46303228, 9.208565711975098, 3.4141881465911865, 1.2023863792419434, -2.405954360961914, 1.753541350364685, 1.258499264717102, 
225, 1217229164, 0.59013397, 0.55216974, -0.36391565, 0.4630506, 9.2139310836792, 3.408867597579956, 1.1830087900161743, -2.166334867477417, 2.0334370136260986, 1.4039409160614014, 
226, 1217245831, 0.59032625, 0.5519894, -0.36381444, 0.4631003, 9.205524444580078, 3.4318795204162598, 1.1625781059265137, -1.9344505071640015, 2.164714813232422, 1.0055738687515259, 
227, 1217262498, 0.5905533, 0.5518029, -0.36372796, 0.4631009, 9.206010818481445, 3.4123969078063965, 1.1075950860977173, -2.056303024291992, 2.092628002166748, 0.7985847592353821, 
228, 1217279165, 0.5907365, 0.5516857, -0.36351225, 0.46317634, 9.227391242980957, 3.432617664337158, 1.1617274284362793, -1.5667800903320312, 2.386956214904785, 0.5091868042945862, 
229, 1217295832, 0.5908965, 0.55161613, -0.36328864, 0.46323037, 9.208303451538086, 3.4332003593444824, 1.0820457935333252, -1.6090539693832397, 2.0314393043518066, 0.31061163544654846, 
230, 1217312499, 0.5912118, 0.551467, -0.36313763, 0.4631242, 9.226166725158691, 3.4325571060180664, 1.095774531364441, -1.5773835182189941, 2.29742693901062, -0.1420736312866211, 
231, 1217329166, 0.59150904, 0.5513406, -0.362972, 0.46302494, 9.228571891784668, 3.408569097518921, 1.0888622999191284, -1.635921597480774, 2.173321008682251, -0.20111091434955597, 
232, 1217345833, 0.59174466, 0.55129784, -0.36271766, 0.46297404, 9.232769012451172, 3.4336752891540527, 1.0784119367599487, -1.205448865890503, 2.1196751594543457, -0.4254269301891327, 
233, 1217362500, 0.5920091, 0.55122447, -0.36254802, 0.46285632, 9.247206687927246, 3.429548501968384, 1.0519375801086426, -1.3967247009277344, 1.8566069602966309, -0.3204149007797241, 
234, 1217379167, 0.5922296, 0.55118924, -0.362419, 0.46271718, 9.2515230178833, 3.426959753036499, 1.0450029373168945, -1.5720690488815308, 1.2800906896591187, -0.24992871284484863, 
235, 1217395834, 0.5924494, 0.5511399, -0.36234885, 0.4625494, 9.238224983215332, 3.4604904651641846, 1.0697664022445679, -2.004821300506592, 0.9419903755187988, -0.11889414489269257, 
236, 1217412501, 0.5927648, 0.55101556, -0.36242938, 0.4622302, 9.23519515991211, 3.4124631881713867, 1.0067217350006104, -2.814771890640259, 0.47626179456710815, -0.1775728464126587, 
237, 1217429168, 0.5929901, 0.55096394, -0.36252236, 0.4619298, 9.215601921081543, 3.3838043212890625, 1.011309266090393, -2.8630261421203613, -0.18535912036895752, -0.04409226402640343, 
238, 1217445835, 0.59318215, 0.55091405, -0.36267182, 0.46162516, 9.241275787353516, 3.411916971206665, 1.0322710275650024, -3.094808340072632, -0.573993444442749, 0.23181414604187012, 
239, 1217462502, 0.5934276, 0.5508324, -0.36291173, 0.4612184, 9.254941940307617, 3.374056816101074, 1.036698341369629, -3.264338970184326, -0.8496501445770264, 0.16557972133159637, 
240, 1217479169, 0.59362227, 0.5507981, -0.3631315, 0.4608357, 9.24748420715332, 3.359886884689331, 1.0724289417266846, -2.9882845878601074, -1.0268386602401733, 0.19872251152992249, 
241, 1217495836, 0.5937241, 0.5508635, -0.36325005, 0.460533, 9.262529373168945, 3.331364631652832, 1.0758414268493652, -2.0841310024261475, -0.9802493453025818, 0.13462674617767334, 
242, 1217512503, 0.5937718, 0.55100924, -0.36328518, 0.46026936, 9.26806926727295, 3.340075969696045, 1.0846312046051025, -1.267866849899292, -0.9026939272880554, -0.06520993262529373, 
243, 1217529170, 0.5937976, 0.55117106, -0.36329702, 0.46003303, 9.234429359436035, 3.3458778858184814, 1.1129865646362305, -0.9351580142974854, -0.7950565218925476, -0.00989930797368288, 
244, 1217545837, 0.5938426, 0.55130565, -0.36333337, 0.4597848, 9.236461639404297, 3.361999988555908, 1.118249535560608, -0.9712207913398743, -0.7173349261283875, 0.07576876878738403, 
245, 1217562504, 0.59389585, 0.5513989, -0.3634196, 0.459536, 9.224915504455566, 3.3534083366394043, 1.128427267074585, -1.044255256652832, -0.6711167097091675, 0.37644901871681213, 
246, 1217579171, 0.5938605, 0.5515356, -0.36344302, 0.45939922, 9.246003150939941, 3.353846788406372, 1.1312633752822876, -0.8293392658233643, -0.6140388250350952, 0.6592132449150085, 
247, 1217595838, 0.5938421, 0.55161995, -0.36355385, 0.4592338, 9.283698081970215, 3.3685951232910156, 1.1399391889572144, -0.3770830035209656, -0.5038530230522156, 1.0941553115844727, 
248, 1217612505, 0.5937104, 0.5517583, -0.3636106, 0.45919296, 9.351377487182617, 3.3935155868530273, 1.1309741735458374, 0.15098045766353607, -0.46932706236839294, 1.5376904010772705, 
249, 1217629172, 0.59358287, 0.5518644, -0.36373028, 0.4591356, 9.359922409057617, 3.417452335357666, 1.162745714187622, 0.3500936031341553, -0.47629374265670776, 1.8515868186950684, 
250, 1217645839, 0.5934268, 0.551986, -0.3638124, 0.45912588, 9.34749984741211, 3.425985336303711, 1.1860039234161377, 0.4875825047492981, -0.35551702976226807, 1.9166300296783447, 
251, 1217662506, 0.59321713, 0.5521907, -0.36377987, 0.4591765, 9.283793449401855, 3.407320976257324, 1.1955269575119019, 0.7458866834640503, -0.33000683784484863, 1.5818212032318115, 
252, 1217679173, 0.5930298, 0.5524241, -0.36373067, 0.45917684, 9.2285737991333, 3.372476816177368, 1.206156849861145, 0.8939024209976196, -0.4253116548061371, 1.1948258876800537, 
253, 1217695840, 0.59289926, 0.55265146, -0.36369345, 0.45910135, 9.189676284790039, 3.416425943374634, 1.212630271911621, 0.7322095036506653, -0.5010740756988525, 0.8063839077949524, 
254, 1217712507, 0.5928265, 0.5528144, -0.363695, 0.45899782, 9.18996524810791, 3.44218373298645, 1.2301831245422363, -0.15286940336227417, -0.49335187673568726, 0.7917078137397766, 
255, 1217729174, 0.5928329, 0.55283713, -0.36384302, 0.4588449, 9.192339897155762, 3.4538731575012207, 1.2302470207214355, -1.1802074909210205, -0.49791085720062256, 1.3050118684768677, 
256, 1217745841, 0.59284675, 0.55276704, -0.36404276, 0.45875305, 9.174903869628906, 3.445075273513794, 1.2369693517684937, -1.9215160608291626, -0.2803950309753418, 1.91947340965271, 
257, 1217762508, 0.5928374, 0.5526123, -0.36431763, 0.45873335, 9.184163093566895, 3.437983512878418, 1.219809889793396, -1.9324651956558228, -0.004520641639828682, 2.8264575004577637, 
258, 1217779175, 0.5927782, 0.5524284, -0.3645918, 0.45881352, 9.20540714263916, 3.410916328430176, 1.2131071090698242, -1.5543838739395142, 0.35813605785369873, 3.4696056842803955, 
259, 1217795842, 0.59262824, 0.552283, -0.36478397, 0.45902953, 9.210493087768555, 3.4426684379577637, 1.2031711339950562, -1.000637173652649, 0.6668202877044678, 3.831666946411133, 
260, 1217812509, 0.59251076, 0.55210775, -0.36498523, 0.45923197, 9.233306884765625, 3.4855964183807373, 1.2056301832199097, -0.5972113609313965, 0.9926522970199585, 3.8769631385803223, 
261, 1217829176, 0.592396, 0.55196226, -0.36511305, 0.45945314, 9.26523494720459, 3.5051300525665283, 1.1957517862319946, -0.39451244473457336, 1.2092972993850708, 3.570096731185913, 
262, 1217845843, 0.5923062, 0.55184305, -0.36515924, 0.45967528, 9.281299591064453, 3.4964728355407715, 1.176260232925415, -0.32439762353897095, 1.451196312904358, 3.098144054412842, 
263, 1217862510, 0.592244, 0.55175143, -0.36511657, 0.45989922, 9.286667823791504, 3.53977370262146, 1.156108021736145, -0.3575020432472229, 1.691264271736145, 2.5720596313476562, 
264, 1217879177, 0.592326, 0.5516071, -0.36511973, 0.45996442, 9.277314186096191, 3.5214767456054688, 1.1490753889083862, -0.5762345194816589, 1.7974929809570312, 1.9249801635742188, 
265, 1217895844, 0.59241676, 0.5515197, -0.3650465, 0.4600105, 9.253138542175293, 3.4831721782684326, 1.1299937963485718, -0.3626502454280853, 1.8155243396759033, 1.3673019409179688, 
266, 1217912511, 0.59256446, 0.5514537, -0.36493155, 0.45999044, 9.214377403259277, 3.481266975402832, 1.143192172050476, -0.1114920899271965, 1.952987551689148, 0.7657108902931213, 
267, 1217929178, 0.5926457, 0.551493, -0.36467052, 0.4600457, 9.19803524017334, 3.467611789703369, 1.1098111867904663, 0.10555631667375565, 1.9557278156280518, 0.3220348060131073, 
268, 1217945845, 0.5927363, 0.551545, -0.36440778, 0.4600749, 9.203902244567871, 3.4815897941589355, 1.1146090030670166, 0.16705241799354553, 1.8830903768539429, 0.16491375863552094, 
269, 1217962512, 0.5928236, 0.55159587, -0.36414367, 0.46011043, 9.251291275024414, 3.5193583965301514, 1.1135059595108032, -0.5066448450088501, 1.6693141460418701, 0.10974401980638504, 
270, 1217979179, 0.59293586, 0.55160666, -0.3639129, 0.46013543, 9.27595043182373, 3.4949405193328857, 1.1076666116714478, -0.7638346552848816, 1.7307844161987305, 0.23806363344192505, 
271, 1217995846, 0.5930224, 0.5516428, -0.36365965, 0.460181, 9.293806076049805, 3.4264841079711914, 1.0995497703552246, -0.2359057515859604, 1.8276132345199585, 0.28353896737098694, 
272, 1218012513, 0.5931304, 0.5516758, -0.36349687, 0.46013072, 9.300166130065918, 3.428537368774414, 1.1068819761276245, 0.3847859799861908, 1.5851505994796753, 0.34138527512550354, 
273, 1218029180, 0.59319496, 0.5517544, -0.36329347, 0.46011388, 9.28650188446045, 3.4681828022003174, 1.1073402166366577, 0.5737180113792419, 1.4996427297592163, 0.29742106795310974, 
274, 1218045847, 0.59326583, 0.5518732, -0.36306557, 0.46006, 9.240376472473145, 3.4154069423675537, 1.118996024131775, 0.8048086166381836, 1.38716459274292, -0.05104610696434975, 
275, 1218062514, 0.5932381, 0.55209416, -0.36274394, 0.46008453, 9.201387405395508, 3.372462034225464, 1.0994915962219238, 1.3190476894378662, 1.234128713607788, -0.1334293633699417, 
276, 1218079181, 0.59320825, 0.5523399, -0.36242032, 0.46008253, 9.209503173828125, 3.4002208709716797, 1.1001951694488525, 1.6183189153671265, 1.1468020677566528, -0.2720068097114563, 
277, 1218095848, 0.59323037, 0.55253136, -0.36216852, 0.46002275, 9.164451599121094, 3.453799247741699, 1.1190749406814575, 0.8983974456787109, 0.9629030227661133, -0.25556352734565735, 
278, 1218112515, 0.59332997, 0.5525952, -0.36206153, 0.45990187, 9.13217830657959, 3.4528582096099854, 1.139896273612976, -0.5666937828063965, 0.7228223085403442, 0.11359871923923492, 
279, 1218129182, 0.59348863, 0.55252856, -0.3621248, 0.45972732, 9.1593599319458, 3.3954291343688965, 1.123052716255188, -1.2969247102737427, 0.6268644332885742, 0.7747777700424194, 
280, 1218145849, 0.5935228, 0.55249923, -0.36215445, 0.4596951, 9.177384376525879, 3.369508743286133, 1.135421872138977, -1.075041651725769, 0.5779440999031067, 1.4134173393249512, 
281, 1218162516, 0.5934391, 0.5525217, -0.3621693, 0.45976442, 9.195210456848145, 3.37117075920105, 1.1025538444519043, -0.2549743950366974, 0.5186763405799866, 1.9936476945877075, 
282, 1218179183, 0.593312, 0.5525245, -0.36223736, 0.45987144, 9.227150917053223, 3.438389301300049, 1.1104477643966675, 0.16761592030525208, 0.5431877970695496, 2.5884900093078613, 
283, 1218195850, 0.5932068, 0.5524741, -0.36240214, 0.45993802, 9.253993034362793, 3.4678404331207275, 1.1222069263458252, -0.3330291509628296, 0.28959640860557556, 2.8827285766601562, 
284, 1218212517, 0.5931029, 0.5524133, -0.3625699, 0.4600126, 9.266019821166992, 3.475360631942749, 1.1204746961593628, -1.0219340324401855, 0.1186700388789177, 2.8624565601348877, 
285, 1218229184, 0.5930742, 0.552323, -0.36279038, 0.45998442, 9.271260261535645, 3.4507412910461426, 1.110591173171997, -1.0357264280319214, 0.07765130698680878, 2.5876576900482178, 
286, 1218245851, 0.59303975, 0.5522958, -0.36296993, 0.4599197, 9.251091957092285, 3.4320380687713623, 1.11885666847229, -0.47537165880203247, -0.02349965274333954, 2.178251266479492, 
287, 1218262518, 0.59298694, 0.5523396, -0.36305672, 0.45986658, 9.259257316589355, 3.4264259338378906, 1.1216986179351807, 0.05041220411658287, 0.07509003579616547, 1.7321549654006958, 
288, 1218279185, 0.5929549, 0.55240095, -0.36308733, 0.4598102, 9.261228561401367, 3.464998483657837, 1.118857979774475, 0.150288924574852, 0.26774877309799194, 1.387151837348938, 
289, 1218295852, 0.59289414, 0.5524955, -0.3630326, 0.45981812, 9.252029418945312, 3.456787586212158, 1.1608322858810425, -0.17706060409545898, 0.33832457661628723, 1.2025611400604248, 
290, 1218312519, 0.5929004, 0.55253273, -0.36302966, 0.45976758, 9.220403671264648, 3.434617757797241, 1.1433825492858887, -0.3776720464229584, 0.45810240507125854, 1.171825885772705, 
291, 1218329186, 0.59290826, 0.5525591, -0.36303267, 0.45972326, 9.227493286132812, 3.4099628925323486, 1.1487334966659546, -0.26055797934532166, 0.5554561614990234, 1.2639291286468506, 
292, 1218345853, 0.59295774, 0.55251586, -0.36311942, 0.459643, 9.222384452819824, 3.4233341217041016, 1.142649531364441, -0.11503945291042328, 0.7244616746902466, 1.6012996435165405, 
293, 1218362520, 0.5929579, 0.5524856, -0.36315706, 0.45964944, 9.213858604431152, 3.4239728450775146, 1.1266013383865356, -0.2296818494796753, 0.8386428952217102, 1.7950209379196167, 
294, 1218379187, 0.5929083, 0.5524479, -0.36317393, 0.4597455, 9.24808406829834, 3.4416632652282715, 1.1300206184387207, -0.31102779507637024, 0.9795641899108887, 2.1890599727630615, 
295, 1218395854, 0.5928732, 0.5523774, -0.36322248, 0.45983684, 9.245351791381836, 3.447746753692627, 1.1325474977493286, -0.3210935890674591, 1.0738444328308105, 2.364839792251587, 
296, 1218412521, 0.5927827, 0.55235606, -0.36318612, 0.4600083, 9.251203536987305, 3.448064088821411, 1.1220707893371582, -0.1457618623971939, 1.1872318983078003, 2.3289308547973633, 
297, 1218429188, 0.59275275, 0.5522978, -0.3632025, 0.46010378, 9.26014232635498, 3.447158098220825, 1.140328049659729, -0.049189187586307526, 1.2400068044662476, 2.2308082580566406, 
298, 1218445855, 0.59272003, 0.5522675, -0.36317974, 0.46020004, 9.251375198364258, 3.4543139934539795, 1.1272740364074707, -0.14854085445404053, 1.1877570152282715, 1.978472352027893, 
299, 1218462522, 0.5926572, 0.5522878, -0.36308852, 0.46032867, 9.272757530212402, 3.4473862648010254, 1.1235241889953613, -0.2313338965177536, 1.1118152141571045, 1.7281720638275146, 
300, 1218479189, 0.5926898, 0.5522469, -0.3630912, 0.46033362, 9.275577545166016, 3.448021650314331, 1.138097882270813, -0.2953784465789795, 1.0889941453933716, 1.5834089517593384, 
301, 1218495856, 0.59268236, 0.55225956, -0.363006, 0.46039522, 9.257085800170898, 3.425682306289673, 1.1499078273773193, -0.18538473546504974, 1.157802939414978, 1.3854103088378906, 
302, 1218512523, 0.5926622, 0.5522896, -0.36291474, 0.4604572, 9.197806358337402, 3.4153974056243896, 1.1249183416366577, 0.28643321990966797, 1.214368462562561, 1.4045426845550537, 
303, 1218529190, 0.5926523, 0.55229557, -0.3628566, 0.4605084, 9.209407806396484, 3.4289188385009766, 1.1419395208358765, -0.0014599236892536283, 1.1328688859939575, 1.5116934776306152, 
304, 1218545857, 0.59268624, 0.5522316, -0.36287254, 0.46052894, 9.20203685760498, 3.4357383251190186, 1.1456749439239502, -0.3317101299762726, 1.1940065622329712, 1.761724829673767, 
305, 1218562524, 0.59269375, 0.5521782, -0.3628585, 0.46059436, 9.224563598632812, 3.3813648223876953, 1.117134690284729, -0.13400565087795258, 1.3346329927444458, 1.86902916431427, 
306, 1218579191, 0.59261906, 0.5521791, -0.3628184, 0.46072093, 9.220170974731445, 3.4226226806640625, 1.1290682554244995, 0.1442699432373047, 1.1273878812789917, 2.077068567276001, 
307, 1218595858, 0.59254247, 0.5521516, -0.36285743, 0.46082163, 9.256260871887207, 3.4725263118743896, 1.1464948654174805, -0.3071475028991699, 0.7831403017044067, 2.3469364643096924, 
308, 1218612525, 0.5925142, 0.5520893, -0.3629437, 0.46086475, 9.265724182128906, 3.4529528617858887, 1.1523191928863525, -0.9470680356025696, 0.596193253993988, 2.2239699363708496, 
309, 1218629192, 0.59248996, 0.55202883, -0.3630415, 0.46089128, 9.224120140075684, 3.405569314956665, 1.1246564388275146, -1.0942386388778687, 0.46806570887565613, 2.1750242710113525, 
310, 1218645859, 0.592441, 0.5520206, -0.3631123, 0.46090826, 9.247807502746582, 3.383399248123169, 1.1192816495895386, -0.39583146572113037, 0.42770010232925415, 2.0246903896331787, 
311, 1218662526, 0.5923264, 0.55209845, -0.36305913, 0.46100423, 9.223857879638672, 3.437570810317993, 1.1622447967529297, -0.040557701140642166, 0.5112614631652832, 1.7590734958648682, 
312, 1218679193, 0.5923388, 0.55207, -0.36311272, 0.46098018, 9.19410228729248, 3.4524292945861816, 1.1678332090377808, -0.7026331424713135, 0.578661322593689, 1.654714822769165, 
313, 1218695860, 0.5924002, 0.55199766, -0.36318338, 0.46093234, 9.204224586486816, 3.431598663330078, 1.171939492225647, -1.3232673406600952, 0.6305526494979858, 1.562061071395874, 
314, 1218712527, 0.59246755, 0.55194813, -0.36322194, 0.46087468, 9.210994720458984, 3.3892364501953125, 1.1831998825073242, -0.9394354224205017, 0.74411940574646, 1.3558274507522583, 
315, 1218729194, 0.5925458, 0.5519225, -0.36324933, 0.46078303, 9.221487045288086, 3.3633155822753906, 1.1781316995620728, -0.10287340730428696, 0.8982566595077515, 1.1913939714431763, 
316, 1218745861, 0.59257007, 0.5519581, -0.36318126, 0.46076298, 9.242472648620605, 3.4033825397491455, 1.156021237373352, 0.5633321404457092, 1.1354174613952637, 1.1020313501358032, 
317, 1218762528, 0.59252274, 0.55206144, -0.36299413, 0.46084732, 9.234006881713867, 3.4353442192077637, 1.1769770383834839, 0.29000622034072876, 1.1222909688949585, 0.9393904805183411, 
318, 1218779195, 0.5925357, 0.5521288, -0.3628421, 0.46086973, 9.234679222106934, 3.4409282207489014, 1.1581171751022339, -0.06158573552966118, 1.1071408987045288, 0.757770836353302, 
319, 1218795862, 0.59255666, 0.5522001, -0.36268243, 0.46088302, 9.261466026306152, 3.423454761505127, 1.163478136062622, -0.40345123410224915, 0.9979795217514038, 0.6133792996406555, 
320, 1218812529, 0.59267724, 0.55220944, -0.3626376, 0.46075216, 9.255033493041992, 3.391603469848633, 1.1821067333221436, -0.34513112902641296, 0.9133296012878418, 0.4884534180164337, 
321, 1218829196, 0.5927458, 0.55228555, -0.3624893, 0.46068922, 9.23248291015625, 3.3841335773468018, 1.1780884265899658, 0.09417148679494858, 1.068273663520813, 0.3000079393386841, 
322, 1218845863, 0.5927498, 0.5524138, -0.36226562, 0.46070638, 9.234675407409668, 3.378864288330078, 1.1628108024597168, 0.5395251512527466, 1.1993595361709595, 0.3524371385574341, 
323, 1218862530, 0.59277755, 0.5525044, -0.36206803, 0.46071744, 9.258539199829102, 3.4146735668182373, 1.1691548824310303, 0.3099457025527954, 1.285302996635437, 0.4604075253009796, 
324, 1218879197, 0.5928631, 0.5525313, -0.36194038, 0.46067533, 9.245148658752441, 3.3925461769104004, 1.1737041473388672, 0.07210615277290344, 1.34988534450531, 0.5624229311943054, 
325, 1218895864, 0.5929069, 0.5525763, -0.3617814, 0.46069, 9.244864463806152, 3.3856899738311768, 1.16972017288208, 0.04367605224251747, 1.3571592569351196, 0.6939568519592285, 
326, 1218912531, 0.5929734, 0.55258673, -0.36169446, 0.46065995, 9.226540565490723, 3.3680286407470703, 1.1692990064620972, 0.1941506713628769, 1.307342529296875, 0.8946067094802856, 
327, 1218929198, 0.59300053, 0.5526233, -0.3615704, 0.46067873, 9.198724746704102, 3.382962942123413, 1.143761396408081, 0.19103872776031494, 1.2901822328567505, 0.9433733820915222, 
328, 1218945865, 0.59296995, 0.5527017, -0.3614171, 0.4607442, 9.209694862365723, 3.4098548889160156, 1.1576470136642456, 0.044546883553266525, 1.0539305210113525, 1.0000669956207275, 
329, 1218962532, 0.59298855, 0.5527234, -0.3613602, 0.46073896, 9.22000503540039, 3.4081826210021973, 1.160733699798584, -0.3019097149372101, 0.8844898343086243, 1.136441946029663, 
330, 1218979199, 0.59300226, 0.5527378, -0.36130798, 0.46074492, 9.238097190856934, 3.3897340297698975, 1.180253505706787, -0.6827449798583984, 0.7850228548049927, 1.1815330982208252, 
331, 1218995866, 0.5930386, 0.5527264, -0.36129013, 0.4607257, 9.25058364868164, 3.394726276397705, 1.1723864078521729, -0.6608589291572571, 0.8201379179954529, 1.2528260946273804, 
332, 1219012533, 0.5930941, 0.5526967, -0.3612999, 0.46068227, 9.269351959228516, 3.3857555389404297, 1.1493617296218872, -0.48466911911964417, 0.8861546516418457, 1.3062412738800049, 
333, 1219029200, 0.5931172, 0.552707, -0.36125815, 0.46067291, 9.255634307861328, 3.383570909500122, 1.1283131837844849, -0.12210853397846222, 0.9586642384529114, 1.2261375188827515, 
334, 1219045867, 0.59313005, 0.55273175, -0.36119276, 0.46067798, 9.248305320739746, 3.4043638706207275, 1.1415129899978638, 0.06932717561721802, 1.0341575145721436, 1.189024806022644, 
335, 1219062534, 0.5931598, 0.5527315, -0.3611696, 0.4606582, 9.242667198181152, 3.3759548664093018, 1.1583093404769897, 0.03331572189927101, 1.0007330179214478, 1.2989673614501953, 
336, 1219079201, 0.59318304, 0.55272216, -0.36117283, 0.46063682, 9.24230670928955, 3.4135663509368896, 1.1603646278381348, -0.06544045358896255, 0.9009587168693542, 1.4344969987869263, 
337, 1219095868, 0.5931793, 0.552706, -0.36116076, 0.46067044, 9.26974868774414, 3.4138219356536865, 1.1662393808364868, -0.5268916487693787, 0.8743982911109924, 1.60460364818573, 
338, 1219112535, 0.59317833, 0.5526601, -0.3611409, 0.46074232, 9.26492977142334, 3.366877794265747, 1.1631810665130615, -0.3261137008666992, 1.230479121208191, 1.8252443075180054, 
339, 1219129202, 0.59312713, 0.55263996, -0.36110428, 0.46086115, 9.276975631713867, 3.349466323852539, 1.121430516242981, 0.35709869861602783, 1.3432389497756958, 2.0745582580566406, 
340, 1219145869, 0.593024, 0.55262816, -0.36107495, 0.46103117, 9.264122009277344, 3.400850296020508, 1.1342147588729858, 0.44817742705345154, 1.270819067955017, 2.419292449951172, 
341, 1219162536, 0.5929926, 0.5525247, -0.3611453, 0.46114042, 9.257918357849121, 3.448009967803955, 1.1570287942886353, -0.3674141764640808, 1.2056857347488403, 2.5892837047576904, 
342, 1219179203, 0.59297687, 0.5523671, -0.36126247, 0.46125782, 9.27124309539795, 3.417907476425171, 1.1452187299728394, -1.32961905002594, 1.0635353326797485, 2.809924364089966, 
343, 1219195870, 0.59290123, 0.55225104, -0.3613189, 0.46144986, 9.288736343383789, 3.3267290592193604, 1.1102616786956787, -1.03166663646698, 1.1491329669952393, 2.9068427085876465, 
344, 1219212537, 0.5927975, 0.5521872, -0.36132407, 0.46165514, 9.285284042358398, 3.2952051162719727, 1.098699927330017, 0.2517792582511902, 1.4405542612075806, 2.826214075088501, 
345, 1219229204, 0.59266335, 0.5521367, -0.36131755, 0.4618928, 9.250201225280762, 3.387389898300171, 1.0975807905197144, 0.9033920168876648, 1.6209957599639893, 3.022881031036377, 
346, 1219245871, 0.5925705, 0.55199075, -0.36133325, 0.4621742, 9.263419151306152, 3.4387433528900146, 1.1123090982437134, 0.16862763464450836, 2.0256125926971436, 3.358997344970703, 
347, 1219262538, 0.5925075, 0.5517674, -0.36138406, 0.46248168, 9.281441688537598, 3.414381980895996, 1.126951813697815, -0.5303750038146973, 2.2255964279174805, 3.666887044906616, 
348, 1219279205, 0.5923936, 0.551563, -0.36138865, 0.46286774, 9.2910795211792, 3.3438472747802734, 1.089970588684082, -8.70831951033324E-4, 2.4991273880004883, 3.915382146835327, 
349, 1219295872, 0.5921982, 0.55142486, -0.36135265, 0.4633102, 9.287592887878418, 3.3508524894714355, 1.0770554542541504, 1.1239173412322998, 2.5635430812835693, 4.1216020584106445, 
350, 1219312539, 0.59195775, 0.5513306, -0.36128697, 0.46378037, 9.30644416809082, 3.411623954772949, 1.0661240816116333, 1.7473176717758179, 2.577540636062622, 4.171048164367676, 
351, 1219329206, 0.5917338, 0.55119604, -0.36127582, 0.46423498, 9.302238464355469, 3.457310914993286, 1.0707290172576904, 1.3414335250854492, 2.480584144592285, 4.366857528686523, 
352, 1219345873, 0.59154093, 0.5510061, -0.36136386, 0.4646373, 9.260360717773438, 3.438086748123169, 1.072156310081482, 0.6453568339347839, 2.1666362285614014, 4.582925796508789, 
353, 1219362540, 0.591293, 0.55085325, -0.36142638, 0.46508542, 9.222797393798828, 3.4240410327911377, 1.0564422607421875, 0.3517199456691742, 1.90468168258667, 4.639157295227051, 
354, 1219379207, 0.59105724, 0.5506733, -0.36155984, 0.46549407, 9.219305992126465, 3.409653902053833, 1.086531400680542, 0.3610558807849884, 1.752427577972412, 4.848017692565918, 
355, 1219395874, 0.59078896, 0.5505081, -0.36169836, 0.46592233, 9.223684310913086, 3.434204578399658, 1.0728453397750854, 0.610318660736084, 1.691430687904358, 5.019263744354248, 
356, 1219412541, 0.5904935, 0.5503268, -0.36183536, 0.4664045, 9.275266647338867, 3.470310688018799, 1.134748935699463, 0.6020714044570923, 1.8272935152053833, 5.33723258972168, 
357, 1219429208, 0.590233, 0.5500975, -0.3619891, 0.4668852, 9.319950103759766, 3.4771227836608887, 1.1290761232376099, 0.7302886247634888, 2.167417049407959, 5.477372646331787, 
358, 1219445875, 0.5899092, 0.5499279, -0.36197454, 0.46750504, 9.318779945373535, 3.444437026977539, 1.1695054769515991, 1.8280616998672485, 2.9394993782043457, 5.424788951873779, 
359, 1219462542, 0.5895442, 0.54985017, -0.36179128, 0.4681986, 9.312969207763672, 3.442324161529541, 1.1867231130599976, 3.835906505584717, 3.75563645362854, 5.099483489990234, 
360, 1219479209, 0.5890149, 0.5499975, -0.36122888, 0.46912456, 9.304384231567383, 3.470491409301758, 1.2328083515167236, 6.179660797119141, 4.711770534515381, 4.438892841339111, 
361, 1219495876, 0.5884228, 0.55028707, -0.36040854, 0.470158, 9.344005584716797, 3.512364149093628, 1.260864496231079, 8.119964599609375, 5.557887077331543, 3.756788969039917, 
362, 1219512543, 0.5878622, 0.55061495, -0.35941023, 0.47123834, 9.405841827392578, 3.5705931186676025, 1.3205146789550781, 9.082383155822754, 6.486176013946533, 3.112738609313965, 
363, 1219529210, 0.5873924, 0.55091757, -0.35824782, 0.4723543, 9.44409465789795, 3.6118922233581543, 1.4461932182312012, 9.792266845703125, 7.767772674560547, 2.4867382049560547, 
364, 1219545877, 0.5869338, 0.5512948, -0.3567766, 0.47359622, 9.425626754760742, 3.6530213356018066, 1.532199740409851, 10.72525405883789, 9.063322067260742, 1.519083857536316, 
365, 1219562544, 0.58666617, 0.55154735, -0.3552041, 0.4748143, 9.327255249023438, 3.7075064182281494, 1.6188786029815674, 10.064308166503906, 10.347135543823242, 0.7724220752716064, 
366, 1219579211, 0.5865985, 0.55165637, -0.3535548, 0.47600055, 9.255064010620117, 3.6402595043182373, 1.6713371276855469, 8.826482772827148, 11.464579582214355, 0.049131594598293304, 
367, 1219595878, 0.5866253, 0.55182874, -0.35159412, 0.47721842, 9.035332679748535, 3.4283177852630615, 1.6786680221557617, 9.584772109985352, 12.775566101074219, -1.4951553344726562, 
368, 1219612545, 0.58664876, 0.5522289, -0.34931937, 0.47839588, 8.7250394821167, 3.1820766925811768, 1.5923250913619995, 12.271808624267578, 13.400818824768066, -3.2596302032470703, 
369, 1219629212, 0.5865273, 0.5529622, -0.3465005, 0.47974607, 8.514421463012695, 3.2392613887786865, 1.6636652946472168, 15.38310718536377, 14.4714994430542, -5.106258869171143, 
370, 1219645879, 0.58655787, 0.5537244, -0.3435977, 0.48091573, 8.498705863952637, 3.3928887844085693, 1.6693782806396484, 15.003399848937988, 14.463190078735352, -6.684708118438721, 
371, 1219662546, 0.5868056, 0.5543635, -0.3408191, 0.48185354, 8.749811172485352, 3.42061185836792, 1.6432585716247559, 13.218254089355469, 14.164031028747559, -7.486846923828125, 
372, 1219679213, 0.5870353, 0.5549925, -0.33812243, 0.48274854, 9.215335845947266, 3.468291759490967, 1.6269557476043701, 12.13288688659668, 13.40160083770752, -7.384664058685303, 
373, 1219695880, 0.58721644, 0.55564374, -0.3355751, 0.48355603, 9.650896072387695, 3.3666372299194336, 1.5693950653076172, 12.566431999206543, 12.5758695602417, -6.912081718444824, 
374, 1219712547, 0.5871563, 0.5563968, -0.33306125, 0.48450035, 9.894107818603516, 3.352329969406128, 1.6560381650924683, 13.589948654174805, 11.891695976257324, -5.760385990142822, 
375, 1219729214, 0.5870039, 0.5571614, -0.33067176, 0.48544198, 9.939958572387695, 3.319401264190674, 1.820603609085083, 14.424912452697754, 11.43690299987793, -4.873654365539551, 
376, 1219745881, 0.58667284, 0.5581015, -0.32812947, 0.4864863, 9.789916038513184, 3.2842395305633545, 1.9545893669128418, 15.889622688293457, 11.213492393493652, -4.973698616027832, 
377, 1219762548, 0.58625543, 0.5592873, -0.32540897, 0.48745403, 9.483698844909668, 3.287858486175537, 1.9770009517669678, 17.6398983001709, 10.618856430053711, -6.24265718460083, 
378, 1219779215, 0.5858112, 0.56066704, -0.32266566, 0.48822603, 9.142950057983398, 3.3635902404785156, 1.9103691577911377, 17.877378463745117, 9.136442184448242, -7.528711795806885, 
379, 1219795882, 0.5854789, 0.5620493, -0.32006252, 0.48874858, 8.935246467590332, 3.448111057281494, 1.8890961408615112, 16.16571617126465, 7.74376106262207, -8.42884349822998, 
380, 1219812549, 0.5854751, 0.5631298, -0.3179573, 0.4888835, 8.711833953857422, 3.549581289291382, 1.9222179651260376, 12.090703964233398, 6.328455924987793, -8.33511734008789, 
381, 1219829216, 0.585785, 0.5637823, -0.3163591, 0.48879704, 8.585227012634277, 3.6460673809051514, 1.9523338079452515, 6.618556022644043, 5.41646146774292, -7.4447126388549805, 
382, 1219845883, 0.5863306, 0.56397605, -0.31539193, 0.48854423, 8.542015075683594, 3.680091142654419, 1.8792212009429932, 1.2472748756408691, 4.223164081573486, -5.485671520233154, 
383, 1219862550, 0.58689183, 0.56382525, -0.31497744, 0.48831186, 8.526206970214844, 3.584341049194336, 1.7945880889892578, -2.5173380374908447, 3.058861494064331, -2.65738844871521, 
384, 1219879217, 0.5871805, 0.5635724, -0.31493658, 0.48828286, 8.632772445678711, 3.477883815765381, 1.7141540050506592, -2.5816705226898193, 2.1256937980651855, 0.7701418399810791, 
385, 1219895884, 0.5869699, 0.5633756, -0.31512952, 0.4886388, 8.772368431091309, 3.4572479724884033, 1.6394128799438477, -0.5037890076637268, 1.3463380336761475, 4.756144046783447, 
386, 1219912551, 0.5862513, 0.5632848, -0.31551626, 0.48935598, 8.840909957885742, 3.468532085418701, 1.6048810482025146, 2.372248649597168, 0.6378459930419922, 8.50106143951416, 
387, 1219929218, 0.5851966, 0.56316745, -0.3162056, 0.49030754, 8.880987167358398, 3.5773813724517822, 1.6283864974975586, 3.499830484390259, -0.13878250122070312, 11.892375946044922, 
388, 1219945885, 0.5839096, 0.56297106, -0.3172166, 0.4914133, 8.837461471557617, 3.614441156387329, 1.64443039894104, 2.8184680938720703, -1.2779721021652222, 14.611958503723145, 
389, 1219962552, 0.58250475, 0.5627679, -0.31850547, 0.49247825, 8.824321746826172, 3.568131685256958, 1.6127678155899048, 2.3615312576293945, -2.734330892562866, 15.964550018310547, 
390, 1219979219, 0.58094835, 0.5627154, -0.3197819, 0.4935484, 8.917179107666016, 3.5271964073181152, 1.7209948301315308, 3.5520238876342773, -3.5291709899902344, 16.110122680664062, 
391, 1219995886, 0.5792728, 0.56286985, -0.32093164, 0.49459437, 9.058412551879883, 3.558229446411133, 1.807653546333313, 5.541108131408691, -3.9620003700256348, 15.536460876464844, 
392, 1220012553, 0.5774733, 0.56329644, -0.32177606, 0.4956633, 9.08470344543457, 3.5840566158294678, 1.9067444801330566, 8.051276206970215, -3.916274309158325, 14.24189567565918, 
393, 1220029220, 0.5756923, 0.56396085, -0.3223341, 0.496616, 9.035463333129883, 3.658454179763794, 1.9622914791107178, 10.102937698364258, -3.843796968460083, 12.158230781555176, 
394, 1220045887, 0.57408243, 0.5647453, -0.32265523, 0.4973789, 8.942448616027832, 3.78047776222229, 2.019576072692871, 10.467930793762207, -3.6270875930786133, 9.669376373291016, 
395, 1220062554, 0.5727719, 0.56551594, -0.3228191, 0.4979077, 8.804636001586914, 3.8262975215911865, 2.067805528640747, 8.615948677062988, -3.454981565475464, 7.03080415725708, 
396, 1220079221, 0.5718581, 0.5661692, -0.3229924, 0.49810308, 8.699071884155273, 3.8046367168426514, 2.0530269145965576, 5.748240947723389, -3.5521109104156494, 4.649084091186523, 
397, 1220095888, 0.57135594, 0.56665736, -0.32326955, 0.4979445, 8.59157943725586, 3.793175458908081, 2.044701099395752, 2.4834718704223633, -3.8275301456451416, 2.6483404636383057, 
398, 1220112555, 0.57123333, 0.56696564, -0.3236678, 0.4974753, 8.594523429870605, 3.79148268699646, 2.018537998199463, -0.6458690166473389, -4.01265811920166, 1.037800908088684, 
399, 1220129222, 0.5713827, 0.56710315, -0.3242228, 0.49678543, 8.654169082641602, 3.8138914108276367, 1.9743317365646362, -3.530716896057129, -4.358199596405029, 0.22057658433914185, 
400, 1220145889, 0.57182103, 0.5669422, -0.32511377, 0.4958814, 8.799097061157227, 3.838151693344116, 1.9178396463394165, -6.856579303741455, -4.649749279022217, 0.47930335998535156, 
401, 1220162556, 0.5723884, 0.5664982, -0.32633317, 0.49493262, 8.944448471069336, 3.866436243057251, 1.8055180311203003, -9.998037338256836, -4.982440948486328, 1.734262228012085, 
402, 1220179223, 0.5729509, 0.56588763, -0.32777512, 0.49402645, 9.035015106201172, 3.7669694423675537, 1.7215076684951782, -11.554150581359863, -5.243895530700684, 3.122560977935791, 
403, 1220195890, 0.5733463, 0.56529915, -0.32927492, 0.49324343, 9.093345642089844, 3.67374849319458, 1.654842495918274, -10.762877464294434, -5.4644269943237305, 4.3502421379089355, 
404, 1220212557, 0.5735421, 0.5648183, -0.33074564, 0.49258208, 9.104047775268555, 3.645098924636841, 1.669326901435852, -8.845284461975098, -5.577807903289795, 5.21248722076416, 
405, 1220229224, 0.57352614, 0.5644903, -0.33214453, 0.49203512, 9.075019836425781, 3.636815309524536, 1.7204222679138184, -6.898937225341797, -5.8537468910217285, 5.758396625518799, 
406, 1220245891, 0.57335305, 0.56436986, -0.3333968, 0.49152786, 9.02048110961914, 3.6466691493988037, 1.8034024238586426, -4.833738327026367, -6.172745227813721, 5.415370464324951, 
407, 1220262558, 0.5730531, 0.5644766, -0.33441612, 0.49106237, 8.999173164367676, 3.6776485443115234, 1.860253930091858, -2.687790632247925, -6.204965591430664, 4.568435192108154, 
408, 1220279225, 0.5727551, 0.56473225, -0.33527806, 0.49052814, 8.98533821105957, 3.742506980895996, 1.9359807968139648, -1.3047559261322021, -6.213724613189697, 3.4094603061676025, 
409, 1220295892, 0.57248855, 0.56506556, -0.33606598, 0.48991594, 8.890013694763184, 3.7696774005889893, 1.9593490362167358, -1.5482301712036133, -6.603024959564209, 2.4542856216430664, 
410, 1220312559, 0.57246, 0.56524396, -0.33703613, 0.48907632, 8.905830383300781, 3.829166889190674, 1.9428396224975586, -3.564667224884033, -6.915538787841797, 1.9346044063568115, 
411, 1220329226, 0.5726898, 0.5651067, -0.33829162, 0.48809794, 9.011680603027344, 3.837188959121704, 1.9765371084213257, -7.4793901443481445, -7.071021556854248, 2.30329966545105, 
412, 1220345893, 0.5731453, 0.5646137, -0.33990994, 0.48700842, 9.087787628173828, 3.6307497024536133, 1.9739435911178589, -11.276342391967773, -7.2368083000183105, 3.3556177616119385, 
413, 1220362560, 0.57364833, 0.5639071, -0.341747, 0.48594812, 9.233429908752441, 3.4499971866607666, 1.9160103797912598, -13.294732093811035, -7.291147708892822, 4.607581615447998, 
414, 1220379227, 0.57424223, 0.56298596, -0.3438368, 0.4848392, 9.358270645141602, 3.4442572593688965, 1.8320659399032593, -14.702122688293457, -7.308432102203369, 5.703481197357178, 
415, 1220395894, 0.57489187, 0.5618491, -0.34617203, 0.48372525, 9.414751052856445, 3.447580575942993, 1.7889454364776611, -17.02741241455078, -7.606987476348877, 6.892321586608887, 
416, 1220412561, 0.57555294, 0.56059414, -0.3486818, 0.48259115, 9.509535789489746, 3.2900595664978027, 1.8023682832717896, -18.174345016479492, -7.971024036407471, 7.726185321807861, 
417, 1220429228, 0.57609904, 0.55949825, -0.35097834, 0.48154554, 9.650904655456543, 3.144697427749634, 1.7925467491149902, -15.553836822509766, -7.3965535163879395, 7.338584899902344, 
418, 1220445895, 0.57636565, 0.55888975, -0.35267183, 0.48069516, 9.722678184509277, 3.1128592491149902, 1.6909183263778687, -9.78342342376709, -6.4600324630737305, 5.575798511505127, 
419, 1220462562, 0.57655334, 0.55858535, -0.35390347, 0.47991773, 9.61378288269043, 3.2319228649139404, 1.5739198923110962, -7.063812255859375, -5.718671798706055, 3.533439874649048, 
420, 1220479229, 0.57711744, 0.55805016, -0.35522878, 0.47888213, 9.444356918334961, 3.34963321685791, 1.5021992921829224, -10.805127143859863, -5.555570602416992, 2.124523639678955, 
421, 1220495896, 0.5783188, 0.55707055, -0.35683122, 0.47737992, 9.316064834594727, 3.2696340084075928, 1.4838114976882935, -16.91985321044922, -5.389436721801758, 0.33181291818618774, 
422, 1220512563, 0.5799724, 0.5559079, -0.3584292, 0.47552812, 9.282343864440918, 3.102590799331665, 1.3682559728622437, -19.836036682128906, -4.877953052520752, -2.052598476409912, 
423, 1220529230, 0.5817892, 0.55483574, -0.35978675, 0.47353178, 9.332085609436035, 2.964348554611206, 1.1937079429626465, -19.65394401550293, -4.365075588226318, -4.310469150543213, 
424, 1220545897, 0.5834992, 0.55410814, -0.360709, 0.4715739, 9.407078742980957, 2.9451990127563477, 1.0335171222686768, -16.875999450683594, -4.032238483428955, -6.399315357208252, 
425, 1220562564, 0.5850736, 0.55375725, -0.3611989, 0.46965668, 9.46901798248291, 2.931792736053467, 0.8916415572166443, -13.138482093811035, -3.6260573863983154, -8.356305122375488, 
426, 1220579231, 0.5864439, 0.55376256, -0.3612932, 0.46786502, 9.466734886169434, 3.0140414237976074, 0.8428211808204651, -9.397668838500977, -3.2250568866729736, -9.604671478271484, 
427, 1220595898, 0.5877553, 0.55389476, -0.36118045, 0.466147, 9.462937355041504, 3.0402746200561523, 0.8203839659690857, -7.465357780456543, -2.5372018814086914, -10.184005737304688, 
428, 1220612565, 0.58898646, 0.55411404, -0.3608802, 0.46456236, 9.335257530212402, 3.091402530670166, 0.8449857831001282, -6.518826484680176, -1.9546791315078735, -10.413508415222168, 
429, 1220629232, 0.5902315, 0.5542608, -0.36059433, 0.4630265, 9.225028038024902, 3.139204263687134, 0.8377655744552612, -7.000582695007324, -1.6219635009765625, -10.061314582824707, 
430, 1220645899, 0.59156036, 0.5541841, -0.36050972, 0.4614858, 9.124706268310547, 3.21842622756958, 0.8559210896492004, -8.89041519165039, -1.5324726104736328, -9.034371376037598, 
431, 1220662566, 0.5929872, 0.5538433, -0.36070025, 0.45991215, 9.101449012756348, 3.242727756500244, 0.8399878144264221, -11.538721084594727, -1.7751020193099976, -7.81510591506958, 
432, 1220679233, 0.59447384, 0.55322963, -0.3611959, 0.45833996, 9.14660930633545, 3.207989454269409, 0.8309392929077148, -13.823356628417969, -1.9880017042160034, -6.158763408660889, 
433, 1220695900, 0.59594566, 0.5524521, -0.36188108, 0.45682362, 9.23245906829834, 3.1612014770507812, 0.7881790995597839, -14.870708465576172, -2.054140329360962, -4.758805751800537, 
434, 1220712567, 0.59730285, 0.5516228, -0.3626109, 0.45547223, 9.361571311950684, 3.0987281799316406, 0.7361623644828796, -14.298772811889648, -1.6972779035568237, -3.418145179748535, 
435, 1220729234, 0.5985056, 0.5508308, -0.36326486, 0.45432955, 9.50779914855957, 3.1094391345977783, 0.6970779895782471, -12.84998893737793, -1.1021919250488281, -2.4731125831604004, 
436, 1220745901, 0.59954536, 0.5500825, -0.3638059, 0.45343143, 9.708065032958984, 3.134162664413452, 0.6714541912078857, -11.199387550354004, -0.281995952129364, -1.5174635648727417, 
437, 1220762568, 0.60042953, 0.5494019, -0.36418703, 0.45278028, 9.92768383026123, 3.169917345046997, 0.6721793413162231, -9.103330612182617, 0.762739896774292, -0.7823016047477722, 
438, 1220779235, 0.6011816, 0.5488423, -0.36431855, 0.4523547, 10.058046340942383, 3.1627814769744873, 0.6355887055397034, -6.700578689575195, 1.974906086921692, -0.6860747337341309, 
439, 1220795902, 0.60178566, 0.54852206, -0.3640778, 0.4521339, 10.119688987731934, 3.094083547592163, 0.6082961559295654, -3.63352632522583, 3.1313958168029785, -1.4144035577774048, 
440, 1220812569, 0.6022758, 0.5485251, -0.36341697, 0.45200923, 10.04482364654541, 3.029787063598633, 0.5765584707260132, -0.17694532871246338, 4.010609149932861, -3.0469765663146973, 
441, 1220829236, 0.60268927, 0.54889953, -0.36236206, 0.45185044, 9.774519920349121, 2.9776313304901123, 0.547484815120697, 2.722982168197632, 4.1599955558776855, -5.386325359344482, 
442, 1220845903, 0.60314816, 0.5495046, -0.36114785, 0.4514747, 9.448728561401367, 3.0001399517059326, 0.5734260678291321, 3.4945144653320312, 3.427703857421875, -7.6079864501953125, 
443, 1220862570, 0.6037681, 0.55019945, -0.35998237, 0.45072988, 9.204185485839844, 3.07020902633667, 0.5939319133758545, 2.2293620109558105, 1.9823787212371826, -9.681334495544434, 
444, 1220879237, 0.60462403, 0.55083096, -0.35900912, 0.44958615, 9.03543472290039, 3.061408519744873, 0.5719079971313477, -0.5744289755821228, 0.44652554392814636, -11.202165603637695, 
445, 1220895904, 0.60559684, 0.55135924, -0.35835335, 0.44815004, 9.000553131103516, 3.0433847904205322, 0.5494514107704163, -3.2187371253967285, -1.3853660821914673, -11.338338851928711, 
446, 1220912571, 0.6066533, 0.5517134, -0.3580678, 0.4465106, 8.91849136352539, 3.055042266845703, 0.5620012879371643, -5.777280330657959, -2.8930838108062744, -10.5997314453125, 
447, 1220929238, 0.6076759, 0.5518483, -0.35819745, 0.44484636, 8.832911491394043, 3.085632085800171, 0.5663774013519287, -7.976861000061035, -4.145673751831055, -8.503305435180664, 
448, 1220945905, 0.6086108, 0.5516913, -0.3587905, 0.44328207, 8.789031028747559, 3.0868313312530518, 0.5810656547546387, -9.884618759155273, -4.95644998550415, -5.3249664306640625, 
449, 1220962572, 0.6093266, 0.55128884, -0.35979968, 0.44197956, 8.82124137878418, 3.095695734024048, 0.5605634450912476, -10.828656196594238, -5.5332932472229, -1.4022319316864014, 
450, 1220979239, 0.6097052, 0.55066293, -0.3611446, 0.44114012, 8.932594299316406, 3.082031011581421, 0.5383362174034119, -10.435720443725586, -5.3580002784729, 3.3697431087493896, 
451, 1220995906, 0.6096725, 0.5499031, -0.36266252, 0.4408881, 9.066184997558594, 3.0848042964935303, 0.5598182678222656, -8.418257713317871, -4.429205894470215, 8.073223114013672, 
452, 1221012573, 0.6091455, 0.549166, -0.36418468, 0.44127995, 9.159360885620117, 3.0167598724365234, 0.5416879057884216, -4.891606330871582, -3.3141961097717285, 12.216554641723633, 
453, 1221029240, 0.6080628, 0.54857326, -0.36554015, 0.44238842, 9.229528427124023, 2.983225107192993, 0.537470281124115, 0.13403776288032532, -1.71931791305542, 15.907068252563477, 
454, 1221045907, 0.6064648, 0.54824245, -0.3665519, 0.44415143, 9.294974327087402, 2.9881839752197266, 0.5266897082328796, 5.866090297698975, 0.10684991627931595, 18.247669219970703, 
455, 1221062574, 0.6044514, 0.54823977, -0.36711955, 0.4464245, 9.32898998260498, 2.9756340980529785, 0.5074490904808044, 11.420550346374512, 1.836209774017334, 19.12873077392578, 
456, 1221079241, 0.6021119, 0.54859835, -0.3672692, 0.44901493, 9.272470474243164, 2.998983383178711, 0.527668833732605, 16.22212791442871, 2.8449435234069824, 18.95096206665039, 
457, 1221095908, 0.5996285, 0.54925555, -0.36707413, 0.45168653, 9.236821174621582, 3.0614428520202637, 0.5422999262809753, 19.30083465576172, 3.315706729888916, 17.673450469970703, 
458, 1221112575, 0.59715444, 0.55013627, -0.36662263, 0.4542519, 9.219037055969238, 3.119332790374756, 0.62312912940979, 20.66570472717285, 3.2945117950439453, 15.660737991333008, 
459, 1221129242, 0.5948127, 0.5511772, -0.36602584, 0.45653778, 9.2220458984375, 3.1566460132598877, 0.6896914839744568, 20.61667823791504, 2.6932196617126465, 13.148588180541992, 
460, 1221145909, 0.59267193, 0.5522857, -0.3653662, 0.45850646, 9.310659408569336, 3.2156691551208496, 0.7181606292724609, 19.530838012695312, 2.049717426300049, 10.808340072631836, 
461, 1221162576, 0.5907499, 0.55338025, -0.36475068, 0.46015424, 9.391879081726074, 3.2726972103118896, 0.7801114320755005, 17.694576263427734, 1.2503178119659424, 9.011297225952148, 
462, 1221179243, 0.589091, 0.5543426, -0.36427596, 0.4614967, 9.246987342834473, 3.311800479888916, 0.8474758267402649, 14.914450645446777, 0.5919933915138245, 7.799912929534912, 
463, 1221195910, 0.587717, 0.5551061, -0.3640315, 0.46252254, 8.897025108337402, 3.2775425910949707, 0.9149605631828308, 11.525736808776855, -0.1904497891664505, 6.992502689361572, 
464, 1221212577, 0.5866366, 0.55561864, -0.36406463, 0.46325216, 8.517227172851562, 3.2440314292907715, 0.9419512152671814, 7.733961582183838, -0.9184268116950989, 6.547094345092773, 
465, 1221229244, 0.5857764, 0.55586034, -0.3643982, 0.4637881, 8.271102905273438, 3.169368267059326, 0.9637835621833801, 4.445399284362793, -1.426819920539856, 6.903963088989258, 
466, 1221245911, 0.5850314, 0.5558548, -0.3649612, 0.46429235, 8.139257431030273, 3.1223039627075195, 0.9762505292892456, 2.1316237449645996, -1.4190335273742676, 7.902141571044922, 
467, 1221262578, 0.58429873, 0.5556432, -0.36570066, 0.46488574, 8.03807258605957, 3.098310708999634, 1.0006417036056519, 0.8826778531074524, -1.1123278141021729, 9.411540985107422, 
468, 1221279245, 0.5834625, 0.5552181, -0.36659688, 0.4657373, 8.066971778869629, 3.1048424243927, 1.0529907941818237, 0.7087933421134949, -0.2898014187812805, 11.937661170959473, 
469, 1221295912, 0.58245146, 0.5545744, -0.3676111, 0.4669688, 8.223515510559082, 3.2318639755249023, 1.0986909866333008, 0.9819276332855225, 0.9103657007217407, 15.016263008117676, 
470, 1221312579, 0.5813089, 0.55370784, -0.36862394, 0.46861932, 8.333000183105469, 3.2314529418945312, 1.1524155139923096, 1.6674398183822632, 2.8959412574768066, 17.682323455810547, 
471, 1221329246, 0.57993084, 0.5528157, -0.36938444, 0.4707766, 8.279609680175781, 3.0960516929626465, 1.1510025262832642, 4.548053741455078, 5.311595439910889, 19.575841903686523, 
472, 1221345913, 0.5781826, 0.55215055, -0.36963797, 0.47350025, 8.12598991394043, 3.0105931758880615, 1.133978009223938, 9.92880916595459, 7.801745891571045, 20.532129287719727, 
473, 1221362580, 0.57609874, 0.55185795, -0.3691708, 0.47673467, 7.980255603790283, 2.972806453704834, 1.1597771644592285, 16.376548767089844, 10.551000595092773, 19.984045028686523, 
474, 1221379247, 0.573688, 0.55201286, -0.36786437, 0.48045796, 7.838195323944092, 2.9422333240509033, 1.2608674764633179, 23.316448211669922, 13.410354614257812, 18.668764114379883, 
475, 1221395914, 0.570963, 0.5526059, -0.36574796, 0.48461974, 7.810945987701416, 3.021432399749756, 1.3258754014968872, 30.109560012817383, 16.048809051513672, 17.270015716552734, 
476, 1221412581, 0.5680945, 0.553499, -0.36300376, 0.48901507, 7.805997371673584, 3.2572240829467773, 1.3896777629852295, 34.47525405883789, 18.02387046813965, 15.529550552368164, 
477, 1221429248, 0.56550896, 0.5542411, -0.360177, 0.49324346, 7.786191463470459, 3.6393299102783203, 1.3472996950149536, 32.75701141357422, 18.945093154907227, 14.009818077087402, 
478, 1221445915, 0.56356806, 0.5544481, -0.3578487, 0.49691325, 7.725571155548096, 3.8716180324554443, 1.2637300491333008, 25.05756378173828, 18.25990104675293, 12.883186340332031, 
479, 1221462582, 0.56234443, 0.5540646, -0.35626897, 0.49985394, 7.5840535163879395, 3.7518510818481445, 1.1475884914398193, 15.678786277770996, 16.35761260986328, 11.935698509216309, 
480, 1221479249, 0.56156147, 0.55335087, -0.35526773, 0.50223136, 7.4732279777526855, 3.509860038757324, 1.0623934268951416, 9.334074020385742, 14.183281898498535, 11.274711608886719, 
481, 1221495916, 0.56098545, 0.55251175, -0.35469508, 0.5041999, 7.531627178192139, 3.3981714248657227, 1.024086833000183, 5.673232078552246, 11.933878898620605, 10.948441505432129, 
482, 1221512583, 0.56042904, 0.55166626, -0.35440016, 0.5059487, 7.840383529663086, 3.431124687194824, 0.9984318614006042, 3.9848780632019043, 10.074418067932129, 11.108339309692383, 
483, 1221529250, 0.55985945, 0.5507777, -0.35429442, 0.5076189, 8.402815818786621, 3.5188121795654297, 1.0293419361114502, 3.0750885009765625, 9.18018627166748, 11.696892738342285, 
484, 1221545917, 0.5591681, 0.5497667, -0.35447824, 0.50934553, 9.216950416564941, 3.7451422214508057, 0.9927244782447815, 2.21737003326416, 8.41845417022705, 13.753467559814453, 
485, 1221562584, 0.55821836, 0.54836375, -0.35534596, 0.51129144, 10.509178161621094, 4.094197750091553, 0.9990394711494446, -0.18279166519641876, 7.362124443054199, 19.056489944458008, 
486, 1221579251, 0.55699396, 0.54637825, -0.35702506, 0.5135773, 12.248885154724121, 4.478262901306152, 1.1376932859420776, -3.3897793292999268, 6.916292190551758, 25.826942443847656, 
487, 1221595918, 0.5555672, 0.54415226, -0.3589422, 0.5161435, 12.815019607543945, 4.332503318786621, 1.2746398448944092, -3.7248854637145996, 7.413132190704346, 29.114519119262695, 
488, 1221612585, 0.5537169, 0.5424271, -0.36055246, 0.5188185, 12.459192276000977, 3.9252095222473145, 1.2153171300888062, 1.0953751802444458, 6.1691508293151855, 28.65711784362793, 
489, 1221629252, 0.5514427, 0.54162824, -0.36138618, 0.52148813, 11.634834289550781, 3.6997885704040527, 1.256494164466858, 9.060680389404297, 4.78270959854126, 24.98124122619629, 
490, 1221645919, 0.5493004, 0.5419454, -0.36128613, 0.5234852, 10.75654411315918, 3.5873162746429443, 1.3304665088653564, 14.487784385681152, 2.1525206565856934, 15.720322608947754, 
491, 1221662586, 0.54796964, 0.5431107, -0.3606597, 0.5241038, 9.88658618927002, 3.7152533531188965, 1.3916045427322388, 13.064865112304688, -2.0427229404449463, 3.5247318744659424, 
492, 1221679253, 0.54807335, 0.5441307, -0.36069122, 0.52291435, 10.217350006103516, 4.274416923522949, 1.3678579330444336, 0.3177512288093567, -7.1886725425720215, -5.620752811431885, 
493, 1221695920, 0.54996455, 0.5442821, -0.36206424, 0.51981306, 11.700339317321777, 4.672335624694824, 1.2581344842910767, -19.213043212890625, -11.842294692993164, -12.055917739868164, 
494, 1221712587, 0.55358636, 0.5436252, -0.36417097, 0.51516354, 13.144959449768066, 4.59663724899292, 1.2522103786468506, -35.13616180419922, -13.190067291259766, -19.298566818237305, 
495, 1221729254, 0.5583655, 0.54284436, -0.36608067, 0.50944376, 13.640124320983887, 4.096660614013672, 1.1051627397537231, -41.9951057434082, -13.118353843688965, -27.890233993530273, 
496, 1221745921, 0.5637842, 0.542311, -0.36709186, 0.50327885, 13.233901977539062, 3.2503254413604736, 1.5137689113616943, -41.35166549682617, -10.568132400512695, -35.797584533691406, 
497, 1221762588, 0.56921184, 0.54184765, -0.36718068, 0.49757147, 12.187554359436035, 1.9373931884765625, 2.394744873046875, -36.73557662963867, -5.4976725578308105, -37.66929626464844, 
498, 1221779255, 0.5743249, 0.5415729, -0.36590585, 0.4929125, 11.149007797241211, 0.5250007510185242, 3.5251502990722656, -27.534229278564453, 2.289306402206421, -38.06747055053711, 
499, 1221795922, 0.57869303, 0.54138297, -0.3634154, 0.4898452, 10.01180362701416, -0.4903614819049835, 4.348071575164795, -16.305068969726562, 10.823447227478027, -34.03700256347656, 
500, 1221812589, 0.582317, 0.5406887, -0.36125264, 0.48791316, 9.123144149780273, 0.09743043780326843, 4.168656349182129, -13.807642936706543, 13.54300594329834, -24.583158493041992, 
501, 1221829256, 0.5863415, 0.5389119, -0.35994178, 0.4860245, 8.403843879699707, -0.33726680278778076, 3.40674090385437, -22.370203018188477, 14.880576133728027, -19.93412971496582, 
502, 1221845923, 0.5902538, 0.53671825, -0.35921094, 0.4842536, 8.539690017700195, 0.9906039237976074, 2.7880473136901855, -25.315616607666016, 14.051923751831055, -15.950874328613281, 
503, 1221862590, 0.5948738, 0.53283715, -0.36062786, 0.48182714, 8.926131248474121, 1.9149073362350464, 2.2716987133026123, -43.552528381347656, 10.259509086608887, -8.8992919921875, 
504, 1221879257, 0.59982204, 0.5281827, -0.3627904, 0.47918653, 9.214982032775879, 1.2920124530792236, 1.6422113180160522, -50.90116882324219, 9.791783332824707, -6.2224345207214355, 
505, 1221895924, 0.603593, 0.5248465, -0.36354247, 0.47754437, 9.608748435974121, 1.040000319480896, 1.131001353263855, -33.994781494140625, 11.967774391174316, -6.646333694458008, 
506, 1221912591, 0.60572994, 0.52367175, -0.36203203, 0.4772757, 9.837961196899414, 1.3606655597686768, 0.7302414178848267, -8.330586433410645, 15.122038841247559, -9.186910629272461, 
507, 1221929258, 0.60616064, 0.52487695, -0.35824662, 0.47826025, 9.885456085205078, 1.7856948375701904, 0.4881824254989624, 18.3309326171875, 17.076274871826172, -12.501585960388184, 
508, 1221945925, 0.60524, 0.5281387, -0.35251784, 0.48008904, 9.76667308807373, 2.342938184738159, 0.3872568607330322, 40.21780776977539, 18.148555755615234, -16.641206741333008, 
509, 1221962592, 0.60350245, 0.532728, -0.34568578, 0.4821691, 9.488576889038086, 2.9850211143493652, 0.3334570527076721, 52.98099136352539, 17.323362350463867, -20.129695892333984, 
510, 1221979259, 0.6017306, 0.5375785, -0.33900797, 0.48373905, 9.171564102172852, 3.639753818511963, 0.3627465069293976, 52.465232849121094, 13.896343231201172, -22.191713333129883, 
511, 1221995926, 0.60061944, 0.5417677, -0.33353975, 0.48424727, 8.904515266418457, 3.9930238723754883, 0.4699575901031494, 40.7693977355957, 8.729395866394043, -22.769590377807617, 
512, 1222012593, 0.60042423, 0.5448957, -0.32977203, 0.4835596, 8.832481384277344, 4.100888252258301, 0.5146713852882385, 24.577701568603516, 2.9111571311950684, -21.977598190307617, 
513, 1222029260, 0.601186, 0.54686004, -0.32780656, 0.48172867, 8.884982109069824, 4.1031293869018555, 0.611708402633667, 7.597923755645752, -2.753357172012329, -20.48030662536621, 
514, 1222045927, 0.6027554, 0.5477115, -0.32754457, 0.47897053, 8.904558181762695, 3.9917399883270264, 0.699144721031189, -7.779088020324707, -7.759480953216553, -18.066787719726562, 
515, 1222062594, 0.60477155, 0.5475911, -0.32871187, 0.4757561, 8.996973991394043, 3.5062520503997803, 0.918182909488678, -19.222871780395508, -11.180938720703125, -13.849801063537598, 
516, 1222079261, 0.60687244, 0.54665107, -0.33097047, 0.4725855, 9.1144437789917, 2.986619710922241, 1.1305453777313232, -26.432472229003906, -12.675092697143555, -7.984138488769531, 
517, 1222095928, 0.6088419, 0.5449647, -0.33412784, 0.46976987, 9.160409927368164, 2.587710380554199, 1.4166779518127441, -31.18447494506836, -12.967178344726562, -1.0105721950531006, 
518, 1222112595, 0.61033034, 0.5428665, -0.33774653, 0.46767536, 9.25661849975586, 2.0397655963897705, 1.779719591140747, -30.886980056762695, -11.951885223388672, 6.234551906585693, 
519, 1222129262, 0.61090213, 0.5409191, -0.34108186, 0.46676373, 9.438302993774414, 1.5695074796676636, 2.1760706901550293, -23.20953941345215, -8.97996997833252, 12.712089538574219, 
520, 1222145929, 0.6103197, 0.5394622, -0.34384298, 0.46718577, 9.417590141296387, 1.3970245122909546, 2.440664529800415, -11.890697479248047, -5.900773525238037, 18.704771041870117, 
521, 1222162596, 0.6086108, 0.5386377, -0.34608474, 0.4687088, 9.343236923217773, 1.4079080820083618, 2.45015287399292, -0.7700153589248657, -4.33984375, 23.496240615844727, 
522, 1222179263, 0.60591614, 0.53854746, -0.34780762, 0.4710226, 9.291308403015137, 1.5326987504959106, 2.364508628845215, 9.520870208740234, -3.9599204063415527, 26.288604736328125, 
523, 1222195930, 0.60251373, 0.53911376, -0.34912056, 0.47375977, 9.301106452941895, 1.8765232563018799, 2.3030571937561035, 17.219890594482422, -4.5163164138793945, 27.231164932250977, 
524, 1222212597, 0.59893364, 0.5399481, -0.3502313, 0.47652137, 9.380338668823242, 2.268674612045288, 2.2282233238220215, 19.7263240814209, -4.8921661376953125, 26.501663208007812, 
525, 1222229264, 0.59552443, 0.540811, -0.3513137, 0.47901234, 9.326440811157227, 2.561739921569824, 2.032006025314331, 18.647197723388672, -5.473433017730713, 24.63770866394043, 
526, 1222245931, 0.59233797, 0.54185134, -0.35219264, 0.48113754, 9.24697494506836, 2.6160802841186523, 1.869838833808899, 18.35755729675293, -6.046541690826416, 21.21575164794922, 
527, 1222262598, 0.589486, 0.5430304, -0.35279965, 0.48286313, 9.126399993896484, 2.8461973667144775, 1.79961359500885, 17.574892044067383, -6.092967510223389, 17.119665145874023, 
528, 1222279265, 0.5871349, 0.5441512, -0.35333866, 0.48407048, 8.881717681884766, 3.001832962036133, 1.7161282300949097, 14.471330642700195, -6.339025020599365, 13.246209144592285, 
529, 1222295932, 0.5852614, 0.545181, -0.35398132, 0.4847105, 8.632473945617676, 3.0579538345336914, 1.5842251777648926, 10.556872367858887, -7.432715892791748, 9.969547271728516, 
530, 1222312599, 0.58376783, 0.546128, -0.35481215, 0.4848377, 8.6127290725708, 3.2130274772644043, 1.524996280670166, 6.93997049331665, -8.909326553344727, 7.551167011260986, 
531, 1222329266, 0.58265173, 0.5468875, -0.35592058, 0.48451173, 8.673707962036133, 3.3766705989837646, 1.5597516298294067, 2.7339518070220947, -10.185041427612305, 5.976840972900391, 
532, 1222345933, 0.58185524, 0.5473538, -0.35736302, 0.48388016, 8.748432159423828, 3.465270519256592, 1.6141473054885864, -1.495276689529419, -10.915299415588379, 5.670180797576904, 
533, 1222362600, 0.58127856, 0.5475065, -0.35913298, 0.48308948, 8.745294570922852, 3.5115063190460205, 1.6208125352859497, -5.076113700866699, -11.250353813171387, 6.309833526611328, 
534, 1222379267, 0.58083105, 0.54737216, -0.36121765, 0.48222497, 8.695762634277344, 3.5227527618408203, 1.5703986883163452, -7.949119567871094, -11.522926330566406, 7.485483646392822, 
535, 1222395934, 0.5803885, 0.5470905, -0.36349875, 0.48136255, 8.597314834594727, 3.410491466522217, 1.5263731479644775, -9.179862976074219, -11.796831130981445, 8.595015525817871, 
536, 1222412601, 0.57982147, 0.5468394, -0.365789, 0.48059568, 8.449159622192383, 3.244065761566162, 1.5243209600448608, -8.408357620239258, -11.89916706085205, 9.351347923278809, 
537, 1222429268, 0.5790928, 0.54675484, -0.36794016, 0.4799279, 8.248358726501465, 3.1209373474121094, 1.4944616556167603, -6.400881290435791, -11.928080558776855, 9.347784996032715, 
538, 1222445935, 0.5782476, 0.5468778, -0.36988437, 0.47931197, 8.044060707092285, 3.0894863605499268, 1.5148025751113892, -4.325047016143799, -11.894822120666504, 8.642563819885254, 
539, 1222462602, 0.5774015, 0.5471525, -0.37164438, 0.4786566, 7.867974758148193, 3.088080883026123, 1.56366765499115, -3.20552134513855, -11.817734718322754, 7.417526721954346, 
540, 1222479269, 0.57669175, 0.54742986, -0.3733452, 0.47787106, 7.742615222930908, 3.089332103729248, 1.568044662475586, -3.949634552001953, -11.77088737487793, 6.216148376464844, 
541, 1222495936, 0.5762213, 0.5475567, -0.37517464, 0.47685924, 7.713626384735107, 3.0916080474853516, 1.6117656230926514, -6.313304424285889, -11.992758750915527, 5.428353309631348, 
542, 1222512603, 0.5759781, 0.5474855, -0.37714666, 0.47567782, 7.759038925170898, 3.0480687618255615, 1.678688406944275, -8.910795211791992, -11.985076904296875, 5.060427665710449, 
543, 1222529270, 0.5758924, 0.54727054, -0.3791768, 0.47441334, 7.774622917175293, 2.9748053550720215, 1.7726417779922485, -10.44910717010498, -11.651291847229004, 4.818604469299316, 
544, 1222545937, 0.5758873, 0.5470078, -0.38110855, 0.47317275, 7.735357761383057, 2.9036333560943604, 1.8652442693710327, -10.4840669631958, -10.797017097473145, 4.420211315155029, 
545, 1222562604, 0.5758506, 0.54674184, -0.38287678, 0.47209617, 7.83573055267334, 2.971998691558838, 1.894477128982544, -9.482128143310547, -9.637251853942871, 4.563955307006836, 
546, 1222579271, 0.57581365, 0.546433, -0.38449147, 0.47118568, 8.074934959411621, 3.09610915184021, 1.8746308088302612, -8.711671829223633, -8.277971267700195, 4.765194892883301, 
547, 1222595938, 0.57582814, 0.5459876, -0.3860596, 0.47040156, 8.380037307739258, 3.2288949489593506, 1.880850911140442, -8.974380493164062, -7.056705474853516, 5.2903313636779785, 
548, 1222612605, 0.5759986, 0.5453409, -0.38758323, 0.46968964, 8.516776084899902, 3.339453935623169, 1.8925260305404663, -9.975519180297852, -5.545287132263184, 5.451563835144043, 
549, 1222629272, 0.5763992, 0.5445955, -0.3889128, 0.4689635, 8.41519832611084, 3.3224265575408936, 1.8669317960739136, -10.637592315673828, -3.9097864627838135, 4.197551727294922, 
550, 1222645939, 0.5770178, 0.54390234, -0.38999018, 0.46811184, 8.345643043518066, 3.258580446243286, 1.733427882194519, -10.767038345336914, -2.976958990097046, 1.9218242168426514, 
551, 1222662606, 0.57783324, 0.5433732, -0.39082164, 0.4670254, 8.441444396972656, 3.1914849281311035, 1.7105116844177246, -10.690214157104492, -2.8892481327056885, -0.9932929873466492, 
552, 1222679273, 0.57877994, 0.54313284, -0.39131972, 0.4657141, 8.793193817138672, 3.176243543624878, 1.715903878211975, -9.911567687988281, -3.0826427936553955, -4.359180450439453, 
553, 1222695940, 0.57979494, 0.5431716, -0.39142865, 0.46431282, 9.322099685668945, 3.1757564544677734, 1.7336552143096924, -8.05279541015625, -2.588810920715332, -7.133632659912109, 
554, 1222712607, 0.58085155, 0.5433877, -0.3912234, 0.46290997, 9.86762809753418, 3.24947190284729, 1.8104677200317383, -6.5031304359436035, -1.8065667152404785, -8.919958114624023, 
555, 1222729274, 0.5820107, 0.54347295, -0.3909625, 0.46157256, 10.703290939331055, 3.386431932449341, 1.9783679246902466, -6.673999309539795, -0.5496166944503784, -8.795666694641113, 
556, 1222745941, 0.58322734, 0.54329085, -0.39055958, 0.46059117, 11.880343437194824, 3.4777991771698, 2.0611839294433594, -6.925067901611328, 2.23821759223938, -7.404511451721191, 
557, 1222762608, 0.584359, 0.5430574, -0.38977215, 0.46009904, 12.735984802246094, 3.4007208347320557, 2.0128681659698486, -4.280830383300781, 5.534412384033203, -6.47404670715332, 
558, 1222779275, 0.5853175, 0.5431341, -0.38824686, 0.4600797, 12.702544212341309, 3.2721402645111084, 1.9837523698806763, 1.2160401344299316, 8.813257217407227, -7.6174702644348145, 
559, 1222795942, 0.5861581, 0.54368544, -0.38587055, 0.46035725, 11.865948677062988, 3.1641619205474854, 1.8900647163391113, 7.051990032196045, 11.525470733642578, -10.500570297241211, 
560, 1222812609, 0.5870951, 0.54468215, -0.38266224, 0.460663, 11.014355659484863, 3.1997413635253906, 1.6793341636657715, 11.196748733520508, 13.825769424438477, -14.989453315734863, 
561, 1222829276, 0.5885727, 0.5458104, -0.3788369, 0.4606039, 10.22046947479248, 3.285426616668701, 1.423337459564209, 10.69938850402832, 15.95333480834961, -20.833662033081055, 
562, 1222845943, 0.5907702, 0.5468648, -0.3747354, 0.4598945, 9.49557876586914, 3.142606019973755, 1.1719154119491577, 6.879710674285889, 16.739187240600586, -26.588401794433594, 
563, 1222862610, 0.5934617, 0.547686, -0.37075248, 0.4586787, 9.875265121459961, 3.222917318344116, 0.9077877998352051, 2.393144369125366, 16.366540908813477, -29.160404205322266, 
564, 1222879277, 0.5965166, 0.5478388, -0.3672096, 0.4573815, 11.633245468139648, 3.6257128715515137, 0.8504972457885742, -3.297865390777588, 17.302331924438477, -27.27924346923828, 
565, 1222895944, 0.59982383, 0.5472839, -0.36381474, 0.4564327, 13.2459077835083, 3.7273457050323486, 0.8670161366462708, -6.740013599395752, 20.87946128845215, -24.304922103881836, 
566, 1222912611, 0.6029405, 0.546733, -0.3598882, 0.45609924, 13.28505802154541, 3.2587735652923584, 0.7961850762367249, -2.8015921115875244, 24.90907096862793, -23.189075469970703, 
567, 1222929278, 0.6052474, 0.54694057, -0.35510433, 0.45654434, 12.391778945922852, 3.0974035263061523, 0.6784285306930542, 7.998262405395508, 27.021503448486328, -22.538551330566406, 
568, 1222945945, 0.6069132, 0.5478738, -0.34963784, 0.45743218, 11.226767539978027, 3.089595079421997, 0.6179958581924438, 16.649198532104492, 27.69809341430664, -23.037240982055664, 
569, 1222962612, 0.6082036, 0.54943705, -0.34372193, 0.45832616, 10.005682945251465, 2.9181108474731445, 0.5298265814781189, 22.116178512573242, 26.72633934020996, -25.050931930541992, 
570, 1222979279, 0.6090731, 0.5516315, -0.3376822, 0.45902482, 9.034249305725098, 2.6820149421691895, 0.4174708425998688, 26.270814895629883, 23.536100387573242, -26.511045455932617, 
571, 1222995946, 0.60940003, 0.5544012, -0.33187795, 0.4594867, 8.529287338256836, 2.726304054260254, 0.3049938976764679, 29.441408157348633, 18.591102600097656, -26.24169921875, 
572, 1223012613, 0.60935426, 0.5574693, -0.32665092, 0.45958087, 8.361635208129883, 3.069256544113159, 0.36757218837738037, 29.44451904296875, 12.990362167358398, -25.093788146972656, 
573, 1223029280, 0.6093912, 0.5602228, -0.32249492, 0.4591188, 8.365219116210938, 3.427968978881836, 0.4935055077075958, 23.171632766723633, 7.563204288482666, -22.87793731689453, 
574, 1223045947, 0.60993123, 0.56214535, -0.31970358, 0.45800245, 8.393836975097656, 3.6557395458221436, 0.5991514325141907, 11.989602088928223, 3.0752649307250977, -20.111745834350586, 
575, 1223062614, 0.61119604, 0.5629581, -0.31838417, 0.45623377, 8.412278175354004, 3.6857798099517822, 0.5520126819610596, -1.5384281873703003, -0.5221153497695923, -17.000612258911133, 
576, 1223079281, 0.613079, 0.56272507, -0.31847632, 0.45392478, 8.36409854888916, 3.5482988357543945, 0.4584258496761322, -13.93912410736084, -3.902439832687378, -13.459331512451172, 
577, 1223095948, 0.6152161, 0.5617074, -0.31974652, 0.4513937, 8.466553688049316, 3.313467264175415, 0.44350263476371765, -22.397825241088867, -6.712392807006836, -8.913834571838379, 
578, 1223112615, 0.6171859, 0.56029266, -0.321736, 0.44904327, 8.652647972106934, 3.132662057876587, 0.5205425024032593, -25.269243240356445, -8.18377685546875, -3.9847311973571777, 
579, 1223129282, 0.6187432, 0.5587373, -0.32401252, 0.4471976, 8.81867790222168, 3.093109607696533, 0.5516074895858765, -24.04966926574707, -7.926680564880371, 0.8391764760017395, 
580, 1223145949, 0.61969876, 0.55726695, -0.32628873, 0.4460524, 9.09972858428955, 3.0250394344329834, 0.5720117092132568, -19.817445755004883, -6.826218128204346, 5.47097110748291, 
581, 1223162616, 0.6199442, 0.55606973, -0.32825577, 0.44576207, 9.308147430419922, 2.979055643081665, 0.5223512649536133, -13.068673133850098, -4.655073642730713, 9.482437133789062, 
582, 1223179283, 0.6194449, 0.555298, -0.32974958, 0.44631553, 9.367331504821777, 2.9667229652404785, 0.48594120144844055, -5.056282997131348, -2.3864259719848633, 12.581745147705078, 
583, 1223195950, 0.6182335, 0.5550096, -0.33076212, 0.44760296, 9.37133502960205, 2.9321815967559814, 0.412432998418808, 2.8596150875091553, -0.620596170425415, 14.9483060836792, 
584, 1223212617, 0.6162533, 0.5553198, -0.33136842, 0.4494962, 9.438335418701172, 2.9066038131713867, 0.32699406147003174, 10.963730812072754, -0.1608351767063141, 16.965946197509766, 
585, 1223229284, 0.6135916, 0.556211, -0.3316872, 0.4517947, 9.490303039550781, 3.003751277923584, 0.3923902213573456, 17.8360595703125, -0.7304951548576355, 18.35612678527832, 
586, 1223245951, 0.6104418, 0.5575589, -0.33192036, 0.45422253, 9.377276420593262, 3.1707065105438232, 0.5372291803359985, 22.187498092651367, -2.3949227333068848, 19.03840446472168, 
587, 1223262618, 0.60699964, 0.55916613, -0.33233166, 0.45655286, 9.262264251708984, 3.327979564666748, 0.613057553768158, 23.616744995117188, -4.982018947601318, 19.62476348876953, 
588, 1223279285, 0.60347646, 0.5607992, -0.33316198, 0.45861074, 9.216960906982422, 3.516289234161377, 0.690487265586853, 22.095766067504883, -8.037489891052246, 20.28852653503418, 
589, 1223295952, 0.6001431, 0.5621715, -0.33469105, 0.46018842, 9.1364164352417, 3.6783571243286133, 0.8176596164703369, 16.978384017944336, -11.523215293884277, 20.98578643798828, 
590, 1223312619, 0.5971814, 0.563059, -0.33708313, 0.46120933, 9.1306791305542, 3.7289199829101562, 0.879959762096405, 9.527740478515625, -14.841629028320312, 21.963111877441406, 
591, 1223329286, 0.59458864, 0.5634379, -0.34028822, 0.46174255, 9.268006324768066, 3.706430435180664, 0.919634222984314, 2.302025079727173, -17.596250534057617, 23.11800193786621, 
592, 1223345953, 0.59228355, 0.56340075, -0.3441333, 0.4619008, 9.391056060791016, 3.6858785152435303, 0.9953526854515076, -3.420996904373169, -19.667787551879883, 24.12686538696289, 
593, 1223362620, 0.5901821, 0.5630535, -0.348466, 0.46176574, 9.478998184204102, 3.639864206314087, 1.0559099912643433, -7.715280055999756, -21.320554733276367, 24.9090576171875, 
594, 1223379287, 0.58820045, 0.5624625, -0.35310635, 0.46148917, 9.51093578338623, 3.6036911010742188, 1.1934285163879395, -10.482889175415039, -22.055130004882812, 25.731882095336914, 
595, 1223395954, 0.58629996, 0.5616893, -0.35791373, 0.4611457, 9.4288911819458, 3.601017475128174, 1.2864785194396973, -12.223365783691406, -22.214746475219727, 26.293581008911133, 
596, 1223412621, 0.5844814, 0.560758, -0.36277544, 0.4607886, 9.263360023498535, 3.555030584335327, 1.3413097858428955, -13.381745338439941, -21.78574562072754, 26.58184242248535, 
597, 1223429288, 0.5827143, 0.559752, -0.3675524, 0.46046406, 9.078279495239258, 3.4900929927825928, 1.4075210094451904, -13.526518821716309, -20.957616806030273, 26.41334342956543, 
598, 1223445955, 0.58094513, 0.55875576, -0.37210557, 0.46025246, 8.947843551635742, 3.4250032901763916, 1.4269614219665527, -12.484099388122559, -19.668302536010742, 25.991342544555664, 
599, 1223462622, 0.579148, 0.5578225, -0.37621108, 0.46031168, 9.00319766998291, 3.4018754959106445, 1.6236202716827393, -10.011792182922363, -17.114042282104492, 25.285451889038086, 
600, 1223479289, 0.57690406, 0.55747634, -0.37877926, 0.46144146, 9.14449405670166, 2.7322678565979004, 2.390941858291626, 1.675612211227417, -9.90960693359375, 23.55240249633789, 
601, 1223495956, 0.57282966, 0.5591984, -0.37822178, 0.4648786, 9.224820137023926, 2.02846622467041, 2.6529061794281006, 32.82729721069336, -0.011762694455683231, 21.14374351501465, 
602, 1223512623, 0.5667339, 0.5632725, -0.3742445, 0.47061443, 9.249608039855957, 2.4915449619293213, 2.5013678073883057, 66.77715301513672, 9.50312614440918, 17.384838104248047, 
603, 1223529290, 0.5600824, 0.5679759, -0.36874297, 0.47722116, 9.175995826721191, 3.9846861362457275, 2.183711528778076, 78.5593032836914, 15.332700729370117, 15.047637939453125, 
604, 1223545957, 0.55545926, 0.5706299, -0.36462653, 0.48259103, 9.01773452758789, 5.605388164520264, 2.0520293712615967, 55.06820297241211, 17.0228328704834, 14.242989540100098, 
605, 1223562624, 0.55413854, 0.5701376, -0.36345035, 0.48556933, 8.964780807495117, 5.860546112060547, 1.82614004611969, 14.347626686096191, 15.11717414855957, 13.60280704498291, 
606, 1223579291, 0.5558658, 0.56694514, -0.36484665, 0.4862853, 8.991289138793945, 5.089893817901611, 1.578220009803772, -22.12820053100586, 13.068904876708984, 11.669537544250488, 
607, 1223595958, 0.5594237, 0.56213975, -0.3678025, 0.48555696, 9.112483978271484, 4.249995708465576, 1.3352528810501099, -44.26559066772461, 11.454587936401367, 10.177950859069824, 
608, 1223612625, 0.5635552, 0.5569748, -0.37106237, 0.48424944, 9.340301513671875, 3.3183953762054443, 1.1467403173446655, -50.34605026245117, 10.691879272460938, 8.135055541992188, 
609, 1223629292, 0.567113, 0.55265254, -0.37326366, 0.48335543, 9.556468963623047, 2.691277503967285, 1.0573831796646118, -40.307220458984375, 12.10282039642334, 5.448188304901123, 
610, 1223645959, 0.5695908, 0.54976207, -0.37381852, 0.48330966, 9.619807243347168, 2.5795485973358154, 0.9940609931945801, -22.970802307128906, 14.214969635009766, 2.415949583053589, 
611, 1223662626, 0.5710119, 0.5483565, -0.37274057, 0.48406124, 9.495888710021973, 2.648005962371826, 1.0180931091308594, -5.6894636154174805, 15.97315788269043, -0.9414404034614563, 
612, 1223679293, 0.571738, 0.5480642, -0.37044746, 0.4852939, 9.262418746948242, 2.9266717433929443, 1.0558680295944214, 6.58048677444458, 17.07311248779297, -4.1750993728637695, 
613, 1223695960, 0.5722025, 0.5483999, -0.36759827, 0.48653212, 8.90599250793457, 3.173250913619995, 1.0422931909561157, 11.903393745422363, 16.518579483032227, -6.971961498260498, 
614, 1223712627, 0.57274985, 0.5489835, -0.36464474, 0.48745167, 8.566720008850098, 3.3209471702575684, 1.0773502588272095, 12.106705665588379, 15.109786987304688, -9.51875114440918, 
615, 1223729294, 0.57362396, 0.5494986, -0.3619641, 0.48784095, 8.191381454467773, 3.481984853744507, 1.1196486949920654, 8.358612060546875, 13.082329750061035, -11.493457794189453, 
616, 1223745961, 0.57499933, 0.5496454, -0.359852, 0.48761925, 7.844213962554932, 3.487525463104248, 1.0557445287704468, 1.5825848579406738, 11.014867782592773, -12.510913848876953, 
617, 1223762628, 0.5767653, 0.5494375, -0.3583402, 0.48688072, 7.5618438720703125, 3.3211872577667236, 1.0118290185928345, -4.587731838226318, 8.844279289245605, -12.706517219543457, 
618, 1223779295, 0.57868284, 0.5489478, -0.35734144, 0.48589066, 7.426086902618408, 3.253223180770874, 1.0069403648376465, -8.6173677444458, 7.176390171051025, -11.571578025817871, 
619, 1223795962, 0.58060867, 0.54815894, -0.3568199, 0.48486602, 7.414967060089111, 3.312467098236084, 1.0131709575653076, -11.52021312713623, 6.166532039642334, -9.191863059997559, 
620, 1223812629, 0.5824934, 0.5470208, -0.35676554, 0.48392975, 7.484975337982178, 3.3268320560455322, 1.0114786624908447, -14.102102279663086, 5.697960376739502, -6.075728416442871, 
621, 1223829296, 0.58423495, 0.5455867, -0.3570675, 0.48322618, 7.615524768829346, 3.3098843097686768, 1.0148563385009766, -15.359770774841309, 5.781349182128906, -2.59336519241333, 
622, 1223845963, 0.5857115, 0.5439834, -0.35753432, 0.4829013, 7.7592692375183105, 3.272268772125244, 1.0439927577972412, -14.670358657836914, 6.450678825378418, 0.8484469652175903, 
623, 1223862630, 0.58685356, 0.5423888, -0.3579293, 0.48301563, 7.910793781280518, 3.2059876918792725, 1.015937328338623, -12.069718360900879, 7.531432151794434, 3.444551706314087, 
624, 1223879297, 0.58756953, 0.5409757, -0.3581143, 0.48359248, 7.994991302490234, 3.146289348602295, 0.9664159417152405, -7.911363124847412, 8.454103469848633, 5.502058506011963, 
625, 1223895964, 0.58789355, 0.5398694, -0.3579585, 0.4845493, 8.06494140625, 3.131769895553589, 0.941818356513977, -3.149953842163086, 9.261274337768555, 6.321576118469238, 
626, 1223912631, 0.5879037, 0.53915197, -0.35736284, 0.4857739, 8.093560218811035, 3.089329719543457, 0.9602979421615601, 1.706856608390808, 9.967583656311035, 5.863197326660156, 
627, 1223929298, 0.58765537, 0.5389364, -0.356216, 0.4871539, 8.139951705932617, 3.0380027294158936, 0.9904225468635559, 6.917303085327148, 10.465956687927246, 4.083268642425537, 
628, 1223945965, 0.58724856, 0.53926647, -0.35448754, 0.48853812, 8.246973037719727, 3.004037857055664, 1.048112154006958, 11.665172576904297, 10.618958473205566, 1.1431598663330078, 
629, 1223962632, 0.58677286, 0.54012245, -0.3521364, 0.4898626, 8.747025489807129, 2.974712371826172, 1.1282391548156738, 15.986544609069824, 10.981701850891113, -2.4553067684173584, 
630, 1223979299, 0.58610463, 0.5416541, -0.34899324, 0.49121898, 8.935053825378418, 2.9271578788757324, 1.121647596359253, 22.17108154296875, 11.557795524597168, -6.253950119018555, 
631, 1223995966, 0.5851857, 0.5437338, -0.34538898, 0.49256253, 9.248470306396484, 3.132941722869873, 1.0849440097808838, 26.836030960083008, 10.921142578125, -8.492379188537598, 
632, 1224012633, 0.58408517, 0.5458693, -0.34202644, 0.4938513, 10.073217391967773, 3.5595853328704834, 1.1780502796173096, 26.78961181640625, 9.129718780517578, -7.327520847320557, 
633, 1224029300, 0.5829772, 0.54760724, -0.33934948, 0.49508163, 11.158166885375977, 3.9819328784942627, 1.381892442703247, 22.75293731689453, 7.4967498779296875, -4.027829170227051, 
634, 1224045967, 0.5819841, 0.5488913, -0.33730087, 0.49622712, 11.859996795654297, 4.0303215980529785, 1.509311318397522, 18.161527633666992, 6.476435661315918, -1.3340455293655396, 
635, 1224062634, 0.5808407, 0.5501796, -0.33548537, 0.4973693, 11.949418067932129, 3.684689521789551, 1.5070782899856567, 17.940462112426758, 5.175564765930176, 0.035550471395254135, 
636, 1224079301, 0.57942265, 0.5518642, -0.33353335, 0.4984686, 11.572946548461914, 3.463205575942993, 1.5352524518966675, 20.929420471191406, 3.577023506164551, -0.6306688189506531, 
637, 1224095968, 0.57806003, 0.5539469, -0.33141044, 0.49915585, 10.502606391906738, 3.397474765777588, 1.5586506128311157, 21.94426727294922, 1.4620137214660645, -4.0294671058654785, 
638, 1224112635, 0.57717484, 0.55609924, -0.32959488, 0.49898914, 9.63105583190918, 3.4476816654205322, 1.5189759731292725, 17.401086807250977, -2.1609528064727783, -8.052047729492188, 
639, 1224129302, 0.577137, 0.5577343, -0.32866645, 0.49781913, 9.553487777709961, 3.6338648796081543, 1.6031067371368408, 6.7913007736206055, -5.821045875549316, -10.375844955444336, 
640, 1224145969, 0.5779049, 0.5586369, -0.32836753, 0.4961107, 10.048940658569336, 3.3384687900543213, 2.0349395275115967, -2.5747246742248535, -6.055812835693359, -11.198859214782715, 
641, 1224162636, 0.57870466, 0.55946356, -0.3276163, 0.49474147, 10.708667755126953, 2.7704596519470215, 2.422624111175537, -0.6906660199165344, -2.630316734313965, -11.52867317199707, 
642, 1224179303, 0.579053, 0.56059, -0.32584733, 0.4942267, 11.390362739562988, 2.927577018737793, 2.439763307571411, 7.631640911102295, 2.6647591590881348, -11.19253158569336, 
643, 1224195970, 0.5791016, 0.5618055, -0.3232532, 0.49449313, 12.116082191467285, 3.1099913120269775, 2.3456954956054688, 13.695779800415039, 7.981132507324219, -10.455406188964844, 
644, 1224212637, 0.57881767, 0.56325775, -0.319799, 0.49541852, 12.379043579101562, 3.0166008472442627, 2.3061413764953613, 20.31442642211914, 12.404886245727539, -10.5614652633667, 
645, 1224229304, 0.578109, 0.56517136, -0.31550562, 0.4968174, 11.954092979431152, 2.7562899589538574, 2.3311610221862793, 27.69706916809082, 15.072120666503906, -11.509029388427734, 
646, 1224245971, 0.5770461, 0.56759787, -0.31057346, 0.4983922, 11.006950378417969, 2.661877155303955, 2.338041067123413, 33.67860412597656, 15.771530151367188, -13.211494445800781, 
647, 1224262638, 0.57596326, 0.570329, -0.3054708, 0.49967882, 9.961702346801758, 2.746241807937622, 2.263212203979492, 34.93719482421875, 14.234135627746582, -15.616097450256348, 
648, 1224279305, 0.57533514, 0.57289743, -0.3008727, 0.5002536, 9.078618049621582, 2.986781358718872, 2.1586620807647705, 29.283531188964844, 10.954690933227539, -17.688613891601562, 
649, 1224295972, 0.5756717, 0.57456887, -0.29770374, 0.49984547, 8.675813674926758, 3.364330768585205, 2.008870840072632, 14.988865852355957, 6.5054473876953125, -17.415193557739258, 
650, 1224312639, 0.57730323, 0.5747853, -0.2965618, 0.4983916, 8.781556129455566, 3.5051000118255615, 1.8108718395233154, -4.990325927734375, 1.9977797269821167, -15.020243644714355, 
651, 1224329306, 0.5800958, 0.5735374, -0.2973764, 0.4960957, 8.889838218688965, 3.4286766052246094, 1.6167991161346436, -23.811307907104492, -1.7141404151916504, -11.624217987060547, 
652, 1224345973, 0.5835208, 0.5711831, -0.29968014, 0.49340177, 9.080528259277344, 3.173621654510498, 1.4494028091430664, -36.61162567138672, -4.157313823699951, -7.23518180847168, 
