sep=,
DeviceTag:,L Foot - 2,,,,,,,,,,,,,,,,,
FirmwareVersion:,3.0.0,,,,,,,,,,,,,,,,,
AppVersion:,2023.6.1,,,,,,,,,,,,,,,,,
StartTime:,2024-05-25 15:19:41.000 +0200,,,,,,,,,,,,,,,,,
 2024,,,,,,,,,,,,,,,,,,,

PacketCounter,SampleTimeFine,Quat_W,Quat_X,Quat_Y,Quat_Z,Acc_X,Acc_Y,Acc_Z,Gyr_X,Gyr_Y,Gyr_Z,
0, 1140625395, 0.9370845, 0.20047359, -0.1848426, 0.21798207, 0.0, 0.0, 0.0, 0.0, 0.0, 0.0, 
1, 1140642062, 0.9370237, 0.20029224, -0.18492267, 0.2183424, 4.2806715965271, 2.9556210041046143, 8.327147483825684, -1.5220600366592407, 0.37706372141838074, 0.6071938276290894, 
2, 1140658729, 0.93695366, 0.20062979, -0.18509415, 0.21818778, 4.282045841217041, 2.9387621879577637, 8.343751907348633, -1.8294254541397095, 0.4925770163536072, 0.821098268032074, 
3, 1140675396, 0.9368955, 0.20086263, -0.185276, 0.21806909, 4.2699666023254395, 2.9307055473327637, 8.335644721984863, -1.9066224098205566, 0.3088059425354004, 1.060231328010559, 
4, 1140692063, 0.93678343, 0.20099819, -0.1852902, 0.21841264, 4.312028408050537, 2.8736941814422607, 8.332365036010742, -1.9016534090042114, 0.47582635283470154, 1.190753698348999, 
5, 1140708730, 0.93663985, 0.20100442, -0.1854071, 0.21892287, 4.270514011383057, 2.8064651489257812, 8.343120574951172, -1.121336817741394, 0.4713313579559326, 1.0665063858032227, 
6, 1140725397, 0.936555, 0.20081507, -0.18549743, 0.21938306, 4.268392086029053, 2.8095788955688477, 8.356281280517578, -0.5369189977645874, 0.40800389647483826, 0.8716321587562561, 
7, 1140742064, 0.9364244, 0.20071752, -0.18549466, 0.22003102, 4.268171310424805, 2.7527711391448975, 8.344578742980957, 0.33669811487197876, 0.1544637829065323, 0.5176005959510803, 
8, 1140758731, 0.93630964, 0.20062765, -0.18547477, 0.22061747, 4.269196510314941, 2.8293709754943848, 8.348000526428223, 1.0261536836624146, 0.14105555415153503, 0.2401510775089264, 
9, 1140775398, 0.93621653, 0.20058396, -0.18542115, 0.22109672, 4.2598443031311035, 2.8553354740142822, 8.32460880279541, 1.1221883296966553, 0.2606284022331238, 0.22480906546115875, 
10, 1140792065, 0.93621397, 0.20050362, -0.18546942, 0.22114009, 4.26625919342041, 2.9063916206359863, 8.34952163696289, 0.9030333161354065, 0.02637467533349991, 0.2956666052341461, 
11, 1140808732, 0.9361965, 0.20052613, -0.1854976, 0.22116995, 4.292912006378174, 2.8228299617767334, 8.35319709777832, 1.0905566215515137, -0.10989128053188324, 0.28823888301849365, 
12, 1140825399, 0.9361383, 0.20063424, -0.18546514, 0.22134528, 4.289602279663086, 2.862661123275757, 8.337732315063477, 1.414621353149414, -0.02143782563507557, -0.029480217024683952, 
13, 1140842066, 0.93602157, 0.20079969, -0.18536344, 0.22177364, 4.2823076248168945, 2.9090611934661865, 8.337597846984863, 1.4130975008010864, 0.17098397016525269, 0.16739818453788757, 
14, 1140858733, 0.93592215, 0.20096304, -0.1852663, 0.2221265, 4.297447681427002, 2.8664283752441406, 8.332952499389648, 1.311491847038269, 0.24481260776519775, 0.2862282991409302, 
15, 1140875400, 0.9360243, 0.20094372, -0.18532865, 0.22166054, 4.281218528747559, 2.863076686859131, 8.334051132202148, 1.0773532390594482, 0.39188069105148315, 0.16892215609550476, 
16, 1140892067, 0.93590796, 0.20112693, -0.18519379, 0.22209828, 4.278564453125, 2.835245132446289, 8.341825485229492, 1.189626693725586, 0.35241153836250305, 0.12064222246408463, 
17, 1140908734, 0.9358687, 0.20123844, -0.18510199, 0.22223924, 4.261205196380615, 2.879331350326538, 8.349580764770508, 1.09479558467865, 0.45336395502090454, -0.03923865407705307, 
18, 1140925401, 0.9356391, 0.20148733, -0.18487334, 0.22316861, 4.260351181030273, 2.9004998207092285, 8.345391273498535, 0.9361825585365295, 0.25525614619255066, 0.16963288187980652, 
19, 1140942068, 0.9352217, 0.20188451, -0.1844854, 0.22487362, 4.275419235229492, 2.8560001850128174, 8.344847679138184, 0.8188187479972839, 0.16606633365154266, 0.19248582422733307, 
20, 1140958735, 0.93543005, 0.20177887, -0.18463102, 0.22398111, 4.283244609832764, 2.8813531398773193, 8.338162422180176, 0.9273014068603516, 0.32244470715522766, 0.13106660544872284, 
21, 1140975402, 0.9354496, 0.20180012, -0.1845951, 0.22390957, 4.264026641845703, 2.903440237045288, 8.314156532287598, 0.7085433006286621, 0.4482029974460602, 0.23242883384227753, 
22, 1140992069, 0.93545157, 0.20183794, -0.18452737, 0.22392328, 4.283764362335205, 2.8709728717803955, 8.336313247680664, 0.6406823992729187, 0.5171139240264893, 0.16759029030799866, 
23, 1141008736, 0.9352955, 0.20203757, -0.18435031, 0.22453976, 4.232667922973633, 2.8023681640625, 8.332306861877441, 0.851897656917572, 0.2741263508796692, 0.05977364629507065, 
24, 1141025403, 0.93530405, 0.20228, -0.18437123, 0.22426882, 4.256279468536377, 2.7253737449645996, 8.370599746704102, 2.113105297088623, -0.36672264337539673, -0.6398820877075195, 
25, 1141042070, 0.9352406, 0.20290431, -0.18436874, 0.22397132, 4.263318061828613, 2.6724700927734375, 8.392049789428711, 4.616272449493408, -1.0662566423416138, -1.5928921699523926, 
26, 1141058737, 0.9352235, 0.20355247, -0.1844076, 0.22342224, 4.284415245056152, 2.8923988342285156, 8.352132797241211, 5.254004001617432, -1.1369478702545166, -1.7577228546142578, 
27, 1141075404, 0.9348553, 0.20454825, -0.18411846, 0.22429055, 4.2727274894714355, 2.852902412414551, 8.354713439941406, 5.640179634094238, -1.1763402223587036, -1.9671450853347778, 
28, 1141092071, 0.93478173, 0.2053122, -0.1840814, 0.22392926, 4.289509296417236, 2.966212034225464, 8.336844444274902, 5.718963623046875, -1.105303168296814, -2.0353643894195557, 
29, 1141108738, 0.93467396, 0.20603839, -0.18399374, 0.2237838, 4.293010234832764, 2.985367774963379, 8.31712532043457, 5.197695255279541, -0.8829210996627808, -1.8143911361694336, 
30, 1141125405, 0.9346368, 0.206661, -0.18396811, 0.22338589, 4.2651543617248535, 2.9025487899780273, 8.302630424499512, 4.864870071411133, -0.7529878616333008, -1.5610301494598389, 
31, 1141142072, 0.93453413, 0.20735024, -0.18383284, 0.22328757, 4.307345867156982, 3.003467082977295, 8.292986869812012, 4.973877906799316, -0.477190226316452, -1.6387903690338135, 
32, 1141158739, 0.9344514, 0.20793132, -0.18372104, 0.22318521, 4.269504070281982, 3.030383348464966, 8.324936866760254, 4.291029453277588, -0.3399573564529419, -1.2783043384552002, 
33, 1141175406, 0.9344699, 0.20831533, -0.18373546, 0.22273803, 4.259317398071289, 3.066624641418457, 8.308774948120117, 3.4484360218048096, -0.3536089360713959, -0.8127421736717224, 
34, 1141192073, 0.9344498, 0.20858605, -0.18369856, 0.22259946, 4.284043312072754, 3.0634374618530273, 8.305157661437988, 2.317155361175537, -0.08653250336647034, -0.39102908968925476, 
35, 1141208740, 0.93441993, 0.20875518, -0.18364337, 0.22261178, 4.274675369262695, 3.0248053073883057, 8.30127239227295, 1.4596613645553589, 0.10289262235164642, -0.08518783748149872, 
36, 1141225407, 0.9344088, 0.20887159, -0.18361495, 0.22257297, 4.271773338317871, 2.9883017539978027, 8.313864707946777, 1.1711597442626953, 0.10293103009462357, 0.05333204194903374, 
37, 1141242074, 0.93458545, 0.20880237, -0.18378663, 0.22175321, 4.282735347747803, 3.0040011405944824, 8.311701774597168, 0.9613789916038513, 0.014592834748327732, 0.19418908655643463, 
38, 1141258741, 0.9347209, 0.20874327, -0.18392657, 0.22112042, 4.281864643096924, 3.001221179962158, 8.275830268859863, 0.7499590516090393, -0.018261855468153954, 0.20346087217330933, 
39, 1141275408, 0.9347701, 0.2086951, -0.1839796, 0.22091348, 4.2848005294799805, 3.0258147716522217, 8.283915519714355, 0.3072435259819031, 0.11019223183393478, 0.4080807566642761, 
40, 1141292075, 0.9347957, 0.20862119, -0.18398751, 0.2208688, 4.287668228149414, 3.0032098293304443, 8.286920547485352, 0.003809889080002904, 0.3371719419956207, 0.620051383972168, 
41, 1141308742, 0.9347921, 0.20850065, -0.18396607, 0.22101551, 4.302704334259033, 3.0250842571258545, 8.304984092712402, -0.5511468052864075, 0.43003079295158386, 0.7823078036308289, 
42, 1141325409, 0.9348334, 0.20826499, -0.18395905, 0.22106898, 4.276549339294434, 3.0420265197753906, 8.283038139343262, -1.098848819732666, 0.7223358154296875, 1.068273663520813, 
43, 1141342076, 0.9348873, 0.20791307, -0.18394311, 0.22118519, 4.3020405769348145, 3.024052858352661, 8.30504035949707, -1.9137167930603027, 0.9751074910163879, 1.337258219718933, 
44, 1141358743, 0.934775, 0.20763522, -0.18377878, 0.22205627, 4.269790172576904, 3.008943557739258, 8.310981750488281, -2.342499256134033, 1.0586562156677246, 1.6454048156738281, 
45, 1141375410, 0.9348947, 0.20707582, -0.18386604, 0.22200206, 4.27255392074585, 2.981332778930664, 8.331305503845215, -3.055710554122925, 0.941490888595581, 1.8516126871109009, 
46, 1141392077, 0.93501997, 0.20649876, -0.1839482, 0.22194411, 4.277288436889648, 2.9349212646484375, 8.322819709777832, -3.2612905502319336, 0.9386221170425415, 1.669519066810608, 
47, 1141408744, 0.93511903, 0.20597155, -0.18404119, 0.22193968, 4.272976398468018, 2.893139600753784, 8.337068557739258, -3.0310962200164795, 0.6989513635635376, 1.6377078294754028, 
48, 1141425411, 0.93519944, 0.2055032, -0.1841131, 0.22197486, 4.283609867095947, 2.8696529865264893, 8.335895538330078, -2.76125431060791, 0.617541491985321, 1.3721044063568115, 
49, 1141442078, 0.9351577, 0.20514488, -0.18406194, 0.22252376, 4.265922546386719, 2.917890787124634, 8.33287239074707, -2.702921152114868, 0.6514270305633545, 1.2908225059509277, 
50, 1141458745, 0.935247, 0.20466809, -0.18413237, 0.22252966, 4.277424335479736, 2.923412799835205, 8.322076797485352, -2.694020986557007, 0.7113608121871948, 1.4626325368881226, 
51, 1141475412, 0.9353437, 0.2041752, -0.18417415, 0.22254138, 4.278329372406006, 2.877254009246826, 8.332296371459961, -2.7633540630340576, 0.9409785270690918, 1.4663076400756836, 
52, 1141492079, 0.9353463, 0.20378128, -0.18413335, 0.22292536, 4.257063388824463, 2.8520288467407227, 8.359511375427246, -2.5110435485839844, 0.9476251602172852, 1.5797336101531982, 
53, 1141508746, 0.9354307, 0.20335823, -0.18416458, 0.2229312, 4.266917705535889, 2.8007969856262207, 8.361024856567383, -2.2600135803222656, 0.8831194639205933, 1.3639979362487793, 
54, 1141525413, 0.9354929, 0.2030266, -0.18419339, 0.22294916, 4.249510288238525, 2.799146890640259, 8.38276481628418, -1.7298049926757812, 0.662165105342865, 1.1165857315063477, 
55, 1141542080, 0.9355379, 0.2027737, -0.18422662, 0.22296274, 4.254537582397461, 2.80926775932312, 8.377420425415039, -1.2586592435836792, 0.4332067668437958, 0.8912258744239807, 
56, 1141558747, 0.93544203, 0.20273297, -0.18415663, 0.22345953, 4.278979778289795, 2.754835844039917, 8.380114555358887, -0.5482526421546936, 0.15431012213230133, 0.6230096817016602, 
57, 1141575414, 0.9354511, 0.20271444, -0.18421225, 0.22339211, 4.2536301612854, 2.793224811553955, 8.355958938598633, 0.24900023639202118, -0.19068652391433716, 0.2707453966140747, 
58, 1141592081, 0.93545866, 0.20271492, -0.18427767, 0.22330622, 4.268400192260742, 2.856534957885742, 8.346893310546875, 0.4372279644012451, -0.2507867217063904, 0.3327537775039673, 
59, 1141608748, 0.9354041, 0.20274667, -0.18426861, 0.22351292, 4.29299783706665, 2.8257973194122314, 8.327295303344727, 0.2998286187648773, -0.10846977680921555, 0.37954816222190857, 
60, 1141625415, 0.93545175, 0.20270064, -0.18433015, 0.22330506, 4.280730724334717, 2.830782651901245, 8.338735580444336, 0.4435158371925354, 0.08016133308410645, 0.5201106071472168, 
61, 1141642082, 0.93548137, 0.20266396, -0.18437119, 0.22317986, 4.283742904663086, 2.8413286209106445, 8.346650123596191, 0.40917566418647766, 0.1171909049153328, 0.5379435420036316, 
62, 1141658749, 0.93551505, 0.20261866, -0.18440169, 0.22305472, 4.27536678314209, 2.7950634956359863, 8.35501480102539, 0.42001625895500183, 0.2420848309993744, 0.6260063648223877, 
63, 1141675416, 0.93557036, 0.20257862, -0.1844634, 0.22280775, 4.251548767089844, 2.81105637550354, 8.36117935180664, 0.5895274877548218, 0.13885924220085144, 0.5521329045295715, 
64, 1141692083, 0.93561643, 0.20255902, -0.18453074, 0.22257656, 4.260921478271484, 2.797942876815796, 8.375297546386719, 0.7506313323974609, 0.07973232865333557, 0.6518303751945496, 
65, 1141708750, 0.9355931, 0.20263712, -0.18453462, 0.22260046, 4.278572082519531, 2.7834746837615967, 8.358412742614746, 1.0318396091461182, 0.008522626012563705, 0.4854182302951813, 
66, 1141725417, 0.9355605, 0.202716, -0.18454419, 0.22265749, 4.224672317504883, 2.869961977005005, 8.361200332641602, 0.9840207695960999, -0.0657862201333046, 0.5094045996665955, 
67, 1141742084, 0.93559754, 0.2027312, -0.18465132, 0.22239912, 4.295514106750488, 2.802337408065796, 8.357462882995605, 0.9823942184448242, -0.23648206889629364, 0.6527460217475891, 
68, 1141758751, 0.9355568, 0.20286173, -0.1846638, 0.22244042, 4.285238265991211, 2.7719810009002686, 8.336533546447754, 1.3288956880569458, -0.1846291571855545, 0.4006914794445038, 
69, 1141775418, 0.9355663, 0.20295714, -0.18470526, 0.22227918, 4.261710166931152, 2.859218120574951, 8.348140716552734, 1.3923767805099487, -0.0857769325375557, 0.37985557317733765, 
70, 1141792085, 0.935642, 0.20294882, -0.18481296, 0.22187857, 4.2959699630737305, 2.8262572288513184, 8.353689193725586, 1.025858998298645, -0.060074582695961, 0.5200722217559814, 
71, 1141808752, 0.9357123, 0.20293593, -0.18487571, 0.22154154, 4.266054153442383, 2.825579881668091, 8.330810546875, 0.9063245058059692, 0.14871372282505035, 0.38933223485946655, 
72, 1141825419, 0.93569434, 0.2029631, -0.18487869, 0.22158988, 4.247794151306152, 2.8568854331970215, 8.376049995422363, 0.6263905763626099, 0.050822000950574875, 0.4458850622177124, 
73, 1141842086, 0.93564916, 0.20299141, -0.18487638, 0.221757, 4.27794075012207, 2.8043015003204346, 8.352442741394043, 0.49964606761932373, -0.018415529280900955, 0.5976402163505554, 
74, 1141858753, 0.9355559, 0.2030867, -0.18483405, 0.222098, 4.267983913421631, 2.796814441680908, 8.359664916992188, 0.6913571357727051, -0.08687826991081238, 0.4950742721557617, 
75, 1141875420, 0.93549937, 0.20321241, -0.18487754, 0.2221847, 4.258240699768066, 2.766998767852783, 8.378521919250488, 1.1474874019622803, -0.4729000926017761, 0.3635082542896271, 
76, 1141892087, 0.9354972, 0.2033585, -0.18495536, 0.22199552, 4.308225631713867, 2.7679364681243896, 8.370491027832031, 1.6289740800857544, -0.4892794191837311, 0.1070546880364418, 
77, 1141908754, 0.93541974, 0.20360756, -0.18492845, 0.22211558, 4.273952960968018, 2.803570032119751, 8.333127975463867, 1.9101758003234863, -0.3473210036754608, -0.101490318775177, 
78, 1141925421, 0.93542296, 0.20381878, -0.18501663, 0.22183521, 4.268899917602539, 2.751539945602417, 8.354732513427734, 2.1107876300811768, -0.6419951319694519, -0.17971152067184448, 
79, 1141942088, 0.93527484, 0.20428136, -0.18496354, 0.22207852, 4.279563903808594, 2.7641468048095703, 8.369006156921387, 3.040233612060547, -0.8038673400878906, -0.5912306904792786, 
80, 1141958755, 0.9352097, 0.2048515, -0.18502761, 0.22177348, 4.2522292137146, 2.6556828022003174, 8.364383697509766, 4.408746719360352, -1.2468904256820679, -0.9871647953987122, 
81, 1141975422, 0.9350322, 0.20575418, -0.18501604, 0.22169615, 4.298081874847412, 2.7170915603637695, 8.390774726867676, 6.2643609046936035, -1.688197135925293, -1.570993423461914, 
82, 1141992089, 0.9349625, 0.20663261, -0.18507332, 0.22112451, 4.306249618530273, 2.869872808456421, 8.342727661132812, 6.746084213256836, -1.6103346347808838, -1.8719682693481445, 
83, 1142008756, 0.93477315, 0.20756541, -0.18497826, 0.22113109, 4.295705318450928, 2.9241435527801514, 8.29895305633545, 6.36830997467041, -1.3419647216796875, -1.8722500801086426, 
84, 1142025423, 0.9347139, 0.20830697, -0.18500185, 0.2206641, 4.324748992919922, 2.9442734718322754, 8.2949857711792, 5.7620697021484375, -1.2082407474517822, -1.6272004842758179, 
85, 1142042090, 0.934731, 0.20890039, -0.18506446, 0.21997681, 4.2903242111206055, 2.9644670486450195, 8.294244766235352, 5.121868133544922, -0.9053193926811218, -1.4373208284378052, 
86, 1142058757, 0.9345755, 0.20955202, -0.18499386, 0.22007746, 4.310542106628418, 2.946460723876953, 8.293378829956055, 4.509443283081055, -0.9463894367218018, -1.0820598602294922, 
87, 1142075424, 0.93447006, 0.2100995, -0.1849378, 0.220051, 4.310853481292725, 2.9877123832702637, 8.296103477478027, 4.02560567855835, -0.6898908615112305, -0.9746400713920593, 
88, 1142092091, 0.9344248, 0.21049312, -0.18492803, 0.21987456, 4.299624443054199, 2.993690252304077, 8.291458129882812, 3.2383220195770264, -0.5028797388076782, -0.7114951610565186, 
89, 1142108758, 0.93437177, 0.21083362, -0.18490389, 0.2197938, 4.289833068847656, 2.9350924491882324, 8.289144515991211, 2.7565667629241943, -0.40945103764533997, -0.6004320979118347, 
90, 1142125425, 0.9344304, 0.21116169, -0.1850018, 0.21914604, 4.305756092071533, 2.8750863075256348, 8.304335594177246, 3.3800058364868164, -0.5915637016296387, -0.8225774168968201, 
91, 1142142092, 0.93435925, 0.21163046, -0.18498626, 0.21901079, 4.318731784820557, 2.9664146900177, 8.288199424743652, 3.65281343460083, -0.6796331405639648, -0.8713570237159729, 
92, 1142158759, 0.9342255, 0.21208401, -0.1848687, 0.21924174, 4.300294876098633, 3.0451738834381104, 8.283447265625, 3.1107325553894043, -0.3764426112174988, -0.7716081142425537, 
93, 1142175426, 0.93427575, 0.21232705, -0.1849757, 0.21870087, 4.302440643310547, 2.9568796157836914, 8.296846389770508, 2.7121798992156982, -0.5656179785728455, -0.5332947969436646, 
94, 1142192093, 0.9342489, 0.21261807, -0.18498579, 0.21852426, 4.321537971496582, 2.993595838546753, 8.285754203796387, 2.5713932514190674, -0.42515799403190613, -0.528069794178009, 
95, 1142208760, 0.93422765, 0.21287645, -0.18497707, 0.21837093, 4.317293643951416, 2.9878175258636475, 8.27170181274414, 2.333899736404419, -0.27422237396240234, -0.5410555005073547, 
96, 1142225427, 0.9342827, 0.21304548, -0.18504317, 0.21791413, 4.315584659576416, 2.968261957168579, 8.27953052520752, 2.1240932941436768, -0.2613263726234436, -0.5206549763679504, 
97, 1142242094, 0.93423235, 0.21328212, -0.18499272, 0.21794137, 4.32120418548584, 2.990771770477295, 8.279533386230469, 1.991508960723877, -0.13815487921237946, -0.42017632722854614, 
98, 1142258761, 0.93427366, 0.21343015, -0.1850168, 0.21759927, 4.284372329711914, 2.9717798233032227, 8.28217887878418, 1.8792804479599, -0.06001054868102074, -0.45915889739990234, 
99, 1142275428, 0.9342213, 0.21375963, -0.18497016, 0.21753956, 4.302493572235107, 2.8940460681915283, 8.316810607910156, 2.689615249633789, -0.28385916352272034, -0.6951223015785217, 
100, 1142292095, 0.93413484, 0.2142067, -0.18489465, 0.21753533, 4.312763690948486, 2.9689669609069824, 8.261091232299805, 3.3729939460754395, -0.4204452335834503, -0.9644718170166016, 
101, 1142308762, 0.934126, 0.21464692, -0.18489973, 0.21713445, 4.31841516494751, 2.9397060871124268, 8.269933700561523, 3.8039662837982178, -0.5283132195472717, -1.1947941780090332, 
102, 1142325429, 0.93400604, 0.21521558, -0.18475632, 0.21720959, 4.321204662322998, 2.9962878227233887, 8.277949333190918, 4.069634437561035, -0.34840959310531616, -1.3410170078277588, 
103, 1142342096, 0.93390274, 0.21576267, -0.18461616, 0.21722999, 4.307034015655518, 3.026608467102051, 8.260420799255371, 3.956470251083374, -0.3171428442001343, -1.4628499746322632, 
104, 1142358763, 0.93387514, 0.2162476, -0.18450315, 0.21696277, 4.329074859619141, 2.997258186340332, 8.292228698730469, 3.912153959274292, -0.08056475222110748, -1.644604206085205, 
105, 1142375430, 0.93378747, 0.21683653, -0.184313, 0.216914, 4.320364952087402, 2.9853038787841797, 8.281311988830566, 4.28990364074707, -0.06860362738370895, -1.9001296758651733, 
106, 1142392097, 0.9337475, 0.21737424, -0.18412508, 0.21670736, 4.316675662994385, 3.0592970848083496, 8.26137924194336, 4.2046003341674805, 0.19014230370521545, -1.9522770643234253, 
107, 1142408764, 0.9337025, 0.2179199, -0.18391061, 0.21653488, 4.310624122619629, 3.0290451049804688, 8.235943794250488, 4.246394157409668, 0.3168547451496124, -1.9698411226272583, 
108, 1142425431, 0.9336668, 0.21844617, -0.18365519, 0.21637554, 4.304988384246826, 3.104631185531616, 8.255682945251465, 4.1781744956970215, 0.6334021091461182, -1.9629188776016235, 
109, 1142442098, 0.93368405, 0.21890272, -0.18348193, 0.21598682, 4.288254261016846, 3.0687167644500732, 8.259507179260254, 4.025157451629639, 0.5211095809936523, -1.8110355138778687, 
110, 1142458765, 0.93361074, 0.21941361, -0.18322828, 0.21600081, 4.299887657165527, 3.1471376419067383, 8.250631332397461, 3.8359313011169434, 0.46075332164764404, -1.7865499258041382, 
111, 1142475432, 0.93370974, 0.21973857, -0.18316585, 0.21529461, 4.2736616134643555, 3.1033358573913574, 8.254175186157227, 3.5221564769744873, 0.40286222100257874, -1.6849573850631714, 
112, 1142492099, 0.9336843, 0.22019324, -0.18299933, 0.21508178, 4.270555019378662, 3.0856034755706787, 8.267395973205566, 3.6938183307647705, 0.23121222853660583, -1.7759076356887817, 
113, 1142508766, 0.9336089, 0.22070436, -0.18285267, 0.21500936, 4.2174835205078125, 3.130511999130249, 8.260481834411621, 3.858764410018921, -0.1582096368074417, -1.6595876216888428, 
114, 1142525433, 0.93348694, 0.2212695, -0.18272354, 0.21506824, 4.27640962600708, 3.129978656768799, 8.23974323272705, 4.045013904571533, -0.5054987072944641, -1.5048037767410278, 
115, 1142542100, 0.9334878, 0.22172055, -0.18272689, 0.21459611, 4.2680768966674805, 3.1366922855377197, 8.246644020080566, 3.973823308944702, -0.5273334383964539, -1.4853379726409912, 
116, 1142558767, 0.93342084, 0.22223738, -0.18263589, 0.21443003, 4.288961887359619, 3.133627414703369, 8.245987892150879, 4.064492225646973, -0.3866749405860901, -1.508844256401062, 
117, 1142575434, 0.93332386, 0.2227644, -0.18251571, 0.21440749, 4.283824443817139, 3.1615781784057617, 8.236251831054688, 3.9710757732391357, -0.3682977557182312, -1.4264991283416748, 
118, 1142592101, 0.93327266, 0.2232682, -0.18243182, 0.21417788, 4.289925575256348, 3.137683629989624, 8.220328330993652, 4.05872917175293, -0.3456498086452484, -1.5641355514526367, 
119, 1142608768, 0.9332234, 0.22379938, -0.18238099, 0.21388166, 4.275856971740723, 3.1529769897460938, 8.247946739196777, 4.221933841705322, -0.6107028722763062, -1.762480616569519, 
120, 1142625435, 0.9330881, 0.22440377, -0.18224563, 0.21395414, 4.2689528465271, 3.201812267303467, 8.19528865814209, 4.211509704589844, -0.6579263210296631, -1.8061820268630981, 
121, 1142642102, 0.9331303, 0.2247994, -0.18227844, 0.21332562, 4.291750907897949, 3.20489239692688, 8.22802448272705, 3.812494993209839, -0.4599912464618683, -1.5772299766540527, 
122, 1142658769, 0.93312734, 0.22518906, -0.18228233, 0.2129241, 4.289342403411865, 3.2510478496551514, 8.206238746643066, 3.5251076221466064, -0.48495084047317505, -1.3343061208724976, 
123, 1142675436, 0.9331273, 0.22552904, -0.18233341, 0.21251981, 4.265842914581299, 3.2461941242218018, 8.197835922241211, 3.2473058700561523, -0.6188731789588928, -1.0117080211639404, 
124, 1142692103, 0.9330879, 0.22591005, -0.18236843, 0.2122579, 4.274398326873779, 3.2111759185791016, 8.230494499206543, 3.321044683456421, -0.7689188122749329, -0.9956040382385254, 
125, 1142708770, 0.93304217, 0.22630213, -0.18239193, 0.21202157, 4.29529333114624, 3.2292165756225586, 8.219443321228027, 3.3971915245056152, -0.7205235958099365, -0.9554303288459778, 
126, 1142725437, 0.9329819, 0.22665052, -0.18238059, 0.21192409, 4.294944763183594, 3.2472238540649414, 8.20216178894043, 3.0144357681274414, -0.5215002298355103, -0.7284764051437378, 
127, 1142742104, 0.93299633, 0.22688106, -0.18243375, 0.21156761, 4.282546520233154, 3.2574808597564697, 8.203449249267578, 2.6759896278381348, -0.3198898732662201, -0.4566360414028168, 
128, 1142758771, 0.93284345, 0.22722428, -0.18229507, 0.2119924, 4.292190074920654, 3.2397544384002686, 8.193138122558594, 2.450981855392456, -0.22126169502735138, -0.34150052070617676, 
129, 1142775438, 0.9327983, 0.22746702, -0.18231158, 0.21191669, 4.28349494934082, 3.250420093536377, 8.202993392944336, 2.4013125896453857, -0.42681005597114563, -0.2771166265010834, 
130, 1142792105, 0.9326147, 0.22781645, -0.18215373, 0.21248475, 4.2930450439453125, 3.273242235183716, 8.189006805419922, 2.4005181789398193, -0.2105364054441452, -0.09009267389774323, 
131, 1142808772, 0.93260205, 0.22799304, -0.1821605, 0.21234484, 4.288071155548096, 3.2504444122314453, 8.177655220031738, 2.150608777999878, -0.10301429033279419, -0.14588995277881622, 
132, 1142825439, 0.93258166, 0.22815938, -0.18222097, 0.21220371, 4.258255481719971, 3.2795920372009277, 8.207695007324219, 2.0843873023986816, -0.3910866975784302, 0.07087033987045288, 
133, 1142842106, 0.9325695, 0.22832946, -0.18233798, 0.21197398, 4.2876296043396, 3.239347457885742, 8.205183029174805, 2.187593460083008, -0.6665641665458679, 0.10492242872714996, 
134, 1142858773, 0.93251437, 0.22854911, -0.18239455, 0.21193081, 4.298979759216309, 3.264890193939209, 8.190760612487793, 2.2462081909179688, -0.6288750767707825, -0.04414989426732063, 
135, 1142875440, 0.93255794, 0.22866932, -0.18255049, 0.21147434, 4.301127910614014, 3.2880520820617676, 8.179229736328125, 2.201693296432495, -0.5253356099128723, 0.10643357783555984, 
136, 1142892107, 0.9325097, 0.22884758, -0.1825975, 0.21145396, 4.274110317230225, 3.279973030090332, 8.184215545654297, 2.0489518642425537, -0.4565015733242035, 0.17234785854816437, 
137, 1142908774, 0.9325038, 0.2289524, -0.1827038, 0.21127461, 4.2772626876831055, 3.3065567016601562, 8.192814826965332, 1.823041319847107, -0.45097556710243225, 0.4022282063961029, 
138, 1142925441, 0.93239605, 0.22913249, -0.18273662, 0.2115266, 4.324456214904785, 3.2476725578308105, 8.182920455932617, 1.7627171277999878, -0.6289005875587463, 0.524496853351593, 
139, 1142942108, 0.93242496, 0.2292026, -0.18285374, 0.21122171, 4.310129165649414, 3.25158953666687, 8.169054985046387, 1.7918771505355835, -0.295775443315506, 0.36783677339553833, 
140, 1142958775, 0.93245417, 0.22924533, -0.1829561, 0.2109575, 4.306339740753174, 3.293447732925415, 8.184341430664062, 1.5873022079467773, -0.19095547497272491, 0.43492284417152405, 
141, 1142975442, 0.9324547, 0.22926491, -0.18300064, 0.21089455, 4.322507858276367, 3.292480230331421, 8.172199249267578, 1.2167247533798218, 0.007037089206278324, 0.5588114261627197, 
142, 1142992109, 0.9326134, 0.2291005, -0.1831866, 0.21020949, 4.300828456878662, 3.3015952110290527, 8.169803619384766, 0.8353068828582764, 0.2140965461730957, 0.6175349950790405, 
143, 1143008776, 0.93260074, 0.2290309, -0.18316416, 0.2103607, 4.305285930633545, 3.310800790786743, 8.175407409667969, 0.4371255338191986, 0.39025428891181946, 0.8160398006439209, 
144, 1143025443, 0.93266547, 0.22883168, -0.18323787, 0.21022645, 4.30378532409668, 3.2737340927124023, 8.184043884277344, -0.08087209612131119, 0.36840665340423584, 0.9303492307662964, 
145, 1143042110, 0.93275607, 0.22857478, -0.18332633, 0.21002707, 4.313675880432129, 3.292757034301758, 8.198671340942383, -0.3255438208580017, 0.4931853413581848, 1.071366548538208, 
146, 1143058777, 0.9328329, 0.2282549, -0.18333209, 0.21002878, 4.2950849533081055, 3.344494104385376, 8.157493591308594, -0.9193550944328308, 0.9445644021034241, 1.2122938632965088, 
147, 1143075444, 0.9328809, 0.22785221, -0.18331373, 0.21026824, 4.307252407073975, 3.304023265838623, 8.192178726196289, -1.725943684577942, 1.0226638317108154, 1.6128443479537964, 
148, 1143092111, 0.93293726, 0.22747879, -0.1833467, 0.21039371, 4.289639472961426, 3.148530960083008, 8.246397972106934, -1.4248154163360596, 0.7584049105644226, 1.554844617843628, 
149, 1143108778, 0.9329798, 0.22721726, -0.18337871, 0.21046, 4.291682720184326, 3.1894891262054443, 8.228361129760742, -0.6848195791244507, 0.53609299659729, 1.1705836057662964, 
150, 1143125445, 0.93298775, 0.2270139, -0.18340126, 0.21062477, 4.293101787567139, 3.2446370124816895, 8.211230278015137, -0.4964829385280609, 0.3181225061416626, 1.0241236686706543, 
151, 1143142112, 0.93306077, 0.22670975, -0.18348284, 0.21055767, 4.304803848266602, 3.279130458831787, 8.177546501159668, -0.8230577111244202, 0.42460736632347107, 1.1609724760055542, 
152, 1143158779, 0.93312925, 0.22632651, -0.18350807, 0.21064422, 4.2908196449279785, 3.2815632820129395, 8.186017036437988, -1.4209671020507812, 0.8419278264045715, 1.4549551010131836, 
153, 1143175446, 0.9331554, 0.22597516, -0.18353425, 0.21088244, 4.300375938415527, 3.159691572189331, 8.213300704956055, -1.463548183441162, 0.572796106338501, 1.5000910758972168, 
154, 1143192113, 0.93325716, 0.2256381, -0.18364608, 0.21069627, 4.314079761505127, 3.166395902633667, 8.212514877319336, -0.8796297907829285, 0.43423134088516235, 1.1861048936843872, 
155, 1143208780, 0.9332602, 0.22539467, -0.18363914, 0.2109488, 4.311881065368652, 3.215104579925537, 8.189064025878906, -0.8215849995613098, 0.4821718633174896, 1.1244360208511353, 
156, 1143225447, 0.9332874, 0.22506163, -0.18364137, 0.2111822, 4.288647174835205, 3.2539799213409424, 8.208708763122559, -1.282658338546753, 0.7046117186546326, 1.4327423572540283, 
157, 1143242114, 0.9334856, 0.22453187, -0.18382506, 0.21070927, 4.309696197509766, 3.168477773666382, 8.21664047241211, -1.6196701526641846, 0.7953063249588013, 1.6275269985198975, 
158, 1143258781, 0.9335744, 0.2241303, -0.183863, 0.2107107, 4.307455062866211, 3.1247620582580566, 8.234587669372559, -1.3986390829086304, 0.902399480342865, 1.4209285974502563, 
159, 1143275448, 0.93354356, 0.22386333, -0.1837603, 0.21122037, 4.314552307128906, 3.15775203704834, 8.231624603271484, -1.1313576698303223, 0.9344536662101746, 1.3637993335723877, 
160, 1143292115, 0.9336318, 0.22341529, -0.18375814, 0.21130653, 4.283777713775635, 3.244675397872925, 8.215925216674805, -1.7630438804626465, 1.1488064527511597, 1.4920294284820557, 
161, 1143308782, 0.9337385, 0.2227908, -0.18375292, 0.21149844, 4.320627689361572, 3.291045665740967, 8.2058744430542, -2.9702727794647217, 1.4661734104156494, 2.005704879760742, 
162, 1143325449, 0.9338243, 0.22201946, -0.18371737, 0.21196139, 4.2871270179748535, 3.2238759994506836, 8.225117683410645, -4.203607559204102, 1.7066895961761475, 2.5703113079071045, 
163, 1143342116, 0.93396527, 0.22114997, -0.1837315, 0.2122366, 4.289989471435547, 3.1556522846221924, 8.226814270019531, -4.613545894622803, 1.8010209798812866, 2.6508121490478516, 
164, 1143358783, 0.9341319, 0.22020686, -0.18376507, 0.21245481, 4.288959503173828, 3.1456515789031982, 8.241534233093262, -5.0365777015686035, 1.8625174760818481, 2.727445363998413, 
165, 1143375450, 0.93428475, 0.2192671, -0.18382555, 0.21270238, 4.271630764007568, 3.0418412685394287, 8.259491920471191, -5.068452835083008, 1.657231330871582, 2.8193821907043457, 
166, 1143392117, 0.93442225, 0.21847418, -0.18388483, 0.21286261, 4.271110534667969, 3.0074238777160645, 8.27860164642334, -4.105471611022949, 1.3681470155715942, 2.282174587249756, 
167, 1143408784, 0.93444824, 0.21787295, -0.18385902, 0.2133867, 4.288302898406982, 2.9896159172058105, 8.290254592895508, -3.370708703994751, 1.0892122983932495, 2.011000633239746, 
168, 1143425451, 0.9345849, 0.21724875, -0.18394999, 0.21334608, 4.281130313873291, 3.0045952796936035, 8.288925170898438, -2.870300054550171, 0.9446282982826233, 1.6485421657562256, 
169, 1143442118, 0.9347259, 0.21663739, -0.18402897, 0.21328215, 4.280281066894531, 3.032726526260376, 8.286827087402344, -2.7568929195404053, 0.9950405359268188, 1.5315240621566772, 
170, 1143458785, 0.93478215, 0.21611819, -0.18402405, 0.21356684, 4.279220104217529, 3.009660482406616, 8.287569999694824, -2.645279884338379, 0.9270005226135254, 1.400848388671875, 
171, 1143475452, 0.934895, 0.21557909, -0.1840813, 0.21356818, 4.277318000793457, 2.993859052658081, 8.279458045959473, -2.3771722316741943, 0.9032446146011353, 1.391256332397461, 
172, 1143492119, 0.93498516, 0.215072, -0.18411501, 0.21365528, 4.265507698059082, 3.003018856048584, 8.275055885314941, -2.298323392868042, 0.8698968887329102, 1.293953537940979, 
173, 1143508786, 0.93505406, 0.21464947, -0.18415931, 0.21374013, 4.2625732421875, 2.937650680541992, 8.304051399230957, -1.7894697189331055, 0.6098384857177734, 1.1308391094207764, 
174, 1143525453, 0.9351383, 0.21429658, -0.18422256, 0.21367171, 4.2692413330078125, 2.9290075302124023, 8.331219673156738, -1.0916324853897095, 0.5417854189872742, 0.9904558658599854, 
175, 1143542120, 0.9351331, 0.21411006, -0.1842061, 0.2138951, 4.283492088317871, 2.9261372089385986, 8.31252670288086, -0.45116126537323, 0.3415709137916565, 0.6405607461929321, 
176, 1143558787, 0.9351899, 0.21390752, -0.18422602, 0.21383275, 4.284714698791504, 2.980797290802002, 8.307625770568848, -0.1628263294696808, 0.45066821575164795, 0.49614354968070984, 
177, 1143575454, 0.93520707, 0.21374638, -0.1842011, 0.21394004, 4.28761100769043, 2.963467597961426, 8.312018394470215, -0.1036866158246994, 0.46496012806892395, 0.4564823508262634, 
178, 1143592121, 0.93523943, 0.21358477, -0.1841747, 0.21398218, 4.275988578796387, 2.9662458896636963, 8.294100761413574, -0.0016712285578250885, 0.5468055009841919, 0.4035280644893646, 
179, 1143608788, 0.93527174, 0.21343802, -0.18414995, 0.21400885, 4.289506435394287, 2.9589827060699463, 8.32272720336914, 0.08284427225589752, 0.4962588846683502, 0.3059052526950836, 
180, 1143625455, 0.93527156, 0.2133038, -0.18408054, 0.2142033, 4.273199558258057, 2.9890012741088867, 8.32059383392334, 0.014906590804457664, 0.6136546730995178, 0.41970252990722656, 
181, 1143642122, 0.935331, 0.21309076, -0.18407352, 0.2141618, 4.275881290435791, 3.0063636302948, 8.31301212310791, -0.25159353017807007, 0.5898796319961548, 0.39193195104599, 
182, 1143658789, 0.9354028, 0.21282867, -0.18406698, 0.21411447, 4.257341384887695, 2.992051362991333, 8.31460952758789, -0.5736348032951355, 0.6831482648849487, 0.43613943457603455, 
183, 1143675456, 0.93544465, 0.21254757, -0.18404706, 0.21422812, 4.28132438659668, 2.9939029216766357, 8.30276107788086, -0.8988520503044128, 0.6413740515708923, 0.6046454310417175, 
184, 1143692123, 0.93551016, 0.21218708, -0.18401194, 0.21432982, 4.276236057281494, 2.976318597793579, 8.314619064331055, -1.402340054512024, 0.8896827101707458, 0.6284587979316711, 
185, 1143708790, 0.9355615, 0.21176423, -0.1839327, 0.21459134, 4.27720308303833, 2.9748146533966064, 8.29981803894043, -2.0060954093933105, 1.1224637031555176, 0.7295137047767639, 
186, 1143725457, 0.93566996, 0.21122298, -0.18388581, 0.21469195, 4.283420085906982, 2.9987757205963135, 8.305282592773438, -2.5370659828186035, 1.3389294147491455, 0.9008753895759583, 
187, 1143742124, 0.9358315, 0.21058562, -0.183884, 0.21461579, 4.261878967285156, 2.9182000160217285, 8.336172103881836, -2.960014581680298, 1.4126683473587036, 0.9632551670074463, 
188, 1143758791, 0.93596965, 0.20997493, -0.1838908, 0.21460548, 4.2584228515625, 2.9004476070404053, 8.340924263000488, -2.889407157897949, 1.2302931547164917, 0.9904943108558655, 
189, 1143775458, 0.93607986, 0.20942448, -0.18384236, 0.21470407, 4.243160247802734, 2.8737902641296387, 8.333841323852539, -2.6056249141693115, 1.3521841764450073, 0.8660550713539124, 
190, 1143792125, 0.9362066, 0.20889984, -0.18378615, 0.21471095, 4.245193004608154, 2.890470266342163, 8.334624290466309, -2.276885747909546, 1.4549037218093872, 0.7677790522575378, 
191, 1143808792, 0.93626004, 0.20846121, -0.1836884, 0.21498819, 4.2389302253723145, 2.8847408294677734, 8.329843521118164, -2.1134510040283203, 1.244661808013916, 0.6843968629837036, 
192, 1143825459, 0.9364041, 0.20795219, -0.1836971, 0.21484603, 4.219543933868408, 2.8881571292877197, 8.323993682861328, -1.9920151233673096, 1.1690468788146973, 0.7949861884117126, 
193, 1143842126, 0.9364648, 0.20753437, -0.18366764, 0.2150104, 4.239283084869385, 2.860032320022583, 8.353760719299316, -1.8120088577270508, 0.9189645051956177, 0.8257470726966858, 
194, 1143858793, 0.9365759, 0.20712051, -0.18372326, 0.21487816, 4.2284135818481445, 2.824605703353882, 8.37040901184082, -1.4071681499481201, 0.6805934906005859, 0.8087081909179688, 
195, 1143875460, 0.9366042, 0.20683555, -0.18372056, 0.21503161, 4.232402801513672, 2.8463857173919678, 8.371822357177734, -0.9826376438140869, 0.47059497237205505, 0.6172404885292053, 
196, 1143892127, 0.9366117, 0.20661196, -0.18368194, 0.21524675, 4.243291854858398, 2.838865041732788, 8.367389678955078, -0.6619985699653625, 0.5059852600097656, 0.4496757686138153, 
197, 1143908794, 0.93662536, 0.20639424, -0.18365133, 0.21542245, 4.248249530792236, 2.8626179695129395, 8.355452537536621, -0.5236964225769043, 0.5134962201118469, 0.5156989097595215, 
198, 1143925461, 0.9366906, 0.20613933, -0.18365225, 0.21538115, 4.249563694000244, 2.8456804752349854, 8.383910179138184, -0.4689621925354004, 0.607379674911499, 0.4767804443836212, 
199, 1143942128, 0.93661326, 0.20603268, -0.18354435, 0.21591094, 4.232816696166992, 2.82600474357605, 8.37661075592041, -0.25078675150871277, 0.42594558000564575, 0.44277313351631165, 
200, 1143958795, 0.9366803, 0.20581943, -0.18359046, 0.21578415, 4.243359565734863, 2.830214023590088, 8.357935905456543, -0.09808382391929626, 0.32660675048828125, 0.4696408212184906, 
201, 1143975462, 0.936694, 0.20568259, -0.18359233, 0.21585421, 4.228932857513428, 2.8127334117889404, 8.371010780334473, 0.117658331990242, 0.23803801834583282, 0.34403616189956665, 
202, 1143992129, 0.9367239, 0.2055477, -0.18359937, 0.21584673, 4.2560906410217285, 2.828794240951538, 8.389918327331543, 0.21911662817001343, 0.2621203660964966, 0.24146370589733124, 
203, 1144008796, 0.9366707, 0.20546232, -0.18352759, 0.21621989, 4.247021675109863, 2.845641851425171, 8.352518081665039, 0.06407016515731812, 0.28696465492248535, 0.28687503933906555, 
204, 1144025463, 0.93670654, 0.20527843, -0.1835296, 0.21623759, 4.230867862701416, 2.848223924636841, 8.369040489196777, -0.1112295463681221, 0.37640419602394104, 0.35358327627182007, 
205, 1144042130, 0.9367226, 0.20509967, -0.18350346, 0.21636008, 4.247543811798096, 2.841071367263794, 8.372819900512695, -0.15301665663719177, 0.47333547472953796, 0.45434364676475525, 
206, 1144058797, 0.9367392, 0.20491679, -0.18346414, 0.2164942, 4.244729042053223, 2.8199610710144043, 8.372648239135742, -0.1917942762374878, 0.5490209460258484, 0.42200762033462524, 
207, 1144075464, 0.9367521, 0.20475432, -0.18340999, 0.21663837, 4.229977607727051, 2.825042247772217, 8.382227897644043, -0.07316267490386963, 0.5859032869338989, 0.3462708592414856, 
208, 1144092131, 0.9368091, 0.20457196, -0.18340944, 0.21656387, 4.2350053787231445, 2.813005208969116, 8.394620895385742, 0.04957978054881096, 0.4845089614391327, 0.283731073141098, 
209, 1144108798, 0.9368144, 0.20444678, -0.18335629, 0.21670434, 4.235223770141602, 2.812490224838257, 8.370452880859375, 0.18251608312129974, 0.5134833455085754, 0.2910883128643036, 
210, 1144125465, 0.93682355, 0.20432243, -0.18330927, 0.21682227, 4.235835075378418, 2.809697389602661, 8.387590408325195, 0.22417514026165009, 0.49965256452560425, 0.305585116147995, 
211, 1144142132, 0.9368139, 0.20423098, -0.18325932, 0.21699256, 4.239326000213623, 2.794964075088501, 8.384206771850586, 0.3386703133583069, 0.3808416426181793, 0.23278741538524628, 
212, 1144158799, 0.9368555, 0.20411232, -0.18325604, 0.21692693, 4.230313301086426, 2.799605369567871, 8.391448974609375, 0.4740014672279358, 0.3723190128803253, 0.21650417149066925, 
213, 1144175466, 0.9368421, 0.20406404, -0.18320054, 0.21707718, 4.221347808837891, 2.799583911895752, 8.389646530151367, 0.6888278126716614, 0.36518582701683044, 0.2087947130203247, 
214, 1144192133, 0.9368949, 0.20399202, -0.18323219, 0.21689035, 4.22016716003418, 2.7755720615386963, 8.380372047424316, 0.9406391382217407, 0.1910451054573059, 0.15372741222381592, 
215, 1144208800, 0.9369004, 0.20399553, -0.18323213, 0.21686287, 4.2286458015441895, 2.809377670288086, 8.37741470336914, 1.198828101158142, 0.06280233711004257, 0.03201587498188019, 
216, 1144225467, 0.93689597, 0.20403561, -0.18322076, 0.21685411, 4.21345853805542, 2.7978575229644775, 8.400014877319336, 1.4025578498840332, 0.0362611748278141, -0.06626005470752716, 
217, 1144242134, 0.9369836, 0.20403945, -0.18332276, 0.21638536, 4.218987941741943, 2.781846284866333, 8.379472732543945, 1.7467926740646362, -0.16255101561546326, -0.10206661373376846, 
218, 1144258801, 0.93695104, 0.20421952, -0.1833354, 0.21634561, 4.209909439086914, 2.7557361125946045, 8.386248588562012, 2.309068441390991, -0.38388317823410034, -0.300078421831131, 
219, 1144275468, 0.93687385, 0.20456958, -0.18335736, 0.21633077, 4.217199325561523, 2.7481961250305176, 8.393178939819336, 3.3175296783447266, -0.839584231376648, -0.6192126274108887, 
220, 1144292135, 0.93675315, 0.20503093, -0.18331398, 0.21645294, 4.243009090423584, 2.819058895111084, 8.390941619873047, 3.8946807384490967, -0.7755014300346375, -0.8392002582550049, 
221, 1144308802, 0.93668306, 0.20540352, -0.18329634, 0.2164184, 4.229126453399658, 2.870321035385132, 8.365423202514648, 3.5841643810272217, -0.5731418132781982, -0.6608524918556213, 
222, 1144325469, 0.936726, 0.20558757, -0.1833563, 0.21600702, 4.2325615882873535, 2.9072060585021973, 8.381814002990723, 2.8597731590270996, -0.3172837495803833, -0.46809127926826477, 
223, 1144342136, 0.9366756, 0.20578042, -0.18331549, 0.21607621, 4.241702556610107, 2.8766896724700928, 8.368623733520508, 2.342268705368042, -0.1414141207933426, -0.2541356384754181, 
224, 1144358803, 0.9366929, 0.20587358, -0.1833208, 0.21590762, 4.240494728088379, 2.8548896312713623, 8.368212699890137, 2.0112369060516357, 1.7928886518348008E-4, -0.14820146560668945, 
225, 1144375470, 0.9366489, 0.2059977, -0.18327802, 0.21601667, 4.245105743408203, 2.8818411827087402, 8.378374099731445, 1.8502742052078247, -0.023506054654717445, -0.11637770384550095, 
226, 1144392137, 0.93658096, 0.2061022, -0.18320033, 0.21627693, 4.248833179473877, 2.8844223022460938, 8.352171897888184, 1.5575981140136719, 0.10193855315446854, 0.0040724193677306175, 
227, 1144408804, 0.93661475, 0.20607775, -0.18322319, 0.21613453, 4.227579116821289, 2.88369083404541, 8.34852123260498, 1.239706039428711, 0.12132737040519714, 0.1372072398662567, 
228, 1144425471, 0.93665296, 0.20602642, -0.18324965, 0.21599522, 4.231762886047363, 2.8818559646606445, 8.36076545715332, 1.0509272813796997, 0.1438024938106537, 0.20040655136108398, 
229, 1144442138, 0.93665606, 0.20598865, -0.18324184, 0.21602438, 4.228338718414307, 2.8509838581085205, 8.370198249816895, 0.9181128740310669, 0.1595287173986435, 0.2099217027425766, 
230, 1144458805, 0.9366999, 0.20590691, -0.1832544, 0.21590146, 4.237004280090332, 2.8636441230773926, 8.38022518157959, 0.8253436088562012, 0.2649761736392975, 0.18179893493652344, 
231, 1144475472, 0.9367667, 0.20580634, -0.18328936, 0.21567845, 4.237558364868164, 2.862847089767456, 8.367171287536621, 0.8310296535491943, 0.2535017132759094, 0.1829899549484253, 
232, 1144492139, 0.9367712, 0.20575057, -0.18327199, 0.21572623, 4.245641231536865, 2.8674674034118652, 8.38162899017334, 0.7555233240127563, 0.22722305357456207, 0.1677887886762619, 
233, 1144508806, 0.93678206, 0.20568392, -0.18327466, 0.21574013, 4.235970973968506, 2.8590848445892334, 8.38085651397705, 0.7220988869667053, 0.15838894248008728, 0.21965450048446655, 
234, 1144525473, 0.9367179, 0.20567091, -0.18319269, 0.21610075, 4.248695373535156, 2.861734628677368, 8.371343612670898, 0.6527652144432068, 0.25727954506874084, 0.2508123517036438, 
235, 1144542140, 0.93671477, 0.20557475, -0.18315381, 0.21623905, 4.230767726898193, 2.867771625518799, 8.386248588562012, 0.41121187806129456, 0.37335631251335144, 0.30514973402023315, 
236, 1144558807, 0.9367754, 0.20539738, -0.18317768, 0.21612479, 4.247790336608887, 2.883098602294922, 8.374670028686523, 0.23182053864002228, 0.3965870440006256, 0.4478380084037781, 
237, 1144575474, 0.9368222, 0.20519604, -0.18317927, 0.21611167, 4.228789806365967, 2.851792812347412, 8.3537015914917, -0.05253804847598076, 0.48680776357650757, 0.5067728161811829, 
238, 1144592141, 0.93680376, 0.20507076, -0.18312138, 0.21635924, 4.244024753570557, 2.843846559524536, 8.390711784362793, 0.11979058384895325, 0.46904537081718445, 0.46560046076774597, 
239, 1144608808, 0.9367693, 0.20495838, -0.18306126, 0.2166658, 4.223318576812744, 2.850494384765625, 8.380480766296387, 0.1079062968492508, 0.39785486459732056, 0.4676366448402405, 
240, 1144625475, 0.9367844, 0.20481932, -0.18302327, 0.21676409, 4.243041038513184, 2.848066568374634, 8.364712715148926, 0.16419020295143127, 0.4678542912006378, 0.29614681005477905, 
241, 1144642142, 0.9368018, 0.20466876, -0.18299535, 0.21685493, 4.249446392059326, 2.854961395263672, 8.37399673461914, 0.09817347675561905, 0.44015422463417053, 0.3441578447818756, 
242, 1144658809, 0.9368026, 0.20453756, -0.1829594, 0.21700472, 4.238378047943115, 2.83074688911438, 8.369359016418457, 0.13976851105690002, 0.38357579708099365, 0.3247434198856354, 
243, 1144675476, 0.93687344, 0.20433839, -0.18299066, 0.21686032, 4.215550899505615, 2.8387467861175537, 8.392836570739746, 0.10401317477226257, 0.3999295234680176, 0.426553875207901, 
244, 1144692143, 0.93688077, 0.20419092, -0.18295415, 0.21699876, 4.232451915740967, 2.8414933681488037, 8.385919570922852, 0.04584673047065735, 0.433815062046051, 0.31369152665138245, 
245, 1144708810, 0.9369211, 0.20400184, -0.18295577, 0.21700104, 4.223743915557861, 2.8298356533050537, 8.347565650939941, -0.03199026361107826, 0.4204773008823395, 0.4284171760082245, 
246, 1144725477, 0.9369368, 0.20385505, -0.18293093, 0.2170922, 4.232423305511475, 2.813398599624634, 8.392268180847168, 0.13241766393184662, 0.42080381512641907, 0.36216357350349426, 
247, 1144742144, 0.9369953, 0.20368718, -0.18295878, 0.21697296, 4.225310325622559, 2.803506851196289, 8.381267547607422, 0.29881057143211365, 0.3565927743911743, 0.4429716467857361, 
248, 1144758811, 0.9370549, 0.20358326, -0.18300658, 0.21677311, 4.226137161254883, 2.7902212142944336, 8.393908500671387, 0.8174932599067688, 0.18606343865394592, 0.33145391941070557, 
249, 1144775478, 0.93708885, 0.20355286, -0.18303037, 0.21663447, 4.222208499908447, 2.783987522125244, 8.399352073669434, 1.162752389907837, 0.08817171305418015, 0.09129646420478821, 
250, 1144792145, 0.93706745, 0.20358744, -0.18300469, 0.21671681, 4.230527400970459, 2.8039770126342773, 8.398499488830566, 1.2812752723693848, 0.05299267917871475, -0.017627941444516182, 
251, 1144808812, 0.9370361, 0.20365308, -0.18298814, 0.21680471, 4.2203803062438965, 2.8047983646392822, 8.401790618896484, 1.4959608316421509, -0.05750691145658493, 0.032950736582279205, 
252, 1144825479, 0.9369618, 0.20381518, -0.18292025, 0.21703024, 4.230057239532471, 2.7818455696105957, 8.411365509033203, 1.9774924516677856, -0.036959122866392136, -0.10907167941331863, 
253, 1144842146, 0.9369401, 0.204002, -0.18289386, 0.21697108, 4.202105522155762, 2.791656732559204, 8.378573417663574, 2.512836217880249, -0.0921032577753067, -0.2746705710887909, 
254, 1144858813, 0.9369023, 0.20433137, -0.1828612, 0.21685185, 4.224255084991455, 2.7478702068328857, 8.395085334777832, 3.468478202819824, -0.30456066131591797, -0.6673772931098938, 
255, 1144875480, 0.93683165, 0.20474592, -0.18281943, 0.21680121, 4.223507404327393, 2.813197135925293, 8.386302947998047, 3.8670828342437744, -0.5256558656692505, -0.8916869759559631, 
256, 1144892147, 0.93677086, 0.20518136, -0.18278882, 0.21667807, 4.214595317840576, 2.845703125, 8.355975151062012, 4.045602321624756, -0.6022762060165405, -1.0480395555496216, 
257, 1144908814, 0.9367046, 0.20555812, -0.18276872, 0.21662477, 4.237699508666992, 2.9030144214630127, 8.358406066894531, 3.559896469116211, -0.6234515905380249, -0.8795914053916931, 
258, 1144925481, 0.9366163, 0.205906, -0.18273021, 0.21670806, 4.243001461029053, 2.8976523876190186, 8.344858169555664, 3.2531776428222656, -0.5392497181892395, -0.6446972489356995, 
259, 1144942148, 0.9365645, 0.20619887, -0.18268481, 0.21669166, 4.237496376037598, 2.8698792457580566, 8.34870433807373, 3.113210678100586, -0.2395235300064087, -0.5350940823554993, 
260, 1144958815, 0.9364981, 0.20646483, -0.18260726, 0.21679077, 4.2321085929870605, 2.9201741218566895, 8.372333526611328, 2.806889295578003, -0.09161664545536041, -0.4565848112106323, 
261, 1144975482, 0.9364467, 0.20665038, -0.18253428, 0.2168977, 4.227192401885986, 2.914632797241211, 8.36636734008789, 2.3209526538848877, 0.06914789229631424, -0.2238037884235382, 
262, 1144992149, 0.93646735, 0.20671824, -0.18253356, 0.21674445, 4.227590084075928, 2.9022655487060547, 8.368812561035156, 1.8310134410858154, 0.05792311951518059, -0.17451852560043335, 
263, 1145008816, 0.936429, 0.20679463, -0.18245779, 0.21690091, 4.226212501525879, 2.9174764156341553, 8.369384765625, 1.526273488998413, 0.23981167376041412, -0.06211719661951065, 
264, 1145025483, 0.9364112, 0.20682216, -0.18242314, 0.21698046, 4.232517719268799, 2.914376974105835, 8.339751243591309, 1.3549118041992188, 0.19414427876472473, 0.1730906367301941, 
265, 1145042150, 0.93647027, 0.20675626, -0.18244363, 0.2167712, 4.231025218963623, 2.901545524597168, 8.331745147705078, 1.0872975587844849, 0.28444185853004456, 0.15847857296466827, 
266, 1145058817, 0.93646574, 0.20673293, -0.18240349, 0.2168464, 4.220067024230957, 2.900913953781128, 8.351512908935547, 1.0239700078964233, 0.3275223970413208, 0.22955380380153656, 
267, 1145075484, 0.93645823, 0.20672028, -0.1823873, 0.21690461, 4.224474906921387, 2.876511812210083, 8.386826515197754, 1.02836275100708, 0.12477227300405502, 0.13437703251838684, 
268, 1145092151, 0.9364522, 0.20669194, -0.18237865, 0.21696487, 4.212980270385742, 2.9058334827423096, 8.362871170043945, 0.9263216853141785, 0.10727878659963608, 0.17953220009803772, 
269, 1145108818, 0.93643314, 0.20666611, -0.18237606, 0.21707419, 4.230381011962891, 2.9092400074005127, 8.372328758239746, 0.8867756128311157, 0.02470344677567482, 0.27168670296669006, 
270, 1145125485, 0.9364281, 0.20660901, -0.18237443, 0.21715175, 4.238640308380127, 2.9049365520477295, 8.365830421447754, 0.7515663504600525, 0.13003568351268768, 0.3507018983364105, 
271, 1145142152, 0.9364198, 0.20658647, -0.18239337, 0.21719334, 4.226131916046143, 2.8729515075683594, 8.331681251525879, 0.9522929191589355, -0.07269524037837982, 0.19771723449230194, 
272, 1145158819, 0.93641835, 0.20658614, -0.18241546, 0.21718068, 4.2440080642700195, 2.84981107711792, 8.365960121154785, 1.1211830377578735, -0.11833707243204117, 0.029787568375468254, 
273, 1145175486, 0.93638986, 0.20666724, -0.18241864, 0.21722399, 4.244411945343018, 2.8570992946624756, 8.367053985595703, 1.559518814086914, -0.23022614419460297, -0.13656052947044373, 
274, 1145192153, 0.93638057, 0.20674405, -0.18241522, 0.21719436, 4.216629981994629, 2.9001424312591553, 8.369728088378906, 1.671984076499939, -0.08805005252361298, -0.15594932436943054, 
275, 1145208820, 0.9363647, 0.20686725, -0.1824305, 0.21713234, 4.236851215362549, 2.8796043395996094, 8.363611221313477, 1.978978157043457, -0.2813618779182434, -0.23633477091789246, 
276, 1145225487, 0.9362403, 0.20709606, -0.18233618, 0.21752897, 4.227681636810303, 2.8353068828582764, 8.352472305297852, 2.1131246089935303, -0.22981636226177216, -0.2629207670688629, 
277, 1145242154, 0.93621534, 0.207293, -0.18233748, 0.21744803, 4.22291898727417, 2.8880832195281982, 8.36571979522705, 2.476914644241333, -0.3382989466190338, -0.4338727593421936, 
278, 1145258821, 0.93618375, 0.20751968, -0.18233833, 0.21736719, 4.222028732299805, 2.9137237071990967, 8.339757919311523, 2.654218912124634, -0.41055238246917725, -0.517856776714325, 
279, 1145275488, 0.9361575, 0.2077275, -0.18233606, 0.21728377, 4.228207111358643, 2.9324042797088623, 8.33155345916748, 2.5477850437164307, -0.33193421363830566, -0.47227898240089417, 
280, 1145292155, 0.9361076, 0.20794438, -0.1823485, 0.21728045, 4.212921619415283, 2.906846046447754, 8.336705207824707, 2.5027451515197754, -0.5082008242607117, -0.3499911427497864, 
281, 1145308822, 0.936057, 0.20817739, -0.18236001, 0.21726653, 4.226480484008789, 2.9279284477233887, 8.35965347290039, 2.6405797004699707, -0.5088155269622803, -0.34754517674446106, 
282, 1145325489, 0.93600214, 0.20840363, -0.18238433, 0.21726473, 4.216750621795654, 2.9363181591033936, 8.340879440307617, 2.6223177909851074, -0.5534968376159668, -0.19494463503360748, 
283, 1145342156, 0.9359428, 0.20860182, -0.18240277, 0.21731453, 4.239849090576172, 2.9561047554016113, 8.351056098937988, 2.416724681854248, -0.4772862493991852, -0.018639642745256424, 
284, 1145358823, 0.9359325, 0.20872234, -0.18245143, 0.21720265, 4.249963283538818, 2.9562127590179443, 8.350931167602539, 2.1005358695983887, -0.37743517756462097, -0.003041508374735713, 
285, 1145375490, 0.9359139, 0.20880666, -0.18247667, 0.21718071, 4.260943412780762, 2.961524724960327, 8.337028503417969, 1.7775086164474487, -0.21984021365642548, 0.12007234245538712, 
286, 1145392157, 0.93589365, 0.20884389, -0.18249546, 0.21721585, 4.246054172515869, 2.9699630737304688, 8.327620506286621, 1.4049204587936401, -0.1369318962097168, 0.23529107868671417, 
287, 1145408824, 0.93587077, 0.20884413, -0.18248667, 0.21732153, 4.261683464050293, 2.9441215991973877, 8.33249568939209, 1.122374176979065, 0.06850116699934006, 0.34756433963775635, 
288, 1145425491, 0.93588394, 0.20880279, -0.18248594, 0.21730544, 4.246003150939941, 2.93898868560791, 8.326640129089355, 0.987267017364502, 0.19720497727394104, 0.26933035254478455, 
289, 1145442158, 0.9358752, 0.20875555, -0.18246882, 0.21740252, 4.239104747772217, 2.9439351558685303, 8.351511001586914, 0.8521089553833008, 0.23823654651641846, 0.4301653206348419, 
290, 1145458825, 0.93588203, 0.2086932, -0.18245348, 0.2174456, 4.243567943572998, 2.952476739883423, 8.336825370788574, 0.8287630081176758, 0.3091837167739868, 0.41724371910095215, 
291, 1145475492, 0.93589085, 0.20860247, -0.18244004, 0.2175064, 4.240532398223877, 2.9660730361938477, 8.330052375793457, 0.6259359121322632, 0.3402903079986572, 0.487857848405838, 
292, 1145492159, 0.935892, 0.20847361, -0.18240418, 0.21765515, 4.2357892990112305, 2.9526827335357666, 8.356273651123047, 0.3011285662651062, 0.49495264887809753, 0.6322110891342163, 
293, 1145508826, 0.9359619, 0.2082523, -0.1824234, 0.21755004, 4.238748073577881, 2.959599733352661, 8.360895156860352, 0.013318604789674282, 0.5701003074645996, 0.6849092245101929, 
294, 1145525493, 0.93599814, 0.20803002, -0.18241264, 0.21761592, 4.230978965759277, 2.9487879276275635, 8.332975387573242, -0.20757171511650085, 0.5970960259437561, 0.751463770866394, 
295, 1145542160, 0.93604916, 0.20773852, -0.18240385, 0.21768235, 4.2270283699035645, 2.9726815223693848, 8.328883171081543, -0.6522338390350342, 0.7294881343841553, 0.8935375213623047, 
296, 1145558827, 0.93611294, 0.20741096, -0.18241054, 0.21771488, 4.235137462615967, 2.9336016178131104, 8.359617233276367, -0.8502072095870972, 0.7354046702384949, 0.9487584233283997, 
297, 1145575494, 0.93615645, 0.20710096, -0.1824278, 0.21780863, 4.228025436401367, 2.913539171218872, 8.356606483459473, -0.8839391469955444, 0.5384557843208313, 0.9034624099731445, 
298, 1145592161, 0.93615913, 0.2068063, -0.18239944, 0.21810053, 4.2310566902160645, 2.9172544479370117, 8.356024742126465, -1.0329537391662598, 0.6008483171463013, 0.9221340417861938, 
299, 1145608828, 0.93624234, 0.20640685, -0.18242756, 0.2180985, 4.237086772918701, 2.9310076236724854, 8.352472305297852, -1.2700246572494507, 0.7851700186729431, 1.117353916168213, 
300, 1145625495, 0.936297, 0.2060241, -0.18243071, 0.21822302, 4.243882656097412, 2.8926782608032227, 8.346726417541504, -1.3567622900009155, 0.764641523361206, 1.0635416507720947, 
301, 1145642162, 0.9363638, 0.20567496, -0.18246709, 0.21823503, 4.225747108459473, 2.8568837642669678, 8.385862350463867, -1.064252495765686, 0.5557443499565125, 0.8975586891174316, 
302, 1145658829, 0.9364311, 0.20538016, -0.18253332, 0.21816815, 4.225610733032227, 2.8569536209106445, 8.37755012512207, -0.6027500033378601, 0.34702640771865845, 0.8646846413612366, 
303, 1145675496, 0.93646026, 0.20514953, -0.18256456, 0.21823396, 4.211223125457764, 2.874457597732544, 8.366669654846191, -0.39949408173561096, 0.2838335633277893, 0.6970943808555603, 
304, 1145692163, 0.9365268, 0.20488834, -0.18263637, 0.21813385, 4.231354713439941, 2.860511541366577, 8.355632781982422, -0.3582319915294647, 0.26427820324897766, 0.7678751349449158, 
305, 1145708830, 0.9365411, 0.20468238, -0.18266699, 0.21824034, 4.236935615539551, 2.876654624938965, 8.365456581115723, -0.27967149019241333, 0.20814159512519836, 0.7321262359619141, 
306, 1145725497, 0.9365616, 0.20447178, -0.18270037, 0.21832196, 4.228750705718994, 2.871537208557129, 8.366132736206055, -0.2859465777873993, 0.21750305593013763, 0.6988937258720398, 
307, 1145742164, 0.936598, 0.20425087, -0.18274887, 0.21833195, 4.232372760772705, 2.851478099822998, 8.354410171508789, -0.28416648507118225, 0.1968591809272766, 0.6554417610168457, 
308, 1145758831, 0.93660873, 0.20407887, -0.18277171, 0.21842688, 4.229654788970947, 2.8633618354797363, 8.372137069702148, -0.03145879879593849, 0.20234030485153198, 0.6543916463851929, 
309, 1145775498, 0.9366164, 0.20390597, -0.18279558, 0.21853554, 4.238224029541016, 2.8735575675964355, 8.363350868225098, -0.08555281907320023, 0.17406390607357025, 0.6149864792823792, 
310, 1145792165, 0.93663573, 0.20371206, -0.18282907, 0.21860567, 4.2263288497924805, 2.8672919273376465, 8.363919258117676, -0.13752098381519318, 0.21596626937389374, 0.7081014513969421, 
311, 1145808832, 0.9366663, 0.20350116, -0.18285929, 0.21864587, 4.22804594039917, 2.860189914703369, 8.37122917175293, -0.19940127432346344, 0.30133339762687683, 0.737876296043396, 
312, 1145825499, 0.93672293, 0.20326288, -0.18292044, 0.21857375, 4.220931529998779, 2.8258917331695557, 8.378389358520508, -0.20901882648468018, 0.28453147411346436, 0.8074018359184265, 
313, 1145842166, 0.936774, 0.20302817, -0.18296118, 0.21853916, 4.226637363433838, 2.834348201751709, 8.372298240661621, -0.26518750190734863, 0.34776923060417175, 0.6970112323760986, 
314, 1145858833, 0.93678826, 0.20283757, -0.18298194, 0.2186379, 4.220135688781738, 2.856027126312256, 8.385680198669434, -0.1869150698184967, 0.23976047337055206, 0.6379354596138, 
315, 1145875500, 0.93679297, 0.20265944, -0.18300594, 0.21876253, 4.2341508865356445, 2.830965042114258, 8.401107788085938, -0.12708382308483124, 0.17487071454524994, 0.688520610332489, 
316, 1145892167, 0.9368012, 0.2024868, -0.183037, 0.21886125, 4.237627029418945, 2.837130308151245, 8.367806434631348, -0.08350380510091782, 0.1325073093175888, 0.623259425163269, 
317, 1145908834, 0.93679464, 0.20232491, -0.18307208, 0.21900971, 4.234100341796875, 2.837580680847168, 8.373385429382324, -0.08285067230463028, 0.04035280644893646, 0.6573370695114136, 
318, 1145925501, 0.9367848, 0.20216267, -0.18308184, 0.21919358, 4.224069595336914, 2.8241560459136963, 8.388154983520508, -0.1421184539794922, 0.15966956317424774, 0.5930492281913757, 
319, 1145942168, 0.93681175, 0.20196715, -0.18312627, 0.21922117, 4.230588912963867, 2.8076589107513428, 8.369587898254395, -0.1472986340522766, 0.153599351644516, 0.6244375705718994, 
320, 1145958835, 0.9368315, 0.20180286, -0.18315715, 0.21926218, 4.238896369934082, 2.7997162342071533, 8.366884231567383, 0.06396771967411041, 0.18181174993515015, 0.5960075259208679, 
321, 1145975502, 0.93686855, 0.20160612, -0.18321012, 0.21924038, 4.223686695098877, 2.828937292098999, 8.380062103271484, -0.08577052503824234, 0.16077092289924622, 0.6319549679756165, 
322, 1145992169, 0.9369063, 0.20141125, -0.18326534, 0.21921211, 4.231532573699951, 2.800588369369507, 8.384478569030762, -0.05376746505498886, 0.16056601703166962, 0.633811891078949, 
323, 1146008836, 0.936915, 0.2012428, -0.18327573, 0.21932079, 4.2329559326171875, 2.8206446170806885, 8.383041381835938, -0.047812510281801224, 0.2570490837097168, 0.6070082187652588, 
324, 1146025503, 0.9369373, 0.20105243, -0.18328866, 0.21938924, 4.241878986358643, 2.8060388565063477, 8.37452220916748, -0.1147000640630722, 0.3340536057949066, 0.6509979367256165, 
325, 1146042170, 0.9369601, 0.20086592, -0.18328103, 0.21946925, 4.231264591217041, 2.7955355644226074, 8.381163597106934, -0.09112358093261719, 0.4540363550186157, 0.6004000902175903, 
326, 1146058837, 0.9369758, 0.20070064, -0.1832692, 0.21956345, 4.213018894195557, 2.786198377609253, 8.387755393981934, 0.010667688213288784, 0.4059228301048279, 0.5283899307250977, 
327, 1146075504, 0.93700945, 0.20055577, -0.18328509, 0.219539, 4.224895477294922, 2.7672512531280518, 8.391727447509766, 0.29469969868659973, 0.30310067534446716, 0.4845026135444641, 
328, 1146092171, 0.9370526, 0.20045453, -0.18330806, 0.21942823, 4.230220317840576, 2.7855007648468018, 8.401498794555664, 0.6661862730979919, 0.23637959361076355, 0.2986568808555603, 
329, 1146108838, 0.93701196, 0.20042646, -0.18324766, 0.21967779, 4.240756988525391, 2.7876529693603516, 8.376441955566406, 0.7224062085151672, 0.31809690594673157, 0.34417062997817993, 
330, 1146125505, 0.9370436, 0.20031878, -0.18323478, 0.21965173, 4.230862617492676, 2.785949468612671, 8.375661849975586, 0.6015014052391052, 0.44354790449142456, 0.4358256757259369, 
331, 1146142172, 0.93705696, 0.20025423, -0.18321434, 0.21967053, 4.210052967071533, 2.7946596145629883, 8.39389419555664, 0.790023684501648, 0.34655261039733887, 0.33366942405700684, 
332, 1146158839, 0.9370962, 0.20016572, -0.18320064, 0.21959522, 4.236023902893066, 2.797743082046509, 8.386669158935547, 0.769546389579773, 0.4360690712928772, 0.3315179944038391, 
333, 1146175506, 0.9370842, 0.20010471, -0.18314281, 0.21974999, 4.212966442108154, 2.8058652877807617, 8.408773422241211, 0.6742287874221802, 0.47091513872146606, 0.39910992980003357, 
334, 1146192173, 0.9371098, 0.20003058, -0.18312365, 0.21972421, 4.231090068817139, 2.785980701446533, 8.41251277923584, 0.8175574541091919, 0.4181017279624939, 0.3646223843097687, 
335, 1146208840, 0.9371011, 0.20005378, -0.18311839, 0.2197447, 4.2112531661987305, 2.754758596420288, 8.398892402648926, 1.3084887266159058, 0.06074051186442375, 0.18771547079086304, 
336, 1146225507, 0.93710893, 0.20005609, -0.18313968, 0.21969154, 4.229135513305664, 2.8221042156219482, 8.390924453735352, 1.2380154132843018, -0.024402501061558723, 0.17590804398059845, 
337, 1146242174, 0.93714213, 0.2, -0.18316662, 0.21957862, 4.243906497955322, 2.8193936347961426, 8.378604888916016, 0.9190861582756042, 0.09953095763921738, 0.20122617483139038, 
338, 1146258841, 0.93716735, 0.19990443, -0.18317077, 0.21955454, 4.238746166229248, 2.8008246421813965, 8.391924858093262, 0.6338374614715576, 0.2935343384742737, 0.4207398593425751, 
339, 1146275508, 0.93718463, 0.19981728, -0.1831663, 0.21956381, 4.209993362426758, 2.7690036296844482, 8.409733772277832, 0.6227343082427979, 0.2889496684074402, 0.3666970133781433, 
340, 1146292175, 0.93719065, 0.19974868, -0.18315557, 0.21960938, 4.222785472869873, 2.7746899127960205, 8.391012191772461, 0.6483470797538757, 0.22691571712493896, 0.2628374993801117, 
341, 1146308842, 0.93723637, 0.19966342, -0.18317032, 0.21947905, 4.220657825469971, 2.7716495990753174, 8.382832527160645, 0.7705453038215637, 0.25748446583747864, 0.1984984278678894, 
342, 1146325509, 0.93721545, 0.19967917, -0.18316565, 0.21955815, 4.2091193199157715, 2.728193998336792, 8.394037246704102, 1.1088378429412842, -0.030101323500275612, 0.11142803728580475, 
343, 1146342176, 0.93724406, 0.19979598, -0.18322085, 0.21928357, 4.231834411621094, 2.7168333530426025, 8.40625286102295, 2.1533942222595215, -0.33031418919563293, -0.30361297726631165, 
344, 1146358843, 0.93722516, 0.19997051, -0.1832269, 0.21920025, 4.22890043258667, 2.781139850616455, 8.404437065124512, 2.286240816116333, -0.3046950697898865, -0.365243524312973, 
345, 1146375510, 0.93718696, 0.20012885, -0.18322341, 0.21922223, 4.233335018157959, 2.8396430015563965, 8.38866901397705, 2.0297935009002686, -0.3146199882030487, -0.3109317421913147, 
346, 1146392177, 0.9371459, 0.20023088, -0.183209, 0.21931659, 4.248554229736328, 2.843662738800049, 8.378765106201172, 1.5534486770629883, -0.2202756106853485, -0.22830520570278168, 
347, 1146408844, 0.9371341, 0.200221, -0.18322185, 0.2193656, 4.239100456237793, 2.874818801879883, 8.395939826965332, 0.9085080027580261, -0.1054154634475708, 0.04333668574690819, 
348, 1146425511, 0.9371398, 0.20013799, -0.18325827, 0.21938598, 4.226039886474609, 2.841343402862549, 8.373744010925293, 0.4620402753353119, -0.07998205721378326, 0.20791107416152954, 
349, 1146442178, 0.9371585, 0.19998121, -0.18332845, 0.21939017, 4.241907596588135, 2.841243028640747, 8.376324653625488, -0.02067584916949272, -0.13608665764331818, 0.3938208818435669, 
350, 1146458845, 0.9371723, 0.19982554, -0.18342705, 0.21939108, 4.2417073249816895, 2.773695707321167, 8.408668518066406, -0.03115144558250904, -0.31601589918136597, 0.4614640176296234, 
351, 1146475512, 0.93717074, 0.19969837, -0.1835054, 0.219448, 4.246606826782227, 2.823233127593994, 8.404891014099121, 0.04527044668793678, -0.3182826340198517, 0.3325040936470032, 
352, 1146492179, 0.93717813, 0.19953063, -0.18355577, 0.21952717, 4.254971504211426, 2.7554819583892822, 8.38104248046875, -0.28271934390068054, -0.12416395545005798, 0.23141072690486908, 
353, 1146508846, 0.9371564, 0.19941145, -0.18355706, 0.21972732, 4.238091945648193, 2.7794318199157715, 8.409948348999023, -0.1721237301826477, -0.063090480864048, 6.53123832307756E-4, 
354, 1146525513, 0.93721515, 0.19924274, -0.1836674, 0.2195368, 4.246674537658691, 2.7170517444610596, 8.439423561096191, -0.24520958960056305, -0.4544525146484375, -0.41279345750808716, 
355, 1146542180, 0.93721783, 0.19929723, -0.18377025, 0.21938959, 4.244328498840332, 2.65619158744812, 8.436141967773438, 1.0321149826049805, -0.9442827105522156, -0.9541563987731934, 
356, 1146558847, 0.9371806, 0.1996062, -0.1838835, 0.21917324, 4.245413303375244, 2.6715517044067383, 8.452507019042969, 2.5683388710021973, -1.5843182802200317, -1.7612380981445312, 
357, 1146575514, 0.9370668, 0.20015703, -0.1840829, 0.2189901, 4.246913433074951, 2.637704849243164, 8.480756759643555, 3.837999105453491, -2.763437271118164, -2.23809552192688, 
358, 1146592181, 0.9368765, 0.20109712, -0.18445009, 0.21863417, 4.175020217895508, 2.6865217685699463, 8.536368370056152, 6.300649166107178, -4.549245357513428, -2.868680715560913, 
359, 1146608848, 0.93646187, 0.20290884, -0.18501434, 0.218259, 4.175643444061279, 2.6345057487487793, 8.635787010192871, 12.138660430908203, -7.291472911834717, -3.0232162475585938, 
360, 1146625515, 0.9355865, 0.20657268, -0.18569465, 0.21799849, 4.088540077209473, 2.7336056232452393, 8.750985145568848, 25.487972259521484, -10.694604873657227, -2.235476016998291, 
361, 1146642182, 0.9340448, 0.21146992, -0.18723263, 0.21859747, 3.8320865631103516, 3.485199451446533, 8.832804679870605, 32.38350296020508, -18.943471908569336, 0.4500430226325989, 
362, 1146658849, 0.93213755, 0.21615967, -0.19059514, 0.2192444, 3.7036049365997314, 4.023636341094971, 8.90298843383789, 29.722091674804688, -30.19184684753418, 5.826197147369385, 
363, 1146675516, 0.92963743, 0.22045535, -0.19613856, 0.2206889, 3.7868728637695312, 4.271073818206787, 8.895881652832031, 25.482362747192383, -43.41687774658203, 14.988351821899414, 
364, 1146692183, 0.92578965, 0.22598538, -0.20192902, 0.22598393, 4.630029201507568, 2.7522220611572266, 9.07143783569336, 40.22446823120117, -42.8566780090332, 40.4213981628418, 
365, 1146708850, 0.92079073, 0.2318787, -0.20746246, 0.23523642, 3.229555368423462, 5.473308086395264, 9.298044204711914, 49.30562210083008, -37.875179290771484, 64.96526336669922, 
366, 1146725517, 0.91575694, 0.2350392, -0.21495293, 0.24482913, 3.7438740730285645, 6.066378116607666, 8.963171005249023, 29.66286277770996, -45.15434265136719, 74.84661102294922, 
367, 1146742184, 0.91068584, 0.23696077, -0.2225015, 0.25493932, 3.351292848587036, 4.553895473480225, 8.868284225463867, 22.029848098754883, -42.97233200073242, 79.42808532714844, 
368, 1146758851, 0.9058098, 0.23914102, -0.22802046, 0.26519248, 3.20908784866333, 5.435212135314941, 8.786421775817871, 27.7047061920166, -29.82609748840332, 77.31942749023438, 
369, 1146775518, 0.9018171, 0.24118766, -0.22992897, 0.2751131, 3.874093532562256, 7.442535400390625, 8.651803016662598, 29.2262020111084, -7.539214134216309, 64.81068420410156, 
370, 1146792185, 0.8999344, 0.24005732, -0.22786662, 0.28384414, 3.0167810916900635, 8.247568130493164, 8.43694019317627, 9.94216537475586, 23.56123924255371, 49.66416931152344, 
371, 1146808852, 0.8990577, 0.23903354, -0.22484195, 0.28983516, 0.7265102863311768, 5.599536895751953, 7.115636825561523, 7.488927841186523, 26.914905548095703, 30.54833221435547, 
372, 1146825519, 0.8985798, 0.24008493, -0.22187254, 0.29272228, 0.8256756663322449, 5.5622076988220215, 7.063516616821289, 15.96358871459961, 18.566638946533203, 9.304783821105957, 
373, 1146842186, 0.8990363, 0.24139118, -0.2191694, 0.29228237, 1.0914676189422607, 5.3094964027404785, 7.528003215789795, 11.729609489440918, 13.016162872314453, -11.009769439697266, 
374, 1146858853, 0.9002007, 0.24387035, -0.2160492, 0.28894436, 1.2471153736114502, 4.17618465423584, 7.7542009353637695, 15.09862995147705, 9.898675918579102, -31.494644165039062, 
375, 1146875520, 0.90174127, 0.24765162, -0.21205513, 0.28383845, 2.0309081077575684, 4.011205196380615, 8.16421127319336, 21.642337799072266, 10.253860473632812, -46.51874923706055, 
376, 1146892187, 0.90376496, 0.25168586, -0.20681308, 0.27765393, 3.0379862785339355, 3.832962989807129, 8.598764419555664, 23.25171661376953, 16.3074893951416, -56.61032485961914, 
377, 1146908854, 0.9061869, 0.25538105, -0.20015027, 0.2711937, 3.5078446865081787, 3.7321720123291016, 8.57490062713623, 22.78518295288086, 25.82986831665039, -61.03989791870117, 
378, 1146925521, 0.9086181, 0.25863892, -0.19299014, 0.2650929, 3.622285842895508, 3.41043758392334, 8.307748794555664, 21.48072624206543, 30.356843948364258, -59.07661437988281, 
379, 1146942188, 0.91073036, 0.26199755, -0.1861437, 0.25938034, 3.6123623847961426, 3.346074104309082, 7.969203948974609, 22.641082763671875, 28.45998191833496, -55.641571044921875, 
380, 1146958855, 0.9123688, 0.265806, -0.18048625, 0.25368363, 4.152235507965088, 3.5111732482910156, 7.9252729415893555, 24.23115348815918, 19.62039566040039, -53.126983642578125, 
381, 1146975522, 0.9137826, 0.27086198, -0.17461492, 0.24727482, 5.97215461730957, 4.06351900100708, 8.5852689743042, 31.976787567138672, 17.205781936645508, -59.14207077026367, 
382, 1146992189, 0.915999, 0.27488685, -0.16616036, 0.24036193, 7.842843532562256, 5.705028057098389, 9.050010681152344, 27.808475494384766, 35.2415657043457, -67.26056671142578, 
383, 1147008856, 0.91910386, 0.27573213, -0.15570407, 0.23447028, 7.123173713684082, 4.661351680755615, 8.069076538085938, 10.57121753692627, 56.107460021972656, -62.470611572265625, 
384, 1147025523, 0.9214121, 0.27674815, -0.14586325, 0.23050861, 5.96799373626709, 2.7444818019866943, 6.859239101409912, 14.233895301818848, 54.805335998535156, -48.0362434387207, 
385, 1147042190, 0.9224889, 0.27934375, -0.13750575, 0.22819689, 6.414599895477295, 3.046635866165161, 6.771734237670898, 25.909175872802734, 44.86274337768555, -34.43316650390625, 
386, 1147058857, 0.9228355, 0.28243494, -0.13046831, 0.22711968, 6.530261516571045, 3.1087827682495117, 6.778879642486572, 29.56532859802246, 37.45967483520508, -23.431415557861328, 
387, 1147075524, 0.92254424, 0.2856788, -0.12546387, 0.22706549, 5.9252400398254395, 2.544785499572754, 6.489224433898926, 29.529438018798828, 25.806753158569336, -12.176970481872559, 
388, 1147092191, 0.921545, 0.2893723, -0.12309167, 0.2277431, 6.0083136558532715, 2.352585554122925, 6.589914321899414, 30.31713104248047, 9.296866416931152, -1.689105749130249, 
389, 1147108858, 0.92032003, 0.29299262, -0.121540494, 0.22889842, 7.126265048980713, 2.5964221954345703, 7.40194845199585, 29.44927978515625, 5.031476974487305, 3.3398170471191406, 
390, 1147125525, 0.91938066, 0.2959866, -0.11978167, 0.22974738, 6.596413612365723, 2.9626994132995605, 7.180414199829102, 25.01356315612793, 7.0260539054870605, 1.0015869140625, 
391, 1147142192, 0.9188842, 0.29752412, -0.119491026, 0.22989887, 5.78786563873291, 2.696526527404785, 6.831614971160889, 12.038358688354492, -0.9435274600982666, 0.03019738383591175, 
392, 1147158859, 0.9187102, 0.29819223, -0.12114207, 0.22886223, 5.470652103424072, 2.560523748397827, 6.736887454986572, 1.8682172298431396, -13.951574325561523, -3.3419671058654785, 
393, 1147175526, 0.91882324, 0.29823604, -0.12466651, 0.22644532, 5.539767742156982, 2.5965569019317627, 6.867257118225098, -6.73284912109375, -27.348228454589844, -8.192022323608398, 
394, 1147192193, 0.9193595, 0.29776308, -0.12926641, 0.22227351, 5.672706127166748, 2.7204198837280273, 6.965163230895996, -14.014678955078125, -36.52981948852539, -17.32943344116211, 
395, 1147208860, 0.9202715, 0.29623097, -0.13538797, 0.21683532, 5.139416694641113, 2.4887073040008545, 6.565762996673584, -24.903919219970703, -46.744712829589844, -21.891998291015625, 
396, 1147225527, 0.92106545, 0.29402208, -0.14398925, 0.21084781, 5.522437572479248, 2.188025951385498, 6.841595649719238, -33.12802505493164, -62.61787033081055, -19.54713249206543, 
397, 1147242194, 0.92186236, 0.29134193, -0.15266128, 0.20490144, 7.0068511962890625, 2.457385540008545, 7.683607578277588, -36.149898529052734, -62.25664138793945, -18.721881866455078, 
398, 1147258861, 0.922805, 0.28755412, -0.16048099, 0.1999743, 6.2225470542907715, 2.197377920150757, 7.527685165405273, -41.158843994140625, -53.044429779052734, -13.063427925109863, 
399, 1147275528, 0.92343223, 0.28307945, -0.16903962, 0.19637908, 5.813316822052002, 1.9435793161392212, 7.141728401184082, -44.40571212768555, -54.460697174072266, -2.003582000732422, 
400, 1147292195, 0.92372775, 0.2782164, -0.17845088, 0.19359334, 6.237131595611572, 2.455230474472046, 7.117586612701416, -46.4039192199707, -58.1242561340332, 5.655227184295654, 
401, 1147308862, 0.92417425, 0.2707577, -0.18890727, 0.19211078, 6.736660480499268, 3.3603591918945312, 7.167722225189209, -62.94987106323242, -58.58967590332031, 18.88016700744629, 
402, 1147325529, 0.9245047, 0.26066446, -0.20013967, 0.19310433, 6.224724769592285, 2.4937143325805664, 7.116688251495361, -77.27928924560547, -55.53617858886719, 39.60803985595703, 
403, 1147342196, 0.92469186, 0.24787073, -0.2106917, 0.19777319, 9.028838157653809, 5.400712490081787, 9.277134895324707, -88.20893096923828, -41.202144622802734, 65.63542938232422, 
404, 1147358863, 0.9270431, 0.23363774, -0.21292032, 0.2016675, 4.367071628570557, 4.316208839416504, 9.550692558288574, -90.86199951171875, 15.545722007751465, 45.65922927856445, 
405, 1147375530, 0.9288696, 0.22464484, -0.2119958, 0.20443599, 0.7041330933570862, 4.386995315551758, 9.251675605773926, -53.890296936035156, 25.775447845458984, 26.497060775756836, 
406, 1147392197, 0.9304671, 0.21980125, -0.20804289, 0.20648609, -0.022500742226839066, 5.73836612701416, 10.081777572631836, -23.8358154296875, 37.7552490234375, 11.552202224731445, 
407, 1147408864, 0.93103284, 0.21518634, -0.20635565, 0.21045235, 2.9362850189208984, 4.856642246246338, 8.521198272705078, -21.316476821899414, 24.252094268798828, 28.43505859375, 
408, 1147425531, 0.9313302, 0.2113005, -0.20455971, 0.21478276, 6.140597343444824, 2.4672954082489014, 8.073310852050781, -15.606027603149414, 24.013429641723633, 29.99079132080078, 
409, 1147442198, 0.9318893, 0.2082159, -0.2028011, 0.21702614, 5.206389427185059, 1.6935163736343384, 8.516374588012695, -13.836873054504395, 19.95183753967285, 15.156591415405273, 
410, 1147458865, 0.9319779, 0.20775361, -0.20113151, 0.21863624, 3.90279483795166, 0.9582002758979797, 8.964128494262695, 2.6454102993011475, 13.910666465759277, 8.259885787963867, 
411, 1147475532, 0.9318686, 0.20898972, -0.1992586, 0.2196367, 4.758968830108643, 2.7518599033355713, 8.337923049926758, 13.311383247375488, 11.494224548339844, 1.9993551969528198, 
412, 1147492199, 0.93184996, 0.21031414, -0.19758652, 0.21996243, 4.35615873336792, 3.0001726150512695, 8.340799331665039, 12.520432472229004, 9.229390144348145, -2.293945789337158, 
413, 1147508866, 0.9318301, 0.21165223, -0.19596323, 0.22021452, 4.844488143920898, 2.8183295726776123, 8.10644245147705, 12.434412002563477, 8.781641006469727, -2.707245111465454, 
414, 1147525533, 0.931827, 0.21312141, -0.19409171, 0.22046809, 4.803343772888184, 2.9735209941864014, 8.211223602294922, 13.6276216506958, 10.203534126281738, -3.2634265422821045, 
415, 1147542200, 0.9318961, 0.21420288, -0.19224906, 0.22074233, 4.612778186798096, 3.6553292274475098, 8.226919174194336, 11.021269798278809, 10.736737251281738, -2.6806466579437256, 
416, 1147558867, 0.93205225, 0.2142239, -0.1910222, 0.22112723, 4.396505355834961, 3.76936936378479, 8.179059028625488, 3.2980074882507324, 8.678545951843262, 0.2116890251636505, 
417, 1147575534, 0.9322382, 0.21366546, -0.19032297, 0.22148642, 4.514448642730713, 3.0498757362365723, 8.339726448059082, -1.3089179992675781, 6.178462982177734, 1.5486464500427246, 
418, 1147592201, 0.9325276, 0.21279585, -0.18985684, 0.22150543, 4.4560699462890625, 3.139111280441284, 8.308302879333496, -4.25572395324707, 4.793264389038086, -0.03831019997596741, 
419, 1147608868, 0.93290824, 0.21121836, -0.18977465, 0.22148329, 4.442529201507568, 3.4875056743621826, 8.217963218688965, -9.56981086730957, 3.467012882232666, 1.046343207359314, 
420, 1147625535, 0.9332758, 0.20954014, -0.18974158, 0.22155711, 4.49519157409668, 2.9333972930908203, 8.26833438873291, -10.155471801757812, 3.428363800048828, 1.8907557725906372, 
421, 1147642202, 0.93365157, 0.20789436, -0.18965444, 0.2215989, 4.439990043640137, 2.7156319618225098, 8.231441497802734, -9.918388366699219, 3.6907918453216553, 1.5533853769302368, 
422, 1147658869, 0.9339792, 0.20664576, -0.18953893, 0.22148453, 4.466820240020752, 2.4930896759033203, 8.346342086791992, -7.458156108856201, 2.982752799987793, 0.06606796383857727, 
423, 1147675536, 0.934183, 0.20598154, -0.18936783, 0.22139026, 4.346662998199463, 2.459386110305786, 8.39089584350586, -3.4132442474365234, 2.3162074089050293, -0.4598567485809326, 
424, 1147692203, 0.9342059, 0.20630786, -0.18903992, 0.22127026, 4.317178726196289, 2.182875633239746, 8.452438354492188, 3.4175918102264404, 1.5418332815170288, -1.8646492958068848, 
425, 1147708870, 0.9340688, 0.20738302, -0.18873662, 0.22110298, 4.324761867523193, 2.408864974975586, 8.41836166381836, 8.365645408630371, -0.033533427864313126, -2.867361307144165, 
426, 1147725537, 0.9338504, 0.20892261, -0.18839043, 0.22087128, 4.342180252075195, 2.7812321186065674, 8.351158142089844, 11.45319652557373, -0.6653349995613098, -3.824496269226074, 
427, 1147742204, 0.9335746, 0.21039705, -0.18820527, 0.22079492, 4.319418907165527, 3.3248202800750732, 8.196974754333496, 11.074896812438965, -1.4528616666793823, -2.4243390560150146, 
428, 1147758871, 0.9332728, 0.21156509, -0.18816453, 0.22098975, 4.312635898590088, 3.373962163925171, 8.298608779907227, 9.270096778869629, -1.5580658912658691, -0.03527510166168213, 
429, 1147775538, 0.9330278, 0.21172227, -0.18859941, 0.22150232, 4.43641996383667, 3.851233959197998, 8.166447639465332, 2.3826346397399902, -2.5405688285827637, 3.9215095043182373, 
430, 1147792205, 0.93289256, 0.21103756, -0.18912557, 0.22227535, 4.514991760253906, 3.4412500858306885, 8.11913013458252, -2.9949259757995605, -1.322569727897644, 6.657651424407959, 
431, 1147808872, 0.9328549, 0.20972241, -0.18966387, 0.22321752, 4.474680423736572, 3.374115467071533, 8.22703742980957, -6.988088607788086, -0.06284718960523605, 8.43432903289795, 
432, 1147825539, 0.9329719, 0.20761454, -0.19026193, 0.22418836, 4.555062770843506, 3.115607738494873, 8.244099617004395, -12.356657981872559, 1.0140717029571533, 9.505853652954102, 
433, 1147842206, 0.9331909, 0.2051314, -0.19082217, 0.22508438, 4.589587688446045, 2.991056203842163, 8.271909713745117, -14.95275592803955, 1.8637741804122925, 9.307498931884766, 
434, 1147858873, 0.93349123, 0.20227155, -0.19134022, 0.22598529, 4.4354023933410645, 2.946260929107666, 8.242581367492676, -17.415348052978516, 2.8328325748443604, 9.648585319519043, 
435, 1147875540, 0.93370444, 0.19995299, -0.19190809, 0.2266849, 4.38032341003418, 2.1990227699279785, 8.357015609741211, -14.16564655303955, 1.2772806882858276, 7.851336479187012, 
436, 1147892207, 0.9338193, 0.1983171, -0.1924569, 0.22718331, 4.367337226867676, 2.083228588104248, 8.392024993896484, -9.874634742736816, -0.07275290042161942, 5.783259868621826, 
437, 1147908874, 0.9336957, 0.19785699, -0.19308943, 0.22755584, 4.193928241729736, 1.7218862771987915, 8.651805877685547, -2.289320945739746, -2.935401201248169, 3.901172637939453, 
438, 1147925541, 0.9332882, 0.1988155, -0.1938978, 0.2277043, 4.6108856201171875, 1.890365719795227, 8.345549583435059, 6.646535873413086, -6.972899436950684, 1.256495475769043, 
439, 1147942208, 0.9328344, 0.20104234, -0.19403383, 0.22749285, 4.454561233520508, 1.8970555067062378, 8.40099048614502, 15.433445930480957, -5.196200370788574, -3.5981969833374023, 
440, 1147958875, 0.9322748, 0.20414159, -0.19393891, 0.22710752, 4.414229393005371, 2.1390535831451416, 8.346654891967773, 21.31479835510254, -5.4636406898498535, -6.036444187164307, 
441, 1147975542, 0.93156713, 0.2085306, -0.19339997, 0.22648224, 4.556312561035156, 2.0374534130096436, 8.215032577514648, 30.172218322753906, -5.168168544769287, -9.691849708557129, 
442, 1147992209, 0.9307057, 0.2142438, -0.1923605, 0.22557485, 4.477766036987305, 2.4906070232391357, 8.260210037231445, 39.28759765625, -4.632584571838379, -13.74416446685791, 
443, 1148008876, 0.92984337, 0.21992764, -0.19133042, 0.22453508, 4.444526672363281, 3.276966094970703, 8.168608665466309, 38.91627883911133, -4.845216274261475, -14.541065216064453, 
444, 1148025543, 0.9290554, 0.22497924, -0.19041869, 0.22356516, 4.560919761657715, 3.5503978729248047, 8.05675220489502, 34.66520309448242, -4.424032688140869, -13.19687271118164, 
445, 1148042210, 0.9283836, 0.22924608, -0.18951543, 0.22278726, 4.564547538757324, 3.828390598297119, 8.020456314086914, 29.702959060668945, -2.822638511657715, -11.104854583740234, 
446, 1148058877, 0.92796415, 0.23162113, -0.1890939, 0.22243619, 4.4538187980651855, 4.4712395668029785, 7.864056587219238, 17.037267684936523, -1.9965569972991943, -5.538682460784912, 
447, 1148075544, 0.9278006, 0.23225302, -0.18904419, 0.2225017, 4.4966230392456055, 4.278402328491211, 7.841334819793701, 5.462408065795898, -0.7069681882858276, -0.40340644121170044, 
448, 1148092211, 0.9278221, 0.23174709, -0.18906087, 0.2229251, 4.637420177459717, 3.8748767375946045, 7.846573352813721, -1.7444748878479004, 1.4239253997802734, 3.1897547245025635, 
449, 1148108878, 0.9280838, 0.2300392, -0.1890343, 0.22362632, 4.5521955490112305, 4.050232887268066, 7.7989935874938965, -9.377293586730957, 4.2995805740356445, 6.091342926025391, 
450, 1148125545, 0.9286653, 0.22665869, -0.18896677, 0.22471847, 4.53999137878418, 4.426619052886963, 7.8576555252075195, -19.997507095336914, 8.169648170471191, 10.210023880004883, 
451, 1148142212, 0.92962253, 0.22121906, -0.18897352, 0.22617081, 4.587882995605469, 4.295310020446777, 7.829322338104248, -33.39474868774414, 11.929280281066895, 14.730813026428223, 
452, 1148158879, 0.9307428, 0.21464978, -0.189082, 0.22779746, 4.413855075836182, 3.3387231826782227, 8.1467866897583, -40.81199645996094, 13.516881942749023, 17.224285125732422, 
453, 1148175546, 0.93168706, 0.20882368, -0.18919648, 0.22925234, 4.2157769203186035, 1.878957986831665, 8.444110870361328, -36.033626556396484, 11.8317289352417, 15.447341918945312, 
454, 1148192213, 0.9320287, 0.20623744, -0.1894627, 0.22998452, 4.0817084312438965, 1.187497615814209, 8.79516887664795, -15.577500343322754, 3.9264440536499023, 7.765689373016357, 
455, 1148208880, 0.9319383, 0.20541759, -0.19034271, 0.23035744, 3.895580768585205, 2.3727471828460693, 8.683499336242676, -5.056798934936523, -3.8813676834106445, 4.705309867858887, 
456, 1148225547, 0.9315899, 0.20560044, -0.19156954, 0.23058598, 4.284152984619141, 2.3211567401885986, 8.466108322143555, 1.0009702444076538, -8.243712425231934, 3.366239309310913, 
457, 1148242214, 0.9310363, 0.20638467, -0.19308904, 0.23085386, 4.265882968902588, 2.7901320457458496, 8.352590560913086, 4.737494468688965, -11.29130744934082, 3.562293291091919, 
458, 1148258881, 0.930283, 0.20753117, -0.19476366, 0.23145589, 4.4435625076293945, 2.779475450515747, 8.309894561767578, 7.53745174407959, -12.653523445129395, 5.7572021484375, 
459, 1148275548, 0.9293353, 0.20930706, -0.19654588, 0.23215605, 4.591946125030518, 2.3076987266540527, 8.387231826782227, 11.800771713256836, -14.467179298400879, 6.005533218383789, 
460, 1148292215, 0.92815346, 0.21190752, -0.19852896, 0.23283611, 4.360117435455322, 2.6548101902008057, 8.356767654418945, 17.064191818237305, -17.413015365600586, 5.419633388519287, 
461, 1148308882, 0.9267962, 0.2147604, -0.20076591, 0.23370914, 4.619967937469482, 3.049922466278076, 8.194583892822266, 18.79071807861328, -19.400423049926758, 6.9564409255981445, 
462, 1148325549, 0.925388, 0.21738176, -0.20297086, 0.23495749, 4.794802188873291, 3.144232988357544, 7.987557411193848, 17.956918716430664, -18.343109130859375, 9.70276927947998, 
463, 1148342216, 0.9239819, 0.21971916, -0.20490725, 0.23663081, 5.051235675811768, 2.9449377059936523, 7.788492679595947, 17.168258666992188, -15.535862922668457, 12.398459434509277, 
464, 1148358883, 0.92259365, 0.22249481, -0.20624582, 0.23828532, 4.985684871673584, 2.1598641872406006, 8.00302791595459, 20.869882583618164, -12.450089454650879, 10.726818084716797, 
465, 1148375550, 0.92131865, 0.22531033, -0.20728272, 0.23966916, 4.7807159423828125, 3.039229154586792, 7.856426239013672, 21.069114685058594, -10.853718757629395, 8.299877166748047, 
466, 1148392217, 0.9202, 0.22765116, -0.20808308, 0.24105707, 5.173276424407959, 2.7574150562286377, 7.738326549530029, 18.21257972717285, -8.344329833984375, 8.377429008483887, 
467, 1148408884, 0.91913986, 0.23026033, -0.20869146, 0.24209522, 4.840890407562256, 2.6583001613616943, 7.996042251586914, 19.638620376586914, -8.033161163330078, 5.379213809967041, 
468, 1148425551, 0.9178883, 0.23344669, -0.20974657, 0.24287881, 4.735961437225342, 3.0996310710906982, 8.231197357177734, 22.48546600341797, -12.497483253479004, 3.965251922607422, 
469, 1148442218, 0.91644245, 0.23664784, -0.21167275, 0.24356872, 4.654733180999756, 3.5895886421203613, 8.229965209960938, 21.30023765563965, -18.455354690551758, 5.0753631591796875, 
470, 1148458885, 0.91473085, 0.23983805, -0.21459214, 0.24432673, 4.705224990844727, 3.134450912475586, 8.23424243927002, 20.09484100341797, -24.979156494140625, 7.58613920211792, 
471, 1148475552, 0.9126374, 0.24355239, -0.21872978, 0.24481158, 4.613124370574951, 3.3045084476470947, 8.540796279907227, 21.572093963623047, -34.542972564697266, 7.745223522186279, 
472, 1148492219, 0.91016215, 0.24695686, -0.22470066, 0.2452077, 4.589938163757324, 3.882406234741211, 8.388387680053711, 17.048742294311523, -46.261375427246094, 11.367268562316895, 
473, 1148508886, 0.90731376, 0.24976575, -0.23227651, 0.24585871, 4.941312313079834, 4.073854446411133, 8.009580612182617, 11.63584041595459, -55.4583625793457, 17.243555068969727, 
474, 1148525553, 0.9042231, 0.25182322, -0.24100102, 0.24674739, 5.361667156219482, 3.7167160511016846, 7.622457504272461, 5.792898654937744, -61.34168243408203, 22.314311981201172, 
475, 1148542220, 0.90075666, 0.25363207, -0.25086212, 0.24774307, 5.28415060043335, 3.7459912300109863, 7.915229797363281, 3.1376149654388428, -68.42660522460938, 25.999380111694336, 
476, 1148558887, 0.8966301, 0.25523832, -0.2627556, 0.24873193, 5.4165263175964355, 3.9671006202697754, 8.0999116897583, -0.44520553946495056, -81.82987976074219, 30.978382110595703, 
477, 1148575554, 0.8916072, 0.2567033, -0.27738217, 0.24939787, 5.435927391052246, 3.743628740310669, 8.451640129089355, -5.009942531585693, -100.63716125488281, 35.5775146484375, 
478, 1148592221, 0.8848939, 0.258692, -0.29618144, 0.24963568, 4.992190837860107, 3.9717397689819336, 9.318675994873047, -6.791848659515381, -131.11810302734375, 42.223358154296875, 
479, 1148608888, 0.87561935, 0.26138166, -0.32055137, 0.2494341, 4.843571186065674, 3.3614416122436523, 9.566869735717773, -8.433454513549805, -172.260986328125, 52.43899154663086, 
480, 1148625555, 0.863042, 0.264593, -0.3510872, 0.24877106, 4.852128982543945, 4.330030918121338, 9.79822826385498, -10.947649002075195, -218.45281982421875, 65.26607513427734, 
481, 1148642222, 0.8463445, 0.26796412, -0.38789168, 0.24786398, 4.696788311004639, 3.3239517211914062, 8.90805435180664, -13.826794624328613, -266.4071350097656, 81.90957641601562, 
482, 1148658889, 0.82490337, 0.27213806, -0.42964804, 0.24673474, 4.474928855895996, 2.8667240142822266, 7.403671741485596, -9.452056884765625, -309.75537109375, 95.70398712158203, 
483, 1148675556, 0.7994088, 0.2762651, -0.47355622, 0.24569884, 5.799602031707764, 2.206268548965454, 5.538992404937744, -5.517343044281006, -333.76507568359375, 107.29173278808594, 
484, 1148692223, 0.77125436, 0.27833113, -0.51777864, 0.24413957, 7.148682117462158, 2.3255159854888916, 3.7222321033477783, -14.047224998474121, -341.7114562988281, 116.22088623046875, 
485, 1148708890, 0.7433871, 0.2751995, -0.55961627, 0.24180742, 10.684075355529785, 3.74487042427063, 2.960636615753174, -40.93745803833008, -320.7899169921875, 125.58061218261719, 
486, 1148725557, 0.72090834, 0.26224563, -0.59570843, 0.23801287, 13.496711730957031, 3.711731433868408, 3.557244062423706, -97.450439453125, -257.07574462890625, 136.07618713378906, 
487, 1148742224, 0.70550686, 0.24691832, -0.6219041, 0.23350964, 14.85527515411377, 2.2071805000305176, 2.1108458042144775, -108.69093322753906, -176.39215087890625, 112.85459899902344, 
488, 1148758891, 0.69676286, 0.23292273, -0.63867575, 0.22882715, 12.050589561462402, 2.2275516986846924, 1.5260086059570312, -99.17145538330078, -104.63092803955078, 79.59185028076172, 
489, 1148775558, 0.69448847, 0.22078493, -0.647377, 0.2232554, 8.40662956237793, 1.9228817224502563, 1.9866164922714233, -91.84437561035156, -41.90302658081055, 44.08138656616211, 
490, 1148792225, 0.6967156, 0.20816182, -0.65022266, 0.22015151, 4.575963497161865, 0.41203057765960693, 2.663721799850464, -81.0272216796875, 10.567891120910645, 42.242008209228516, 
491, 1148808892, 0.7021648, 0.19476184, -0.6465439, 0.22586228, -0.43087100982666016, -2.2809081077575684, 5.174001216888428, -40.083858489990234, 69.98896789550781, 73.7229995727539, 
492, 1148825559, 0.7119938, 0.18102986, -0.63516116, 0.2384609, 5.867132186889648, 1.4727782011032104, 5.472783088684082, -4.9770331382751465, 136.32632446289062, 91.30298614501953, 
493, 1148842226, 0.72626007, 0.16031551, -0.6195552, 0.25099203, -0.06796906888484955, 5.202406406402588, 3.108851432800293, -38.07699966430664, 187.6958770751953, 108.96376037597656, 
494, 1148858893, 0.73957235, 0.14685108, -0.6028839, 0.26076537, 1.5658340454101562, -1.7297676801681519, 1.547357439994812, -10.761685371398926, 173.35165405273438, 64.83875274658203, 
495, 1148875560, 0.75216883, 0.1385553, -0.58673894, 0.2660486, 1.3348575830459595, 4.321859836578369, 1.9942642450332642, -3.3149631023406982, 153.8885955810547, 22.36532211303711, 
496, 1148892227, 0.76530004, 0.13273533, -0.5709271, 0.26596925, 4.458367824554443, 3.1916239261627197, 2.6027698516845703, -13.28836727142334, 144.66734313964844, -15.96264934539795, 
497, 1148908894, 0.77846634, 0.13045365, -0.55487025, 0.26285204, 5.239741325378418, 1.8671356439590454, 3.124502182006836, -6.195168972015381, 136.83738708496094, -46.08454513549805, 
498, 1148925561, 0.79150224, 0.13317771, -0.53734094, 0.25894558, 7.168652534484863, 1.638013482093811, 3.689256191253662, 20.357791900634766, 134.4550323486328, -70.46477508544922, 
499, 1148942228, 0.8044404, 0.13607804, -0.5189147, 0.25511974, 7.928475856781006, 1.6504203081130981, 4.10479211807251, 23.295978546142578, 138.72763061523438, -71.2976303100586, 
500, 1148958895, 0.81699765, 0.13901806, -0.4995289, 0.25230885, 8.371451377868652, 1.3240904808044434, 4.550548076629639, 29.16800880432129, 143.5550537109375, -66.02977752685547, 
501, 1148975562, 0.82897395, 0.14229295, -0.4797356, 0.24981746, 9.327591896057129, 1.3525043725967407, 4.8180084228515625, 33.403053283691406, 143.57272338867188, -64.74897766113281, 
502, 1148992229, 0.8402422, 0.14583997, -0.4601933, 0.24687254, 9.298556327819824, 1.564673662185669, 4.990696907043457, 33.71287536621094, 138.90370178222656, -66.7524642944336, 
503, 1149008896, 0.8505755, 0.15057951, -0.44138095, 0.24296117, 9.483920097351074, 1.1011511087417603, 5.175251007080078, 37.23600769042969, 128.7461395263672, -73.77545166015625, 
504, 1149025563, 0.8596598, 0.1562795, -0.42389423, 0.238486, 9.668140411376953, 1.2238237857818604, 5.424158096313477, 40.2188606262207, 115.0315170288086, -76.51935577392578, 
505, 1149042230, 0.8672849, 0.16213046, -0.40800014, 0.23466285, 9.72571849822998, 1.0067976713180542, 5.66520357131958, 41.96651840209961, 101.83761596679688, -68.9939956665039, 
506, 1149058897, 0.87304664, 0.16777642, -0.39429823, 0.23274396, 9.739959716796875, 1.020308494567871, 5.825087547302246, 44.627838134765625, 86.01522064208984, -51.611854553222656, 
507, 1149075564, 0.8770331, 0.17386389, -0.38281813, 0.23245412, 9.659214973449707, 1.1101982593536377, 5.9593329429626465, 50.18696594238281, 69.06538391113281, -37.626800537109375, 
508, 1149092231, 0.87954915, 0.18156543, -0.37365252, 0.23197266, 9.600322723388672, 1.3234100341796875, 6.371130466461182, 57.47709274291992, 48.45896530151367, -37.913597106933594, 
509, 1149108898, 0.881287, 0.19079535, -0.36604458, 0.23009154, 10.731457710266113, 1.8802359104156494, 7.435335159301758, 61.6143913269043, 32.882869720458984, -47.11970520019531, 
510, 1149125565, 0.88374823, 0.2007412, -0.35690475, 0.22651932, 11.580488204956055, 2.2583553791046143, 8.074868202209473, 63.17595291137695, 40.66396713256836, -62.32316207885742, 
511, 1149142232, 0.8865899, 0.210126, -0.34706813, 0.22214669, 10.720239639282227, 1.700600266456604, 7.804855823516846, 58.36851501464844, 45.630489349365234, -67.36723327636719, 
512, 1149158899, 0.88874924, 0.21838875, -0.33858958, 0.21860565, 9.807121276855469, 1.2982425689697266, 7.3187971115112305, 52.435447692871094, 38.66515350341797, -56.62704849243164, 
513, 1149175566, 0.88976467, 0.22609568, -0.3320541, 0.21665634, 9.357475280761719, 0.6981622576713562, 7.021498680114746, 51.55699920654297, 27.379663467407227, -40.98417663574219, 
514, 1149192233, 0.8893219, 0.23408365, -0.3278402, 0.21640736, 8.872833251953125, 0.5178593397140503, 6.861896991729736, 55.986053466796875, 12.098933219909668, -25.464584350585938, 
515, 1149208900, 0.8876178, 0.24349679, -0.32519913, 0.21700126, 8.740409851074219, 0.6496704816818237, 6.839083671569824, 66.31348419189453, -1.1014031171798706, -19.136838912963867, 
516, 1149225567, 0.88512236, 0.25385606, -0.32373437, 0.21751273, 9.03189468383789, 1.5209428071975708, 6.788172245025635, 71.49687957763672, -11.577462196350098, -18.628305435180664, 
517, 1149242234, 0.88249093, 0.26399785, -0.3230528, 0.2171448, 9.796133041381836, 2.192819356918335, 6.707460880279541, 67.2973861694336, -17.83192253112793, -21.94253158569336, 
518, 1149258901, 0.8803627, 0.27308175, -0.32234472, 0.21559684, 9.729029655456543, 3.042297840118408, 6.424755096435547, 57.39625930786133, -17.086212158203125, -27.570878982543945, 
519, 1149275568, 0.8789903, 0.27998343, -0.3216768, 0.21332939, 10.808558464050293, 3.285861015319824, 6.071588039398193, 41.1187858581543, -13.74168872833252, -28.148237228393555, 
520, 1149292235, 0.87879235, 0.28486714, -0.31982538, 0.21044348, 10.68170166015625, 3.1280243396759033, 5.654125690460205, 27.031644821166992, -2.182522773742676, -31.442903518676758, 
521, 1149308902, 0.8795479, 0.28866252, -0.3164882, 0.20713434, 10.364240646362305, 2.5181961059570312, 5.248427867889404, 19.80998992919922, 9.676671981811523, -35.91874694824219, 
522, 1149325569, 0.8811443, 0.2922174, -0.31126624, 0.20324168, 10.704257011413574, 2.0268394947052, 4.827059268951416, 18.106182098388672, 22.130014419555664, -43.890167236328125, 
523, 1149342236, 0.8829308, 0.29432502, -0.30597, 0.20047072, 8.335124969482422, 1.6386446952819824, 4.317760467529297, 11.469046592712402, 27.311498641967773, -34.447139739990234, 
524, 1149358903, 0.88450754, 0.29598957, -0.3009849, 0.19860744, 8.724841117858887, 1.3162845373153687, 3.9544899463653564, 10.693665504455566, 27.46021842956543, -27.114564895629883, 
525, 1149375570, 0.8854985, 0.29742852, -0.29699948, 0.19804038, 8.394086837768555, 1.1043719053268433, 3.5789310932159424, 11.84046459197998, 23.156152725219727, -15.963729858398438, 
526, 1149392237, 0.8856468, 0.29898328, -0.29431283, 0.19904487, 7.865200996398926, 1.1883944272994995, 3.248044490814209, 15.72092342376709, 16.623899459838867, -2.8624486923217773, 
527, 1149408904, 0.8848035, 0.3004964, -0.29358354, 0.20157784, 7.3405656814575195, 1.7682372331619263, 3.350510358810425, 17.92798614501953, 5.935855388641357, 11.87889575958252, 
528, 1149425571, 0.8830198, 0.30163348, -0.29524478, 0.20524155, 6.7995500564575195, 2.329110622406006, 3.7035105228424072, 16.555158615112305, -7.614983081817627, 25.73459243774414, 
529, 1149442238, 0.88093024, 0.3024706, -0.29792956, 0.20907257, 6.314164161682129, 3.153193473815918, 4.253314018249512, 14.265328407287598, -13.656888961791992, 29.89813995361328, 
530, 1149458905, 0.8780883, 0.30292007, -0.30304107, 0.21299466, 6.4699015617370605, 3.138521671295166, 4.897495746612549, 10.177724838256836, -29.134431838989258, 37.36542892456055, 
531, 1149475572, 0.87545425, 0.3038732, -0.3076749, 0.21581721, 6.355340957641602, 3.4406769275665283, 5.610909461975098, 11.193613052368164, -28.83658790588379, 28.371349334716797, 
532, 1149492239, 0.87357235, 0.30516157, -0.31068686, 0.21730518, 6.72252893447876, 3.280444622039795, 5.984373092651367, 11.224080085754395, -20.768672943115234, 15.123099327087402, 
533, 1149508906, 0.87256896, 0.30638814, -0.3117883, 0.21803175, 6.441564083099365, 2.9222309589385986, 5.830488204956055, 10.241719245910645, -8.921863555908203, 5.355132579803467, 
534, 1149525573, 0.87194365, 0.3078709, -0.3118113, 0.21841124, 6.942562103271484, 1.9745404720306396, 5.506828784942627, 11.861388206481934, -2.7575736045837402, -0.12061665952205658, 
535, 1149542240, 0.8708341, 0.3092402, -0.3124164, 0.2200331, 4.866109848022461, 1.7872560024261475, 5.195539474487305, 14.007638931274414, -4.481836795806885, 9.51447582244873, 
536, 1149558907, 0.86906844, 0.31030217, -0.3145173, 0.22251219, 5.6971869468688965, 1.7454440593719482, 4.9360761642456055, 13.153973579406738, -12.567063331604004, 19.47242546081543, 
537, 1149575574, 0.86675215, 0.31135198, -0.31780466, 0.22539079, 5.937997341156006, 1.60321843624115, 5.024682521820068, 13.316848754882812, -19.978031158447266, 25.24626922607422, 
538, 1149592241, 0.8643901, 0.31240383, -0.32123485, 0.22812706, 6.01309871673584, 1.840350866317749, 5.089981555938721, 12.906352043151855, -21.237462997436523, 24.75762939453125, 
539, 1149608908, 0.8624058, 0.31273368, -0.32478002, 0.23015656, 6.007589340209961, 2.279541015625, 5.117844581604004, 6.07396936416626, -21.474071502685547, 21.793676376342773, 
540, 1149625575, 0.86088985, 0.3122219, -0.3285101, 0.23123038, 5.947684288024902, 2.1386523246765137, 4.5068511962890625, -2.343190908432007, -22.24937629699707, 17.656023025512695, 
541, 1149642242, 0.8592817, 0.31138718, -0.3334755, 0.23122944, 5.744356632232666, 2.4950342178344727, 3.890861988067627, -8.44406509399414, -31.559938430786133, 14.814502716064453, 
542, 1149658909, 0.85700166, 0.30986863, -0.34097114, 0.2307992, 6.724316120147705, 2.6764516830444336, 3.303894519805908, -16.055116653442383, -47.87614440917969, 20.32782745361328, 
543, 1149675576, 0.85480535, 0.3076781, -0.3498871, 0.22851917, 7.1811842918396, 3.014317750930786, 3.1512718200683594, -26.791759490966797, -58.90447998046875, 13.892062187194824, 
544, 1149692243, 0.8531632, 0.30484113, -0.35939172, 0.22365648, 7.556630611419678, 2.6421897411346436, 2.7984917163848877, -38.91289520263672, -65.4571533203125, 0.639133095741272, 
545, 1149708910, 0.8510166, 0.3020298, -0.3712691, 0.21612054, 7.131590843200684, 2.182636260986328, 1.8461612462997437, -47.97323989868164, -86.23688507080078, -9.361374855041504, 
546, 1149725577, 0.847037, 0.30259827, -0.38594946, 0.20495312, 11.632833480834961, 4.4448394775390625, 1.9355640411376953, -37.84366989135742, -119.85124206542969, -30.70186424255371, 
547, 1149742244, 0.8524923, 0.3015464, -0.37772748, 0.19912036, 29.58142852783203, 1.5523350238800049, 16.82818031311035, -20.506725311279297, 52.00725555419922, -56.28015899658203, 
548, 1149758911, 0.86699, 0.29922792, -0.34245104, 0.2037609, 7.518030643463135, 9.570282936096191, 3.8300554752349854, 17.640989303588867, 257.6064147949219, -60.188114166259766, 
549, 1149775578, 0.8842339, 0.2874203, -0.31093904, 0.19707079, 4.526942729949951, 7.997528076171875, 12.554160118103027, -76.58201599121094, 231.62518310546875, -101.43783569335938, 
550, 1149792245, 0.8934472, 0.2803487, -0.2883055, 0.20009151, 6.703078746795654, 7.793200492858887, 7.277501106262207, -23.166213989257812, 173.1477508544922, -24.020505905151367, 
551, 1149808912, 0.90160793, 0.271515, -0.26731306, 0.20475926, 5.693000316619873, 6.3633317947387695, 8.31603717803955, -30.974321365356445, 166.57208251953125, -5.762544631958008, 
552, 1149825579, 0.90820855, 0.2614548, -0.2503432, 0.21006386, 4.448753356933594, 5.206972122192383, 9.050275802612305, -40.163875579833984, 141.66326904296875, 10.1746826171875, 
553, 1149842246, 0.91385514, 0.2512122, -0.23549484, 0.21518292, 5.2091217041015625, 3.6184141635894775, 8.067977905273438, -42.967220306396484, 126.67680358886719, 14.545079231262207, 
554, 1149858913, 0.9189809, 0.24176551, -0.22161442, 0.2188849, 4.329878330230713, 1.260818362236023, 8.989725112915039, -40.78522491455078, 116.11825561523438, 6.803802013397217, 
555, 1149875580, 0.92361397, 0.23388961, -0.20870213, 0.22062787, 4.601938724517822, 1.6476645469665527, 8.792609214782715, -34.449981689453125, 103.61260223388672, -5.618413925170898, 
556, 1149892247, 0.9271596, 0.22641885, -0.19942588, 0.2221241, 3.9513065814971924, 4.60999059677124, 9.656027793884277, -35.974632263183594, 77.9402084350586, -0.2707653045654297, 
557, 1149908914, 0.9287064, 0.22180235, -0.19511454, 0.22413947, 2.968134641647339, 3.2256975173950195, 10.327524185180664, -21.542409896850586, 39.9801025390625, 9.923408508300781, 
558, 1149925581, 0.9286397, 0.2223952, -0.19377126, 0.22499216, 3.7715065479278564, 0.3701566457748413, 9.777257919311523, 8.056427955627441, 9.03261661529541, 2.5323033332824707, 
559, 1149942248, 0.92793345, 0.22663191, -0.193095, 0.22425865, 4.442728519439697, 1.529233694076538, 8.724143981933594, 29.186552047729492, -4.156936168670654, -10.450727462768555, 
560, 1149958915, 0.92693055, 0.23282018, -0.19212772, 0.22289401, 4.745359420776367, 2.7382915019989014, 8.28332233428955, 41.72704315185547, -6.6933064460754395, -17.072965621948242, 
561, 1149975582, 0.925882, 0.23922777, -0.19074097, 0.22165452, 4.782260894775391, 4.225371837615967, 7.774381160736084, 44.00992965698242, -4.217477798461914, -17.171457290649414, 
562, 1149992249, 0.92496616, 0.24469215, -0.1892204, 0.22081548, 4.6997904777526855, 4.267797470092773, 7.696712493896484, 38.505741119384766, -1.0938799381256104, -13.805665016174316, 
563, 1150008916, 0.92411023, 0.24949919, -0.18782306, 0.22021131, 4.405552864074707, 3.904240369796753, 7.806820869445801, 34.33264923095703, -0.4069172441959381, -11.33835220336914, 
564, 1150025583, 0.9232885, 0.25382474, -0.18680044, 0.2195841, 4.445484161376953, 3.91282320022583, 7.788552284240723, 30.613908767700195, -2.0558812618255615, -10.27190113067627, 
565, 1150042250, 0.92244846, 0.25802502, -0.1858087, 0.2190596, 4.680245399475098, 3.75484037399292, 7.731356620788574, 29.931631088256836, -1.9099009037017822, -9.37673282623291, 
566, 1150058917, 0.9217335, 0.26193455, -0.18447357, 0.21855778, 4.62647819519043, 4.087075710296631, 7.609807014465332, 28.410005569458008, 0.9055655002593994, -9.659930229187012, 
567, 1150075584, 0.9212504, 0.26498204, -0.18296613, 0.21818715, 4.714503288269043, 4.004679203033447, 7.590909957885742, 22.95073127746582, 3.824739933013916, -8.393563270568848, 
568, 1150092251, 0.920911, 0.2678532, -0.18093845, 0.21780522, 4.664945602416992, 3.7811577320098877, 7.708442687988281, 22.33534812927246, 7.544582843780518, -9.407904624938965, 
569, 1150108918, 0.9206423, 0.27032253, -0.17901652, 0.21747829, 4.114006996154785, 4.383754253387451, 7.6166462898254395, 19.572311401367188, 7.667354583740234, -8.472471237182617, 
570, 1150125585, 0.92032766, 0.27232024, -0.17789316, 0.21723944, 4.218339443206787, 4.24136209487915, 7.805718421936035, 15.581730842590332, 3.420297622680664, -5.778083324432373, 
571, 1150142252, 0.9200803, 0.2738334, -0.1772346, 0.21692322, 4.24430513381958, 4.495906352996826, 7.635087490081787, 11.599922180175781, 1.137896180152893, -4.903087139129639, 
572, 1150158919, 0.919993, 0.2742462, -0.17716248, 0.2168303, 4.369979381561279, 4.926563739776611, 7.424519062042236, 3.7295424938201904, -0.31875646114349365, -1.281858205795288, 
573, 1150175586, 0.92022604, 0.27307284, -0.17729488, 0.21721332, 4.451920032501221, 5.092239856719971, 7.320010185241699, -6.641355037689209, 2.0407180786132812, 3.573843002319336, 
574, 1150192253, 0.9207823, 0.27024117, -0.17782325, 0.2179651, 4.488229751586914, 4.8010945320129395, 7.363276958465576, -17.8924617767334, 3.0998964309692383, 8.19434642791748, 
575, 1150208920, 0.921643, 0.2658881, -0.17850733, 0.21911842, 4.591081142425537, 4.87619686126709, 7.445891857147217, -27.839555740356445, 5.5140228271484375, 12.433829307556152, 
576, 1150225587, 0.9229264, 0.25960857, -0.17918852, 0.220685, 4.4564290046691895, 4.6010050773620605, 7.572357654571533, -40.31688690185547, 9.712660789489746, 16.781429290771484, 
577, 1150242254, 0.9241836, 0.25339505, -0.17988451, 0.22207524, 4.520730018615723, 3.5840113162994385, 7.99838399887085, -40.096736907958984, 9.17173957824707, 15.652719497680664, 
578, 1150258921, 0.92540365, 0.24718656, -0.180591, 0.22341439, 4.4426422119140625, 3.7557616233825684, 7.9966206550598145, -40.07655715942383, 8.96336555480957, 15.398177146911621, 
579, 1150275588, 0.9267003, 0.24046987, -0.18129626, 0.22479461, 4.548422336578369, 3.8013954162597656, 7.925107479095459, -43.38725662231445, 9.91771125793457, 16.173303604125977, 
580, 1150292255, 0.9279293, 0.23392917, -0.18179333, 0.22622065, 4.331387519836426, 3.321179151535034, 8.067338943481445, -41.77591323852539, 10.96466064453125, 16.01050567626953, 
581, 1150308922, 0.9290156, 0.22781666, -0.1822799, 0.2276048, 4.335174083709717, 3.2959752082824707, 8.136592864990234, -38.84899139404297, 10.119349479675293, 15.415002822875977, 
582, 1150325589, 0.92999554, 0.22222134, -0.18260553, 0.2288703, 4.351225852966309, 2.797454833984375, 8.229950904846191, -35.274051666259766, 10.017755508422852, 13.925557136535645, 
583, 1150342256, 0.93074906, 0.21786442, -0.18275619, 0.22987324, 4.204288005828857, 2.3867876529693604, 8.307413101196289, -27.05948829650879, 8.502150535583496, 10.781764030456543, 
584, 1150358923, 0.931149, 0.21544215, -0.18282224, 0.23048308, 4.166625499725342, 1.8589682579040527, 8.50048828125, -14.502262115478516, 4.950593948364258, 6.265371322631836, 
585, 1150375590, 0.9312176, 0.21490891, -0.18281755, 0.23070753, 4.174625396728516, 1.8389205932617188, 8.528360366821289, -2.2790756225585938, 1.4186363220214844, 1.8410663604736328, 
586, 1150392257, 0.93099266, 0.21606278, -0.18280856, 0.2305442, 4.193689823150635, 2.4296467304229736, 8.549439430236816, 8.487333297729492, -2.175741672515869, -2.307058095932007, 
587, 1150408924, 0.9305978, 0.21800596, -0.18294428, 0.2302019, 4.31210470199585, 2.751115560531616, 8.323060035705566, 13.34344482421875, -4.8357768058776855, -3.9628570079803467, 
588, 1150425591, 0.9300628, 0.2208893, -0.18295592, 0.22960468, 4.296902179718018, 2.601635217666626, 8.323174476623535, 19.445898056030273, -6.090242862701416, -6.742471694946289, 
589, 1150442258, 0.92936945, 0.22417654, -0.18322825, 0.22900797, 4.18031644821167, 3.499542713165283, 8.259788513183594, 21.86297607421875, -8.596259117126465, -6.603741645812988, 
590, 1150458925, 0.92869085, 0.22733144, -0.18346308, 0.22846241, 4.576680660247803, 3.1237258911132812, 8.077295303344727, 21.11326789855957, -8.054165840148926, -6.1902360916137695, 
591, 1150475592, 0.92805743, 0.23038048, -0.18356107, 0.2279025, 4.445374488830566, 3.4438557624816895, 8.050554275512695, 20.563629150390625, -6.978238105773926, -6.434274196624756, 
592, 1150492259, 0.9274052, 0.23335594, -0.18367371, 0.2274397, 4.457191467285156, 3.4041996002197266, 8.079748153686523, 20.22109603881836, -6.828082084655762, -5.669566631317139, 
593, 1150508926, 0.92684454, 0.23549283, -0.1840821, 0.22719233, 4.296789169311523, 4.231262683868408, 7.969237804412842, 14.535002708435059, -6.941373825073242, -2.9060001373291016, 
594, 1150525593, 0.9264594, 0.23645453, -0.18469073, 0.2272704, 4.579624652862549, 4.003815650939941, 7.8177103996276855, 6.852436542510986, -5.6340718269348145, 0.7089468836784363, 
595, 1150542260, 0.92622274, 0.23656984, -0.18528791, 0.22762877, 4.584221363067627, 3.797011137008667, 7.886414051055908, 1.5875263214111328, -3.5942492485046387, 3.3217110633850098, 
596, 1150558927, 0.9261397, 0.23581883, -0.18590456, 0.228242, 4.480498313903809, 4.052967071533203, 7.911969184875488, -3.8897945880889893, -1.7510827779769897, 5.8404388427734375, 
597, 1150575594, 0.92625, 0.23354645, -0.18700558, 0.22922903, 4.431996822357178, 4.525713920593262, 7.904731273651123, -14.178738594055176, -1.594193696975708, 10.651065826416016, 
598, 1150592261, 0.92667305, 0.22927877, -0.18862699, 0.23049608, 4.488956928253174, 4.499485015869141, 7.863609790802002, -27.85757064819336, -0.9135122895240784, 15.348594665527344, 
599, 1150608928, 0.9273526, 0.22370939, -0.1901746, 0.2319591, 4.75963830947876, 3.6465718746185303, 7.8043293952941895, -36.19520568847656, 2.262190341949463, 17.7697811126709, 
600, 1150625595, 0.92803305, 0.2187061, -0.19118053, 0.23317933, 4.681249618530273, 2.355773448944092, 8.121889114379883, -32.04513931274414, 4.4444756507873535, 14.64967155456543, 
601, 1150642262, 0.9285772, 0.21459167, -0.19194502, 0.23420472, 4.515750408172607, 2.2176730632781982, 8.243183135986328, -26.030048370361328, 4.088822841644287, 12.091867446899414, 
602, 1150658929, 0.9288428, 0.21205941, -0.19255905, 0.2349536, 4.356566905975342, 1.9400314092636108, 8.501969337463379, -15.63469409942627, 1.7255425453186035, 8.46252155303955, 
603, 1150675596, 0.92879254, 0.2111314, -0.19320603, 0.23545621, 4.410222053527832, 1.8900552988052368, 8.506845474243164, -5.298864841461182, -1.857337236404419, 5.321551322937012, 
604, 1150692263, 0.9283991, 0.2120475, -0.19375308, 0.23573501, 4.3595781326293945, 2.155121326446533, 8.359318733215332, 6.849900722503662, -4.988452434539795, 1.8484050035476685, 
605, 1150708930, 0.92777866, 0.2139005, -0.19443946, 0.23593827, 4.326101303100586, 2.6943576335906982, 8.322278022766113, 12.840271949768066, -7.81209135055542, 0.6875863075256348, 
606, 1150725597, 0.9269083, 0.21696095, -0.19508208, 0.23603395, 4.58738374710083, 2.066592216491699, 8.267491340637207, 20.83824920654297, -9.987894058227539, -1.2736449241638184, 
607, 1150742264, 0.92560315, 0.22267582, -0.19517703, 0.23575495, 4.501102924346924, 1.672298550605774, 8.401101112365723, 38.7965087890625, -11.949196815490723, -7.337615013122559, 
608, 1150758931, 0.9239695, 0.22975661, -0.19529434, 0.23527081, 4.486443519592285, 3.088392734527588, 8.229668617248535, 47.69124984741211, -15.063562393188477, -9.916336059570312, 
609, 1150775598, 0.9222246, 0.23664922, -0.19582064, 0.23484756, 4.558911323547363, 3.7177939414978027, 8.124781608581543, 46.09232711791992, -17.415246963500977, -8.45218276977539, 
610, 1150792265, 0.9206284, 0.24168356, -0.19728547, 0.2347578, 4.588135719299316, 4.3120598793029785, 7.769994735717773, 32.9951057434082, -19.625734329223633, -2.5495588779449463, 
611, 1150808932, 0.9192504, 0.24525096, -0.1989339, 0.23506574, 4.876489162445068, 4.2727251052856445, 7.545475006103516, 23.580751419067383, -17.464771270751953, 1.9141582250595093, 
612, 1150825599, 0.9180866, 0.2476065, -0.20062667, 0.23570587, 5.008163928985596, 3.9677417278289795, 7.489467620849609, 15.934597969055176, -14.932543754577637, 5.403546333312988, 
613, 1150842266, 0.91708285, 0.24938256, -0.20217572, 0.23641612, 4.9179911613464355, 3.738172769546509, 7.57594108581543, 12.328008651733398, -12.74374771118164, 6.142265319824219, 
614, 1150858933, 0.9160603, 0.25119856, -0.20380923, 0.23705447, 4.823010444641113, 3.2597944736480713, 7.899599552154541, 12.372101783752441, -13.489169120788574, 5.8100433349609375, 
615, 1150875600, 0.91488785, 0.25336164, -0.20596209, 0.23741952, 4.676434516906738, 3.578892469406128, 8.051762580871582, 13.588798522949219, -18.009729385375977, 4.741130828857422, 
616, 1150892267, 0.9135213, 0.25510442, -0.20928012, 0.23791316, 4.5766754150390625, 4.120863437652588, 8.046539306640625, 9.564370155334473, -24.707040786743164, 8.49617862701416, 
617, 1150908934, 0.91180533, 0.25668108, -0.2139189, 0.23867331, 4.649799346923828, 4.111835956573486, 8.057209968566895, 7.351607799530029, -32.77299880981445, 13.298123359680176, 
618, 1150925601, 0.90976864, 0.25785157, -0.2196263, 0.23999602, 4.810178756713867, 4.317221164703369, 7.756435394287109, 4.436943054199219, -38.293548583984375, 19.8298282623291, 
619, 1150942268, 0.9074061, 0.2587337, -0.2264252, 0.24166702, 5.167253017425537, 3.8488399982452393, 7.84637451171875, 1.9335204362869263, -44.52217483520508, 24.928903579711914, 
620, 1150958935, 0.904775, 0.25952417, -0.23434184, 0.24313217, 5.025629043579102, 3.6150007247924805, 7.972771644592285, -0.33869999647140503, -52.12792205810547, 26.226118087768555, 
621, 1150975602, 0.9016918, 0.26032037, -0.24381356, 0.24441844, 5.031765937805176, 3.6900758743286133, 8.028801918029785, -2.3799402713775635, -62.864173889160156, 28.64189910888672, 
622, 1150992269, 0.89788276, 0.2619005, -0.2546775, 0.24567066, 5.408919334411621, 3.5007035732269287, 8.02646541595459, 1.3746135234832764, -74.10289001464844, 30.819705963134766, 
623, 1151008936, 0.89334434, 0.26361087, -0.26770523, 0.24653411, 5.2961249351501465, 3.426736831665039, 8.158781051635742, -0.8556838035583496, -89.67330932617188, 33.30727767944336, 
624, 1151025603, 0.88753605, 0.26599237, -0.28394395, 0.24678688, 5.205543041229248, 3.565459966659546, 8.73343276977539, -0.9777563214302063, -113.97985076904297, 36.31962585449219, 
625, 1151042270, 0.8799511, 0.2689876, -0.30431318, 0.24642512, 5.155739784240723, 3.869337797164917, 8.998761177062988, -2.204277753829956, -144.84901428222656, 41.929256439208984, 
626, 1151058937, 0.86992526, 0.27247515, -0.3296543, 0.24559225, 4.880274772644043, 3.9476702213287354, 9.049777030944824, -4.136939525604248, -181.7826690673828, 51.37301254272461, 
627, 1151075604, 0.85657054, 0.27643168, -0.3605362, 0.24471653, 5.405609130859375, 3.7756662368774414, 8.615943908691406, -4.60288667678833, -223.41238403320312, 66.0264663696289, 
628, 1151092271, 0.83899623, 0.28113705, -0.3967372, 0.24422736, 4.769235134124756, 3.7668075561523438, 8.493468284606934, -0.08330249786376953, -265.748046875, 83.74198913574219, 
629, 1151108938, 0.81643414, 0.28604254, -0.4378045, 0.24483119, 5.37222957611084, 3.6062862873077393, 7.186943531036377, 5.489380359649658, -305.7393798828125, 107.28871154785156, 
630, 1151125605, 0.7894213, 0.29052222, -0.48168325, 0.24574836, 6.51674747467041, 2.987628221511841, 5.810517311096191, 7.917756080627441, -333.6916809082031, 123.3077392578125, 
631, 1151142272, 0.7590448, 0.29334867, -0.52636755, 0.24644461, 8.018198013305664, 2.8000216484069824, 4.214874267578125, 3.6884422302246094, -346.8604431152344, 134.9581298828125, 
632, 1151158939, 0.72808075, 0.29206333, -0.5694531, 0.24560304, 11.783700942993164, 2.021958589553833, 3.491668701171875, -19.54535484313965, -336.7951965332031, 139.56881713867188, 
633, 1151175606, 0.70042354, 0.2878629, -0.60614324, 0.24317144, 16.549846649169922, 1.3827743530273438, 1.3650546073913574, -35.74616241455078, -289.98724365234375, 124.65655517578125, 
634, 1151192273, 0.6785497, 0.28179654, -0.63384205, 0.24167234, 15.610008239746094, 1.5469083786010742, 1.9844977855682373, -37.57554244995117, -217.59764099121094, 109.37519836425781, 
635, 1151208940, 0.66254956, 0.27645373, -0.65389925, 0.23878303, 9.275073051452637, 3.268672466278076, 1.911679744720459, -39.066104888916016, -160.2353057861328, 75.14849090576172, 
636, 1151225607, 0.65087885, 0.27097797, -0.66915786, 0.23485212, 9.19710636138916, 4.133208274841309, 2.0161356925964355, -44.632225036621094, -120.6738052368164, 54.79306411743164, 
637, 1151242274, 0.6471393, 0.26149634, -0.6781912, 0.2299723, 9.428712844848633, 4.673112869262695, 3.6142749786376953, -71.67146301269531, -51.64126205444336, 44.60190963745117, 
638, 1151258941, 0.6545758, 0.24986313, -0.67522943, 0.2305737, 7.392659664154053, 0.9181555509567261, 7.604996204376221, -56.806434631347656, 67.06210327148438, 39.8221435546875, 
639, 1151275608, 0.66795987, 0.23289546, -0.6646392, 0.24050802, -2.8148887157440186, -0.1301337629556656, 5.525815010070801, -35.61836624145508, 153.434326171875, 84.06808471679688, 
640, 1151292275, 0.6828693, 0.20908366, -0.6525822, 0.25319952, 1.0916377305984497, 6.051851272583008, 3.813025712966919, -54.48308181762695, 182.83786010742188, 123.14175415039062, 
641, 1151308942, 0.69919336, 0.18751842, -0.6376397, 0.2634031, -1.1429389715194702, -2.506740093231201, 1.7198830842971802, -52.12924575805664, 195.2120361328125, 94.8142318725586, 
642, 1151325609, 0.71484035, 0.17265455, -0.6205014, 0.272345, -0.7795615792274475, 4.474955081939697, 1.8657885789871216, -20.599407196044922, 189.014404296875, 57.72541809082031, 
643, 1151342276, 0.7298194, 0.16078025, -0.60453093, 0.2757823, 1.310954213142395, 3.9726200103759766, 2.3154115676879883, -30.80264663696289, 168.2696990966797, 20.583078384399414, 
644, 1151358943, 0.7457296, 0.1532394, -0.587479, 0.27435988, 2.9742438793182373, 3.5311570167541504, 2.7883217334747314, -28.25038719177246, 163.95822143554688, -24.749370574951172, 
645, 1151375610, 0.76176316, 0.15082769, -0.5690748, 0.2704106, 4.452691078186035, 2.5083982944488525, 3.12135910987854, -9.74667739868164, 159.0345916748047, -60.055519104003906, 
646, 1151392277, 0.777118, 0.1519751, -0.54970664, 0.26610887, 5.963221549987793, 2.073728084564209, 3.4954981803894043, 10.004423141479492, 154.4290008544922, -75.54631805419922, 
647, 1151408944, 0.7915209, 0.15405779, -0.5298362, 0.26274413, 7.614107608795166, 2.3931007385253906, 4.154961109161377, 20.452011108398438, 152.7720489501953, -72.83999633789062, 
648, 1151425611, 0.8058846, 0.15648028, -0.5084578, 0.25987506, 9.074563026428223, 2.707022190093994, 4.866983413696289, 26.865402221679688, 160.74191284179688, -72.88579559326172, 
649, 1151442278, 0.8203338, 0.15946884, -0.48569793, 0.25635892, 9.948481559753418, 2.5260720252990723, 4.8915815353393555, 30.106042861938477, 166.98524475097656, -80.06913757324219, 
650, 1151458945, 0.8339276, 0.16352484, -0.4630365, 0.25183716, 9.287457466125488, 1.8564369678497314, 4.843226432800293, 33.523292541503906, 160.59341430664062, -87.67330169677734, 
651, 1151475612, 0.8459557, 0.16997942, -0.44114292, 0.24669577, 9.745650291442871, 1.6509801149368286, 4.727505683898926, 45.73048400878906, 146.35989379882812, -95.27696990966797, 
