sep=,
DeviceTag:,L Lower Leg - 4,,,,,,,,,,,,,,,,,
FirmwareVersion:,3.0.0,,,,,,,,,,,,,,,,,
AppVersion:,2023.6.1,,,,,,,,,,,,,,,,,
StartTime:,2024-05-25 15:19:41.000 +0200,,,,,,,,,,,,,,,,,
 2024,,,,,,,,,,,,,,,,,,,

PacketCounter,SampleTimeFine,Quat_W,Quat_X,Quat_Y,Quat_Z,Acc_X,Acc_Y,Acc_Z,Gyr_X,Gyr_Y,Gyr_Z,
0, 1140492341, 0.6528765, -0.0051101507, -0.7471243, -0.12462602, 0.0, 0.0, 0.0, 0.0, 0.0, 0.0, 
1, 1140509008, 0.6528827, -0.004536629, -0.74716985, -0.12434282, 9.707715034484863, 1.6636364459991455, -1.1561447381973267, -5.369753360748291, -1.7021687030792236, 0.7990841865539551, 
2, 1140525675, 0.65295166, -0.0054032723, -0.7472387, -0.1235293, 9.743976593017578, 1.4112014770507812, -1.192833423614502, -3.94020676612854, -1.4839869737625122, 0.9130223393440247, 
3, 1140542342, 0.6530374, -0.007528361, -0.7475002, -0.12136388, 9.785562515258789, 1.2751127481460571, -1.2827813625335693, -2.739764928817749, -1.585477352142334, 0.714587926864624, 
4, 1140559009, 0.65277517, -0.010268834, -0.7480543, -0.119138636, 9.789680480957031, 1.302253246307373, -1.2866244316101074, -2.763559103012085, -1.877116322517395, 0.2136419117450714, 
5, 1140575676, 0.6524244, -0.012400732, -0.74862623, -0.11724992, 9.777251243591309, 1.3605607748031616, -1.2558307647705078, -3.3699021339416504, -2.1912691593170166, -0.06851398199796677, 
6, 1140592343, 0.652086, -0.014104698, -0.7490786, -0.11604347, 9.795878410339355, 1.4394855499267578, -1.2181236743927002, -3.967407703399658, -2.3058602809906006, -0.03339896351099014, 
7, 1140609010, 0.6517769, -0.015423126, -0.74941033, -0.11546886, 9.80713939666748, 1.4774757623672485, -1.1744420528411865, -4.616331100463867, -2.577470302581787, -0.23157724738121033, 
8, 1140625677, 0.6516442, -0.015723528, -0.7496404, -0.11468224, 9.786124229431152, 1.530106782913208, -1.1608377695083618, -4.148962497711182, -2.552663803100586, -0.45892831683158875, 
9, 1140642344, 0.65147436, -0.016320888, -0.74978876, -0.114593804, 9.738983154296875, 1.6222150325775146, -1.229754090309143, -3.148812770843506, -2.4190046787261963, -0.40543630719184875, 
10, 1140659011, 0.65133435, -0.016574016, -0.74991804, -0.11450755, 9.803584098815918, 1.6740552186965942, -1.2950903177261353, -2.34490704536438, -2.003950595855713, -0.007875905372202396, 
11, 1140675678, 0.65115815, -0.016742963, -0.7500576, -0.11457017, 9.719016075134277, 1.6078613996505737, -1.3658422231674194, -1.4574522972106934, -1.6773501634597778, 0.12553425133228302, 
12, 1140692345, 0.6509332, -0.01697542, -0.7502223, -0.11473572, 9.77772045135498, 1.566157341003418, -1.4149761199951172, -0.17802107334136963, -1.2691988945007324, 0.2873680889606476, 
13, 1140709012, 0.6507426, -0.01692821, -0.7503991, -0.11466819, 9.725312232971191, 1.5683327913284302, -1.4010690450668335, 0.3821607232093811, -0.8222572803497314, 0.3350076973438263, 
14, 1140725679, 0.6505728, -0.016692936, -0.750585, -0.11444968, 9.776352882385254, 1.5219805240631104, -1.4093660116195679, 0.28255289793014526, -0.6916196942329407, 0.41340816020965576, 
15, 1140742346, 0.65039927, -0.016547555, -0.750762, -0.11429615, 9.757269859313965, 1.489940881729126, -1.2842875719070435, 0.22368209064006805, -0.5269684195518494, 0.4288013279438019, 
16, 1140759013, 0.6502509, -0.01646454, -0.7509127, -0.11416151, 9.74752140045166, 1.5706665515899658, -1.2589786052703857, 0.3511180579662323, -0.4882548451423645, 0.5063822865486145, 
17, 1140775680, 0.65017337, -0.016380234, -0.7510044, -0.114012845, 9.792280197143555, 1.6542375087738037, -1.3158838748931885, -0.4448285400867462, -0.22845245897769928, 0.8150665163993835, 
18, 1140792347, 0.650095, -0.01635947, -0.7510776, -0.113979705, 9.762486457824707, 1.559434175491333, -1.2851670980453491, -0.5902830958366394, -0.17110563814640045, 0.7202483415603638, 
19, 1140809014, 0.6499914, -0.016462933, -0.7511572, -0.11403151, 9.754782676696777, 1.5158761739730835, -1.240501046180725, 0.830562174320221, -0.1701195389032364, 0.6342664361000061, 
20, 1140825681, 0.6499708, -0.016224843, -0.7512233, -0.11374716, 9.72392749786377, 1.613804578781128, -1.2614845037460327, 1.4015589952468872, -0.02291056141257286, 0.7195696234703064, 
21, 1140842348, 0.64997804, -0.016014505, -0.75125724, -0.11351168, 9.758726119995117, 1.6275407075881958, -1.3012793064117432, 0.9371366500854492, 0.1454097032546997, 0.7482942342758179, 
22, 1140859015, 0.64995533, -0.015980067, -0.7512903, -0.11342681, 9.750201225280762, 1.5780490636825562, -1.2800250053405762, 0.12298578768968582, -0.04821591079235077, 0.9195536375045776, 
23, 1140875682, 0.6499438, -0.015913224, -0.75131744, -0.11332291, 9.74703598022461, 1.5295318365097046, -1.2523610591888428, -0.28522300720214844, -0.08787716925144196, 0.9244071245193481, 
24, 1140892349, 0.6499431, -0.015867298, -0.7513318, -0.11323803, 9.763423919677734, 1.5669856071472168, -1.2144078016281128, -0.4705308973789215, -0.052992675453424454, 0.8992938995361328, 
25, 1140909016, 0.64994633, -0.015918763, -0.75133395, -0.11319848, 9.767727851867676, 1.6174646615982056, -1.2099498510360718, -0.9800316095352173, -0.11304166167974472, 1.1659605503082275, 
26, 1140925683, 0.6500225, -0.015521927, -0.75133646, -0.112798, 9.759589195251465, 1.5476058721542358, -1.2125297784805298, -0.8829851150512695, -0.07877185940742493, 1.0444283485412598, 
27, 1140942350, 0.6500274, -0.015475198, -0.75134724, -0.1127046, 9.762731552124023, 1.5127824544906616, -1.2178728580474854, -0.1372968703508377, -0.1863579899072647, 0.8746544718742371, 
28, 1140959017, 0.6500254, -0.015508944, -0.7513532, -0.112671345, 9.733417510986328, 1.5960837602615356, -1.1967353820800781, 0.005244199652224779, -0.17338517308235168, 0.8568664193153381, 
29, 1140975684, 0.6500316, -0.015562328, -0.75135094, -0.112644285, 9.747937202453613, 1.5831334590911865, -1.2274612188339233, -0.6473609805107117, -0.23544473946094513, 1.0201218128204346, 
30, 1140992351, 0.6500169, -0.015614659, -0.75136745, -0.11261205, 9.76773738861084, 1.5318766832351685, -1.272866129875183, -0.81092369556427, -0.4778432846069336, 1.0437239408493042, 
31, 1141009018, 0.6499815, -0.015725762, -0.7513975, -0.11259938, 9.802715301513672, 1.453514575958252, -1.3452681303024292, -0.04784452170133591, -0.5101921558380127, 1.0603209733963013, 
32, 1141025685, 0.6500247, -0.015227139, -0.75145656, -0.11202333, 9.79601764678955, 1.4877434968948364, -1.32698392868042, 1.3462097644805908, -0.42802661657333374, 0.9812160134315491, 
33, 1141042352, 0.6500222, -0.01510892, -0.7514962, -0.111787036, 9.750997543334961, 1.674014925956726, -1.2065893411636353, 1.1666905879974365, -0.3073652386665344, 0.9141237139701843, 
34, 1141059019, 0.65003836, -0.014991344, -0.7515262, -0.11150685, 9.71562671661377, 1.6436374187469482, -1.1940163373947144, 1.2445660829544067, -0.22600647807121277, 1.1995388269424438, 
35, 1141075686, 0.65004224, -0.014869146, -0.7515653, -0.11123772, 9.792805671691895, 1.5601611137390137, -1.1661789417266846, 1.7470741271972656, -0.2734411954879761, 1.0778656005859375, 
36, 1141092353, 0.6500423, -0.014645018, -0.7516201, -0.11089529, 9.735023498535156, 1.5941622257232666, -1.1459792852401733, 2.664598226547241, -0.32329630851745605, 0.8557267785072327, 
37, 1141109020, 0.6500971, -0.014225866, -0.75166535, -0.11032121, 9.736174583435059, 1.6155716180801392, -1.1778459548950195, 3.39689040184021, -0.11095421016216278, 1.1107138395309448, 
38, 1141125687, 0.6501541, -0.01371379, -0.7517159, -0.10970368, 9.783637046813965, 1.5896196365356445, -1.221787691116333, 3.4104652404785156, -0.17552383244037628, 0.9250474572181702, 
39, 1141142354, 0.6502405, -0.013224412, -0.75174, -0.10908504, 9.779719352722168, 1.6895464658737183, -1.1903536319732666, 2.5696518421173096, -0.036062683910131454, 1.1702250242233276, 
40, 1141159021, 0.6502796, -0.013261149, -0.7517319, -0.10890336, 9.743664741516113, 1.6453043222427368, -1.1610565185546875, 1.0067392587661743, -0.04655107855796814, 1.526497721672058, 
41, 1141175688, 0.65029377, -0.013367507, -0.7517242, -0.1088589, 9.745866775512695, 1.5566669702529907, -1.1166820526123047, -0.4149129092693329, -0.29801657795906067, 1.3252203464508057, 
42, 1141192355, 0.6502458, -0.013736599, -0.7517311, -0.109052084, 9.788041114807129, 1.5147736072540283, -1.1314048767089844, -0.8302356004714966, -0.5952902436256409, 1.2972639799118042, 
43, 1141209022, 0.6502097, -0.013869779, -0.7517612, -0.10904308, 9.804865837097168, 1.4935450553894043, -1.1179590225219727, -1.1355646848678589, -0.8660165667533875, 1.2901564836502075, 
44, 1141225689, 0.6501143, -0.014146546, -0.7518185, -0.10918085, 9.759779930114746, 1.5314537286758423, -1.1063685417175293, -1.393804669380188, -1.2444185018539429, 1.1511179208755493, 
45, 1141242356, 0.6500182, -0.014234599, -0.7519009, -0.109174185, 9.76356029510498, 1.5570300817489624, -1.1281259059906006, -0.8801804184913635, -1.4212614297866821, 0.953900158405304, 
46, 1141259023, 0.6498856, -0.014370539, -0.7520065, -0.10921915, 9.751143455505371, 1.5839040279388428, -1.1126378774642944, -0.4639739990234375, -1.6283016204833984, 0.8175893425941467, 
47, 1141275690, 0.64975226, -0.014448492, -0.75212246, -0.10920334, 9.767382621765137, 1.6204442977905273, -1.1562336683273315, -0.2839551568031311, -1.7195210456848145, 0.8439062833786011, 
48, 1141292357, 0.6496226, -0.014550869, -0.7522312, -0.10921189, 9.728021621704102, 1.618467926979065, -1.1474344730377197, -0.5409786105155945, -1.694612979888916, 0.875960648059845, 
49, 1141309024, 0.6494815, -0.014637812, -0.7523529, -0.10920113, 9.72599983215332, 1.5811909437179565, -1.1257344484329224, -0.4858216941356659, -1.8286443948745728, 0.8994348645210266, 
50, 1141325691, 0.64929575, -0.014776035, -0.7525021, -0.1092584, 9.790836334228516, 1.5957340002059937, -1.1373625993728638, -0.6573755741119385, -2.168781042098999, 0.772472620010376, 
51, 1141342358, 0.6491125, -0.014930088, -0.75264794, -0.10932152, 9.754289627075195, 1.5870006084442139, -1.171333909034729, -1.4371411800384521, -2.2628817558288574, 0.9241636395454407, 
52, 1141359025, 0.64891005, -0.015020403, -0.7528142, -0.10936665, 9.725264549255371, 1.5708969831466675, -1.1807554960250854, -2.1987862586975098, -2.582503080368042, 0.8164240717887878, 
53, 1141375692, 0.6486474, -0.015383741, -0.7529924, -0.10964698, 9.790431022644043, 1.572501301765442, -1.2036879062652588, -2.8637940883636475, -2.868481397628784, 0.8911362290382385, 
54, 1141392359, 0.6483758, -0.015695972, -0.753186, -0.10988007, 9.77725887298584, 1.554231882095337, -1.1824672222137451, -3.085958957672119, -3.052624225616455, 0.9212440848350525, 
55, 1141409026, 0.6480571, -0.016039861, -0.75341284, -0.110154144, 9.729263305664062, 1.5772247314453125, -1.1880351305007935, -2.659776449203491, -3.356480598449707, 0.7522898316383362, 
56, 1141425693, 0.64776444, -0.0162378, -0.75364083, -0.110286236, 9.720693588256836, 1.6114393472671509, -1.2416905164718628, -1.9640332460403442, -3.2369847297668457, 0.7460404634475708, 
57, 1141442360, 0.64747983, -0.016435929, -0.75386196, -0.110416904, 9.75003719329834, 1.6086305379867554, -1.2996625900268555, -1.2874224185943604, -3.061152935028076, 0.6704187989234924, 
58, 1141459027, 0.6472349, -0.016525004, -0.75406164, -0.11047628, 9.736291885375977, 1.6101186275482178, -1.3576704263687134, -0.7115336060523987, -2.712628126144409, 0.49693116545677185, 
59, 1141475694, 0.6470125, -0.016673068, -0.7542372, -0.11055906, 9.751147270202637, 1.6360673904418945, -1.4230048656463623, -0.7302179932594299, -2.4548873901367188, 0.6689075827598572, 
60, 1141492361, 0.64683723, -0.016770909, -0.75437826, -0.11060721, 9.759191513061523, 1.632873296737671, -1.4503568410873413, -1.6738667488098145, -2.1907308101654053, 0.7968431115150452, 
61, 1141509028, 0.6466738, -0.0170501, -0.75447965, -0.110829696, 9.787503242492676, 1.5947190523147583, -1.4168810844421387, -2.2117207050323486, -1.8643101453781128, 0.8113270998001099, 
62, 1141525695, 0.64654875, -0.017163469, -0.75457335, -0.11090353, 9.762459754943848, 1.5854387283325195, -1.3748137950897217, -2.5043585300445557, -1.7688385248184204, 0.8982950448989868, 
63, 1141542362, 0.6463895, -0.017503042, -0.7546597, -0.11119031, 9.75603199005127, 1.6127595901489258, -1.344140887260437, -2.484867572784424, -1.7327889204025269, 0.792681097984314, 
64, 1141559029, 0.64628935, -0.017697852, -0.75472176, -0.11132002, 9.78602409362793, 1.6137633323669434, -1.3123873472213745, -2.3656272888183594, -1.4140897989273071, 0.9811776280403137, 
65, 1141575696, 0.6461929, -0.017946959, -0.75477505, -0.111478366, 9.704629898071289, 1.6400165557861328, -1.2504113912582397, -1.738782286643982, -1.24167799949646, 0.9957770109176636, 
66, 1141592363, 0.64609754, -0.018197803, -0.7548227, -0.11166848, 9.732086181640625, 1.6291457414627075, -1.285032868385315, -1.029194951057434, -1.0836859941482544, 0.7451949715614319, 
67, 1141609030, 0.646088, -0.018066505, -0.7548616, -0.11148131, 9.765729904174805, 1.6529403924942017, -1.313084602355957, -0.454023540019989, -0.8089259266853333, 0.9539769887924194, 
68, 1141625697, 0.64607364, -0.018091269, -0.75488377, -0.11140997, 9.706921577453613, 1.6224820613861084, -1.3152225017547607, -0.005890921223908663, -0.6046261787414551, 1.0045620203018188, 
69, 1141642364, 0.646085, -0.017867748, -0.7549213, -0.11112525, 9.74338150024414, 1.622332215309143, -1.3333914279937744, 0.5782643556594849, -0.61403888463974, 0.9224861860275269, 
70, 1141659031, 0.64609903, -0.017802963, -0.7549345, -0.110964954, 9.78400707244873, 1.6548616886138916, -1.3537250757217407, 0.6899996995925903, -0.37703174352645874, 0.9882211089134216, 
71, 1141675698, 0.6461162, -0.01781273, -0.75493664, -0.11084829, 9.718575477600098, 1.6850663423538208, -1.3700413703918457, 0.4360114336013794, -0.3119114637374878, 1.1503626108169556, 
72, 1141692365, 0.6461476, -0.017889524, -0.7549175, -0.11078279, 9.734975814819336, 1.6998692750930786, -1.3333203792572021, -0.11439912021160126, -0.17602327466011047, 1.291590690612793, 
73, 1141709032, 0.6462193, -0.018163709, -0.7548459, -0.1108084, 9.775344848632812, 1.7162848711013794, -1.3784611225128174, -0.6128478050231934, 0.25875866413116455, 1.8344005346298218, 
74, 1141725699, 0.6463384, -0.018406058, -0.7547328, -0.11084415, 9.72768783569336, 1.6671266555786133, -1.3875038623809814, -1.4554802179336548, 0.5875874161720276, 1.8108628988265991, 
75, 1141742366, 0.64649665, -0.018333482, -0.75463355, -0.11061012, 9.742812156677246, 1.5745807886123657, -1.3149844408035278, -0.7734523415565491, 0.6316924095153809, 1.716569423675537, 
76, 1141759033, 0.64662945, -0.018498514, -0.7545228, -0.1105613, 9.6997652053833, 1.6270760297775269, -1.2857705354690552, -1.3009331226348877, 0.6141349077224731, 1.893553376197815, 
77, 1141775700, 0.6467671, -0.018638253, -0.7544066, -0.11052518, 9.738625526428223, 1.6169942617416382, -1.2348977327346802, -1.8408615589141846, 0.5972433090209961, 1.800156593322754, 
78, 1141792367, 0.64685977, -0.018913312, -0.75429934, -0.11066739, 9.773612022399902, 1.533003807067871, -1.2013384103775024, -2.2274725437164307, 0.4024203419685364, 1.515932559967041, 
79, 1141809034, 0.64696985, -0.019229196, -0.75417334, -0.11082824, 9.769943237304688, 1.5609066486358643, -1.2245081663131714, -1.549248218536377, 0.6768604516983032, 1.518813967704773, 
80, 1141825701, 0.6471374, -0.0191271, -0.7540531, -0.11068689, 9.782723426818848, 1.5591330528259277, -1.2238022089004517, -1.286077618598938, 0.7599735856056213, 1.18862783908844, 
81, 1141842368, 0.6472623, -0.019224579, -0.75394094, -0.11070245, 9.760065078735352, 1.5937172174453735, -1.2364357709884644, -0.8565782904624939, 0.6735947728157043, 1.1897547245025635, 
82, 1141859035, 0.64738697, -0.019339496, -0.75383496, -0.11067569, 9.739158630371094, 1.6203876733779907, -1.3246828317642212, -0.5184906721115112, 0.6473802328109741, 1.443602204322815, 
83, 1141875702, 0.6475241, -0.019422075, -0.7537191, -0.11064844, 9.739445686340332, 1.6286473274230957, -1.282783031463623, -0.7294497489929199, 0.7335925698280334, 1.3446987867355347, 
84, 1141892369, 0.64766943, -0.019527946, -0.75359225, -0.11064336, 9.722806930541992, 1.6640745401382446, -1.2834609746932983, -0.6470280885696411, 0.8548943400382996, 1.3402678966522217, 
85, 1141909036, 0.6478868, -0.019555163, -0.7534259, -0.11049772, 9.757884979248047, 1.6536498069763184, -1.3087466955184937, -0.24852003157138824, 1.3508459329605103, 1.7219611406326294, 
86, 1141925703, 0.6480695, -0.019666255, -0.7532766, -0.11042419, 9.766956329345703, 1.6105163097381592, -1.2922009229660034, 0.06388447433710098, 1.1938397884368896, 1.668904185295105, 
87, 1141942370, 0.6483274, -0.019593334, -0.75310236, -0.11011218, 9.797219276428223, 1.5918067693710327, -1.3334044218063354, 1.8231309652328491, 1.7628130912780762, 1.8869836330413818, 
88, 1141959037, 0.64860624, -0.01943721, -0.75292176, -0.10973215, 9.786090850830078, 1.5454820394515991, -1.2400230169296265, 2.927666425704956, 2.0123965740203857, 1.7260209321975708, 
89, 1141975704, 0.6488671, -0.01913057, -0.7527735, -0.10926074, 9.725336074829102, 1.630316138267517, -1.1190625429153442, 3.388847589492798, 1.771611213684082, 1.4346247911453247, 
90, 1141992371, 0.6491374, -0.018870333, -0.75261587, -0.10878439, 9.728141784667969, 1.6391569375991821, -1.0630226135253906, 2.7462384700775146, 1.7518895864486694, 1.778975009918213, 
91, 1142009038, 0.64936405, -0.018612545, -0.75248456, -0.10838293, 9.760318756103516, 1.5562269687652588, -1.0648027658462524, 2.381680488586426, 1.4035568237304688, 1.429015874862671, 
92, 1142025705, 0.6495553, -0.018376289, -0.7523791, -0.10800799, 9.783823013305664, 1.5221519470214844, -1.0917279720306396, 2.5158395767211914, 1.124749779701233, 1.347759485244751, 
93, 1142042372, 0.6497351, -0.018137833, -0.7522802, -0.10765712, 9.740955352783203, 1.624165415763855, -1.1235419511795044, 2.218949794769287, 1.0017319917678833, 1.24620521068573, 
94, 1142059039, 0.6498793, -0.018067442, -0.752183, -0.107477546, 9.743633270263672, 1.6841126680374146, -1.1142524480819702, 1.0085320472717285, 0.7573996186256409, 1.2762104272842407, 
95, 1142075706, 0.6500322, -0.018026995, -0.7520726, -0.10733258, 9.759285926818848, 1.6482186317443848, -1.1166924238204956, 0.22010914981365204, 0.7695144414901733, 1.362640619277954, 
96, 1142092373, 0.65018016, -0.018007407, -0.7519622, -0.107211694, 9.76726245880127, 1.5784202814102173, -1.1306637525558472, 0.30741000175476074, 0.7628933787345886, 1.3305860757827759, 
97, 1142109040, 0.65032595, -0.017859183, -0.7518743, -0.10696963, 9.797911643981934, 1.523667812347412, -1.1664658784866333, 1.148210883140564, 0.671737790107727, 1.2595107555389404, 
98, 1142125707, 0.65045905, -0.017706348, -0.7517947, -0.10674482, 9.746557235717773, 1.6021817922592163, -1.0875567197799683, 1.7167361974716187, 0.657433271408081, 1.0655460357666016, 
99, 1142142374, 0.650596, -0.017524205, -0.75171536, -0.10649798, 9.750214576721191, 1.6714351177215576, -1.0923855304718018, 0.8330338597297668, 0.5261809229850769, 1.175821304321289, 
100, 1142159041, 0.65070665, -0.017554164, -0.75162905, -0.1064261, 9.766043663024902, 1.5864559412002563, -1.131740689277649, 0.19546973705291748, 0.44705042243003845, 1.3219547271728516, 
101, 1142175708, 0.6507763, -0.017618004, -0.75156504, -0.10644187, 9.778962135314941, 1.5277674198150635, -1.1355242729187012, 0.1290687918663025, 0.18677419424057007, 1.010401725769043, 
102, 1142192375, 0.65085286, -0.017561087, -0.7515099, -0.10637303, 9.733440399169922, 1.5980989933013916, -1.1147104501724243, 0.3354559540748596, 0.14562742412090302, 0.8753716945648193, 
103, 1142209042, 0.6509301, -0.017499559, -0.751454, -0.10630463, 9.739337921142578, 1.6074973344802856, -1.1381149291992188, 0.15238918364048004, 0.12032207101583481, 0.8858216404914856, 
104, 1142225709, 0.65100867, -0.017467987, -0.75138617, -0.106308974, 9.784168243408203, 1.6151503324508667, -1.1253950595855713, -0.6044213175773621, 0.13180936872959137, 0.7582959532737732, 
105, 1142242376, 0.65108174, -0.017455088, -0.75132346, -0.10630573, 9.793606758117676, 1.5643408298492432, -1.108453631401062, -0.23671256005764008, 0.112503781914711, 0.8409032821655273, 
106, 1142259043, 0.65115196, -0.01731873, -0.7512851, -0.106169485, 9.77210807800293, 1.531782627105713, -1.1472092866897583, 0.6552689075469971, 0.005602778401225805, 0.8475434184074402, 
107, 1142275710, 0.6512179, -0.017111363, -0.751258, -0.10599017, 9.7920560836792, 1.576566457748413, -1.1536266803741455, 1.8063675165176392, 0.05678975582122803, 0.5941826105117798, 
108, 1142292377, 0.651299, -0.016842587, -0.7512283, -0.10574515, 9.717597007751465, 1.63399076461792, -1.1326547861099243, 2.5518505573272705, 0.19809502363204956, 0.5723221302032471, 
109, 1142309044, 0.6513651, -0.016527487, -0.7512204, -0.10544334, 9.740206718444824, 1.63515043258667, -1.122986912727356, 2.8100528717041016, 0.009303812868893147, 0.6201539635658264, 
110, 1142325711, 0.6514206, -0.016297663, -0.7512051, -0.10524511, 9.788804054260254, 1.6758699417114258, -1.1088114976882935, 2.622490882873535, 0.03354623541235924, 0.5056267380714417, 
111, 1142342378, 0.6515112, -0.015912822, -0.75118184, -0.10490901, 9.781410217285156, 1.6183990240097046, -1.08579683303833, 2.5409140586853027, 0.13525426387786865, 0.5579277873039246, 
112, 1142359045, 0.6515429, -0.015584948, -0.75120014, -0.10462962, 9.754884719848633, 1.5503129959106445, -1.0337122678756714, 3.2839386463165283, -0.2243928760290146, 0.39555612206459045, 
113, 1142375712, 0.6515627, -0.015068355, -0.75125635, -0.1041771, 9.747398376464844, 1.617823839187622, -1.016096830368042, 3.884774684906006, -0.5105252265930176, 0.3424738943576813, 
114, 1142392379, 0.65156686, -0.014529563, -0.7513318, -0.10368186, 9.734258651733398, 1.6040483713150024, -1.016861081123352, 4.848259925842285, -0.592831552028656, 0.3350333273410797, 
115, 1142409046, 0.65155315, -0.013913478, -0.7514306, -0.10313673, 9.760379791259766, 1.607706069946289, -1.0508787631988525, 5.664050579071045, -0.7251339554786682, 0.12865899503231049, 
116, 1142425713, 0.6515525, -0.013131142, -0.7515404, -0.10244033, 9.761197090148926, 1.6919742822647095, -1.099897861480713, 5.920446872711182, -0.7907409071922302, 0.13348698616027832, 
117, 1142442380, 0.65154314, -0.012522289, -0.75163513, -0.10188007, 9.775188446044922, 1.714859127998352, -1.1269768476486206, 5.520247459411621, -0.7341752052307129, 0.2883029282093048, 
118, 1142459047, 0.651544, -0.012003012, -0.7517109, -0.101377234, 9.778646469116211, 1.6598141193389893, -1.1501489877700806, 5.180432319641113, -0.6104660034179688, 0.47138261795043945, 
119, 1142475714, 0.65154904, -0.011447974, -0.75178915, -0.10082618, 9.776097297668457, 1.629186987876892, -1.1480802297592163, 5.4402079582214355, -0.6049463748931885, 0.5403319597244263, 
120, 1142492381, 0.65156114, -0.010860168, -0.7518745, -0.100175396, 9.793474197387695, 1.7155102491378784, -1.2167222499847412, 5.2358317375183105, -0.7071283459663391, 0.9471770524978638, 
121, 1142509048, 0.6516205, -0.010535017, -0.751888, -0.09972134, 9.75209903717041, 1.7879458665847778, -1.237797737121582, 4.067111492156982, -0.1613471955060959, 1.336566686630249, 
122, 1142525715, 0.65166724, -0.010304073, -0.7519018, -0.099335335, 9.75292682647705, 1.7037158012390137, -1.1927379369735718, 3.345639944076538, -0.2774367928504944, 1.5254989862442017, 
123, 1142542382, 0.65176785, -0.010034825, -0.751877, -0.0988896, 9.727821350097656, 1.6256474256515503, -1.1756571531295776, 3.5281565189361572, 0.1549120396375656, 1.6874481439590454, 
124, 1142559049, 0.65186006, -0.009675938, -0.75187355, -0.09834218, 9.767004013061523, 1.6183971166610718, -1.1339401006698608, 3.292647361755371, -0.091795913875103, 1.8392417430877686, 
125, 1142575716, 0.65193295, -0.009503494, -0.75185806, -0.09799381, 9.77664566040039, 1.6038864850997925, -1.136629581451416, 2.7138893604278564, -0.08454752713441849, 1.7398771047592163, 
126, 1142592383, 0.6520029, -0.009355221, -0.751842, -0.09766426, 9.77160930633545, 1.576141357421875, -1.1169289350509644, 2.5629794597625732, -0.1113768219947815, 1.7799482345581055, 
127, 1142609050, 0.65204734, -0.009185182, -0.751846, -0.09735221, 9.761045455932617, 1.6189749240875244, -1.0774364471435547, 2.1633832454681396, -0.3777104914188385, 1.6327776908874512, 
128, 1142625717, 0.6521114, -0.00888953, -0.75184804, -0.096933946, 9.782769203186035, 1.6349847316741943, -1.071757435798645, 2.2057273387908936, -0.34406179189682007, 1.6249208450317383, 
129, 1142642384, 0.6521422, -0.008825514, -0.7518499, -0.096717715, 9.78725814819336, 1.6065115928649902, -1.0701594352722168, 2.0900795459747314, -0.4042068123817444, 1.6475560665130615, 
130, 1142659051, 0.65217346, -0.008726049, -0.75185657, -0.09646379, 9.787750244140625, 1.6391221284866333, -1.1513205766677856, 2.1173696517944336, -0.4570586085319519, 1.6868330240249634, 
131, 1142675718, 0.6522193, -0.008621843, -0.75185347, -0.096186966, 9.768467903137207, 1.6322031021118164, -1.1440294981002808, 2.231154203414917, -0.34402981400489807, 1.790257215499878, 
132, 1142692385, 0.652242, -0.008589276, -0.75186366, -0.09595625, 9.760052680969238, 1.6222916841506958, -1.1359057426452637, 1.8342852592468262, -0.5532598495483398, 1.9294750690460205, 
133, 1142709052, 0.6523011, -0.008457531, -0.7518517, -0.09565979, 9.76159954071045, 1.6419817209243774, -1.1035276651382446, 1.788048267364502, -0.3182249963283539, 1.8560115098953247, 
134, 1142725719, 0.65236706, -0.008389729, -0.75182664, -0.095411524, 9.745720863342285, 1.5766023397445679, -1.0885971784591675, 1.3666424751281738, -0.25297024846076965, 1.972254753112793, 
135, 1142742386, 0.6524132, -0.008319067, -0.7518167, -0.09518151, 9.780460357666016, 1.5816172361373901, -1.1121346950531006, 1.173413872718811, -0.44550734758377075, 1.8857288360595703, 
136, 1142759053, 0.652479, -0.008305069, -0.75178415, -0.09498852, 9.790594100952148, 1.557157039642334, -1.1117565631866455, 1.1623235940933228, -0.22678765654563904, 1.9782674312591553, 
137, 1142775720, 0.6524863, -0.008469645, -0.75177586, -0.09498938, 9.753795623779297, 1.563563346862793, -1.0878950357437134, 0.8751667141914368, -0.5538746118545532, 1.8016419410705566, 
138, 1142792387, 0.65248954, -0.008492686, -0.7517848, -0.09489458, 9.769061088562012, 1.6144423484802246, -1.0709720849990845, 0.5795320868492126, -0.7640010714530945, 1.6926084756851196, 
139, 1142809054, 0.65250283, -0.008580172, -0.75178355, -0.09480544, 9.804378509521484, 1.6166173219680786, -1.136110782623291, 0.3692263066768646, -0.7014422416687012, 2.002727508544922, 
140, 1142825721, 0.65253115, -0.008564636, -0.75178325, -0.09461456, 9.769683837890625, 1.592724323272705, -1.1797325611114502, 0.4266371726989746, -0.6941041350364685, 2.06933331489563, 
141, 1142842388, 0.6525687, -0.008568658, -0.751768, -0.0944767, 9.780168533325195, 1.6258262395858765, -1.1418731212615967, 0.6112149953842163, -0.5187339782714844, 1.877890944480896, 
142, 1142859055, 0.65263045, -0.008675515, -0.7517231, -0.094396174, 9.761910438537598, 1.6243280172348022, -1.1447405815124512, 1.1007634401321411, -0.16536839306354523, 2.015918016433716, 
143, 1142875722, 0.6527021, -0.008696228, -0.7516819, -0.094227165, 9.749995231628418, 1.6185919046401978, -1.1473287343978882, 0.7437480092048645, -0.24455006420612335, 2.1447882652282715, 
144, 1142892389, 0.6528151, -0.008814391, -0.75159526, -0.09412556, 9.804384231567383, 1.625278115272522, -1.1654285192489624, 0.37943294644355774, 0.17040768265724182, 2.328328847885132, 
145, 1142909056, 0.65293646, -0.009014077, -0.75149167, -0.094092, 9.767730712890625, 1.6233628988265991, -1.1421581506729126, 0.03861114755272865, 0.2859914302825928, 2.4116532802581787, 
146, 1142925723, 0.6530295, -0.0091666505, -0.75141704, -0.094026715, 9.764007568359375, 1.5683263540267944, -1.0504696369171143, -0.2366485744714737, -0.05218588188290596, 2.3911056518554688, 
147, 1142942390, 0.6531086, -0.00925242, -0.75135994, -0.09392506, 9.762858390808105, 1.5338215827941895, -1.0055441856384277, -0.39408981800079346, -0.25567880272865295, 2.2930986881256104, 
148, 1142959057, 0.65314925, -0.009359543, -0.7513321, -0.09385491, 9.767252922058105, 1.5189868211746216, -0.9965661764144897, -0.12021321058273315, -0.5481502413749695, 2.1762661933898926, 
149, 1142975724, 0.6531522, -0.009552607, -0.75132203, -0.09389523, 9.795221328735352, 1.5143524408340454, -1.0136662721633911, -0.4714786112308502, -0.8054170608520508, 2.0265345573425293, 
150, 1142992391, 0.6531233, -0.00973201, -0.7513382, -0.093948044, 9.777100563049316, 1.5286717414855957, -1.0302996635437012, -0.3617281913757324, -1.0778849124908447, 1.869464635848999, 
151, 1143009058, 0.6530896, -0.009885364, -0.7513567, -0.094018295, 9.788138389587402, 1.5790730714797974, -1.095527172088623, -1.0997966527938843, -1.2022730112075806, 1.759387731552124, 
152, 1143025725, 0.6530586, -0.010011411, -0.7513749, -0.09407424, 9.782214164733887, 1.5751125812530518, -1.0562611818313599, -1.4485005140304565, -1.2477355003356934, 1.765169620513916, 
153, 1143042392, 0.6530298, -0.010078962, -0.75139385, -0.09411543, 9.767889976501465, 1.5858029127120972, -1.0131069421768188, -1.9566054344177246, -1.3168002367019653, 1.649156928062439, 
154, 1143059059, 0.6529923, -0.010340274, -0.751399, -0.094307095, 9.74817943572998, 1.5608551502227783, -1.0865018367767334, -2.303542137145996, -1.2654849290847778, 1.8111958503723145, 
155, 1143075726, 0.6529489, -0.010544946, -0.7514159, -0.09444904, 9.813201904296875, 1.456412434577942, -1.125783920288086, -1.502517819404602, -1.2855397462844849, 1.7092570066452026, 
156, 1143092393, 0.65286535, -0.010680359, -0.7514716, -0.09456883, 9.818925857543945, 1.512654185295105, -1.1426377296447754, -1.1360896825790405, -1.6380987167358398, 1.4333827495574951, 
157, 1143109060, 0.6527798, -0.010822772, -0.7515291, -0.09468637, 9.760679244995117, 1.6213856935501099, -1.0741448402404785, -1.6132925748825073, -1.7212117910385132, 1.5420701503753662, 
158, 1143125727, 0.65267855, -0.011113144, -0.7515802, -0.09494438, 9.741287231445312, 1.5951441526412964, -1.04350745677948, -2.597050666809082, -1.8156969547271729, 1.6244021654129028, 
159, 1143142394, 0.65257436, -0.0114087, -0.7516301, -0.09523021, 9.780684471130371, 1.5424487590789795, -1.061964750289917, -3.1808414459228516, -1.8914469480514526, 1.59115731716156, 
160, 1143159061, 0.6524802, -0.011668144, -0.7516779, -0.09546636, 9.781590461730957, 1.5092158317565918, -1.116014003753662, -2.4422991275787354, -1.7815555334091187, 1.5984951257705688, 
161, 1143175728, 0.6523626, -0.011905432, -0.75174874, -0.095682435, 9.794455528259277, 1.5101138353347778, -1.1318975687026978, -1.543036937713623, -1.9126538038253784, 1.4729670286178589, 
162, 1143192395, 0.65225637, -0.01201011, -0.751824, -0.09580185, 9.757031440734863, 1.6051347255706787, -1.091172456741333, -1.5999869108200073, -1.9425182342529297, 1.3828487396240234, 
163, 1143209062, 0.65211517, -0.012396054, -0.75189376, -0.09616609, 9.746156692504883, 1.598764181137085, -1.0862972736358643, -2.303964853286743, -2.0403716564178467, 1.4855173826217651, 
164, 1143225729, 0.6519953, -0.012625384, -0.7519619, -0.09641671, 9.77587604522705, 1.521136999130249, -1.1282974481582642, -2.5696070194244385, -2.032444715499878, 1.414672613143921, 
165, 1143242396, 0.6518556, -0.012894077, -0.75204104, -0.096708156, 9.795516967773438, 1.4710761308670044, -1.1536648273468018, -2.063845634460449, -2.1023800373077393, 1.3091226816177368, 
166, 1143259063, 0.6517338, -0.012963303, -0.7521296, -0.096830636, 9.759745597839355, 1.5738545656204224, -1.105726957321167, -2.0338406562805176, -2.1565768718719482, 1.2776318788528442, 
167, 1143275730, 0.6516036, -0.013129762, -0.7522077, -0.09707737, 9.742437362670898, 1.6454408168792725, -1.0893394947052002, -3.0455422401428223, -2.205394744873047, 1.2183899879455566, 
168, 1143292397, 0.651434, -0.01368351, -0.7522672, -0.09767722, 9.749799728393555, 1.6408073902130127, -1.0565916299819946, -4.327445030212402, -2.2684402465820312, 1.3211222887039185, 
169, 1143309064, 0.6512703, -0.014116741, -0.75233644, -0.09817169, 9.786279678344727, 1.5592390298843384, -1.067876935005188, -4.8202080726623535, -2.4217963218688965, 1.394592523574829, 
170, 1143325731, 0.6510959, -0.014490979, -0.7524206, -0.09862773, 9.74435043334961, 1.5143963098526, -1.0971864461898804, -4.685370445251465, -2.55932354927063, 1.3038978576660156, 
171, 1143342398, 0.6508936, -0.0149054015, -0.75252205, -0.09912712, 9.771868705749512, 1.55936598777771, -1.1474813222885132, -4.048279762268066, -2.680023431777954, 1.1620675325393677, 
172, 1143359065, 0.65072894, -0.015224785, -0.7526042, -0.099534445, 9.795516014099121, 1.5825694799423218, -1.1655464172363281, -3.685987949371338, -2.417531728744507, 1.186898946762085, 
173, 1143375732, 0.65055954, -0.015429577, -0.7527051, -0.09984713, 9.802289962768555, 1.4832298755645752, -1.2516207695007324, -3.027255058288574, -2.507765531539917, 1.0670827627182007, 
174, 1143392399, 0.6503947, -0.015594884, -0.75280434, -0.100146964, 9.758681297302246, 1.5258173942565918, -1.1766234636306763, -2.0314581394195557, -2.3525004386901855, 0.8228271007537842, 
175, 1143409066, 0.65023446, -0.01570648, -0.7529076, -0.10039288, 9.765836715698242, 1.5731227397918701, -1.1788588762283325, -2.131937265396118, -2.39894962310791, 0.8753716945648193, 
176, 1143425733, 0.65006727, -0.015881233, -0.7530106, -0.10067512, 9.750683784484863, 1.598567247390747, -1.156273603439331, -2.4746224880218506, -2.460766077041626, 1.0250266790390015, 
177, 1143442400, 0.64991105, -0.016090974, -0.75309944, -0.1009863, 9.754325866699219, 1.5746089220046997, -1.2162902355194092, -2.351027727127075, -2.307844877243042, 1.0332099199295044, 
178, 1143459067, 0.64975756, -0.01623144, -0.7531954, -0.10123482, 9.779375076293945, 1.59007728099823, -1.2090723514556885, -1.8853508234024048, -2.3092410564422607, 0.9849811792373657, 
179, 1143475734, 0.6496228, -0.016408322, -0.7532742, -0.101484716, 9.758885383605957, 1.6302270889282227, -1.2327685356140137, -1.4950259923934937, -2.0902140140533447, 1.1096382141113281, 
180, 1143492401, 0.64952594, -0.016481524, -0.75333947, -0.10160718, 9.772867202758789, 1.593453288078308, -1.24696683883667, -1.1306854486465454, -1.8698936700820923, 1.2822935581207275, 
181, 1143509068, 0.6494448, -0.016543778, -0.7533959, -0.10169719, 9.77706241607666, 1.5863432884216309, -1.2774542570114136, -0.6726279854774475, -1.7135409116744995, 1.3542779684066772, 
182, 1143525735, 0.64938015, -0.016538497, -0.7534495, -0.101714484, 9.757467269897461, 1.6177911758422852, -1.2520262002944946, -0.2586626410484314, -1.6057242155075073, 1.3833354711532593, 
183, 1143542402, 0.64934057, -0.01649493, -0.7534905, -0.101670876, 9.745481491088867, 1.6203283071517944, -1.2045210599899292, 0.06362834572792053, -1.4202113151550293, 1.5047907829284668, 
184, 1143559069, 0.6492734, -0.016714524, -0.75351804, -0.101860195, 9.740169525146484, 1.6191385984420776, -1.2137759923934937, -0.07094717025756836, -1.370125651359558, 1.5053926706314087, 
185, 1143575736, 0.6492457, -0.01677162, -0.7535381, -0.10187862, 9.77373218536377, 1.592300295829773, -1.200720191001892, 0.10079237073659897, -1.2269890308380127, 1.6616302728652954, 
186, 1143592403, 0.64923483, -0.016706483, -0.7535605, -0.10179326, 9.75927734375, 1.5983080863952637, -1.1797316074371338, 0.39488378167152405, -1.1826919317245483, 1.617966890335083, 
187, 1143609070, 0.6492154, -0.016676165, -0.7535856, -0.1017354, 9.743508338928223, 1.588115930557251, -1.1652265787124634, 0.5828297734260559, -1.1992697715759277, 1.60897696018219, 
188, 1143625737, 0.6491799, -0.016686358, -0.7536178, -0.10172268, 9.763015747070312, 1.5883440971374512, -1.1358592510223389, 0.34970295429229736, -1.3180614709854126, 1.5855411291122437, 
189, 1143642404, 0.6491436, -0.01664902, -0.75365436, -0.10168913, 9.775529861450195, 1.585994839668274, -1.1567680835723877, -0.14573626220226288, -1.4234131574630737, 1.5506633520126343, 
190, 1143659071, 0.64909345, -0.016679415, -0.75369114, -0.10173181, 9.746277809143066, 1.5686442852020264, -1.165472149848938, -0.6223374605178833, -1.5088313817977905, 1.5262287855148315, 
191, 1143675738, 0.6490148, -0.016868487, -0.7537261, -0.101943046, 9.738865852355957, 1.558280348777771, -1.1845890283584595, -1.0104979276657104, -1.589191198348999, 1.4130334854125977, 
192, 1143692405, 0.64892817, -0.01700509, -0.7537689, -0.10215444, 9.759759902954102, 1.5862067937850952, -1.1379016637802124, -1.58993399143219, -1.7392433881759644, 1.2505079507827759, 
193, 1143709072, 0.6488324, -0.017119495, -0.7538201, -0.10236575, 9.746889114379883, 1.571162223815918, -1.1243600845336914, -1.9170211553573608, -1.8693171739578247, 1.1940832138061523, 
194, 1143725739, 0.64872116, -0.017306354, -0.75387484, -0.10263647, 9.767255783081055, 1.567348599433899, -1.161882758140564, -2.15539813041687, -1.9659154415130615, 1.240877628326416, 
195, 1143742406, 0.6486455, -0.017369002, -0.75391465, -0.10281222, 9.767507553100586, 1.541089653968811, -1.204240322113037, -1.6442968845367432, -1.711530327796936, 1.1263889074325562, 
196, 1143759073, 0.6485415, -0.017392755, -0.7539865, -0.10293689, 9.761321067810059, 1.5628197193145752, -1.2154079675674438, -0.9541499018669128, -1.9525970220565796, 1.096498966217041, 
197, 1143775740, 0.64843976, -0.01748519, -0.7540453, -0.10313041, 9.770066261291504, 1.617466926574707, -1.2290549278259277, -0.635092556476593, -1.7954503297805786, 1.0112022161483765, 
198, 1143792407, 0.6483573, -0.017559187, -0.75409514, -0.103272624, 9.753890991210938, 1.607391595840454, -1.233055591583252, -0.5972753167152405, -1.6888887882232666, 1.2078564167022705, 
199, 1143809074, 0.6482774, -0.017718902, -0.75413275, -0.10347214, 9.752384185791016, 1.5972520112991333, -1.2222093343734741, -0.8959450721740723, -1.6230895519256592, 1.3500902652740479, 
200, 1143825741, 0.64820623, -0.017937168, -0.75415623, -0.10370814, 9.793095588684082, 1.5932717323303223, -1.2581698894500732, -1.2047637701034546, -1.5347193479537964, 1.480465292930603, 
201, 1143842408, 0.64814943, -0.018071173, -0.75417984, -0.10386904, 9.771800994873047, 1.5749410390853882, -1.2485336065292358, -0.9653170704841614, -1.4796584844589233, 1.4667304754257202, 
202, 1143859075, 0.64810306, -0.018144572, -0.7542034, -0.10397369, 9.7587308883667, 1.5865628719329834, -1.244073510169983, -0.9295361638069153, -1.457285761833191, 1.4890072345733643, 
203, 1143875742, 0.6480658, -0.018285112, -0.7542093, -0.10413853, 9.737903594970703, 1.5987647771835327, -1.2305309772491455, -0.6920614242553711, -1.2577818632125854, 1.4582204818725586, 
204, 1143892409, 0.64804256, -0.018358352, -0.75421697, -0.104214676, 9.751595497131348, 1.596254825592041, -1.225340723991394, -0.2994508445262909, -1.2082661390304565, 1.570064663887024, 
205, 1143909076, 0.6480399, -0.018342076, -0.754219, -0.10421977, 9.793100357055664, 1.5813506841659546, -1.2331550121307373, -0.04975266754627228, -1.0903453826904297, 1.5161628723144531, 
206, 1143925743, 0.64804894, -0.018247912, -0.7542229, -0.10415157, 9.774712562561035, 1.5461876392364502, -1.2358115911483765, 0.39392969012260437, -1.0295536518096924, 1.4904861450195312, 
207, 1143942410, 0.64804626, -0.01819564, -0.75423074, -0.104121245, 9.744246482849121, 1.572484016418457, -1.2359697818756104, 0.29222166538238525, -1.0973248481750488, 1.4901659488677979, 
208, 1143959077, 0.6480299, -0.018238436, -0.7542331, -0.10419718, 9.755749702453613, 1.587472677230835, -1.2266360521316528, -0.22248470783233643, -1.135961651802063, 1.436814785003662, 
209, 1143975744, 0.64802057, -0.01834485, -0.75421727, -0.10435231, 9.756524085998535, 1.5548745393753052, -1.2339057922363281, -0.34153255820274353, -0.9767659306526184, 1.339320182800293, 
210, 1143992411, 0.648019, -0.018339863, -0.7542093, -0.10442028, 9.735578536987305, 1.5660713911056519, -1.2060251235961914, -0.17959624528884888, -1.0083974599838257, 1.2692309617996216, 
211, 1144009078, 0.6480158, -0.018359605, -0.7541978, -0.104518585, 9.753447532653809, 1.5955475568771362, -1.2329970598220825, -0.29726099967956543, -0.9973585605621338, 1.2420687675476074, 
212, 1144025745, 0.6480197, -0.018358145, -0.7541811, -0.10461646, 9.753214836120605, 1.586623191833496, -1.2367196083068848, -0.3572203516960144, -0.9429315328598022, 1.1644749641418457, 
213, 1144042412, 0.648046, -0.018343171, -0.7541466, -0.10470453, 9.765551567077637, 1.5500332117080688, -1.2255374193191528, -0.4189724922180176, -0.7603001594543457, 1.1822245121002197, 
214, 1144059079, 0.6480648, -0.01833145, -0.7541169, -0.104803205, 9.761467933654785, 1.57566237449646, -1.2244526147842407, -0.30882513523101807, -0.7992058992385864, 1.1207540035247803, 
215, 1144075746, 0.6480747, -0.018354783, -0.75408834, -0.1049428, 9.756458282470703, 1.5951719284057617, -1.235129714012146, -0.3613184094429016, -0.8289037942886353, 1.0702587366104126, 
216, 1144092413, 0.64809686, -0.018361825, -0.75405324, -0.105057836, 9.744213104248047, 1.578336477279663, -1.22762131690979, -0.37001389265060425, -0.7560357451438904, 1.135058879852295, 
217, 1144109080, 0.6481385, -0.018291252, -0.75401336, -0.10509886, 9.745885848999023, 1.5843141078948975, -1.2506839036941528, 0.1047111228108406, -0.6210567951202393, 1.1174373626708984, 
218, 1144125747, 0.6481932, -0.018155528, -0.75397134, -0.105086304, 9.751001358032227, 1.6045981645584106, -1.2468029260635376, 0.5767787098884583, -0.5159677863121033, 1.043019413948059, 
219, 1144142414, 0.6482554, -0.018034067, -0.7539219, -0.10507851, 9.730005264282227, 1.6484096050262451, -1.2822660207748413, 0.5431557297706604, -0.4453536570072174, 1.0961723327636719, 
220, 1144159081, 0.64833635, -0.01804058, -0.7538433, -0.10514198, 9.750353813171387, 1.6527206897735596, -1.2825217247009277, 0.23880638182163239, -0.20856422185897827, 1.371246337890625, 
221, 1144175748, 0.64845276, -0.018025307, -0.7537421, -0.10515193, 9.746801376342773, 1.629451036453247, -1.2702038288116455, 0.1495717614889145, 0.02542700804769993, 1.592834711074829, 
222, 1144192415, 0.6485886, -0.018040441, -0.75362146, -0.10517704, 9.748259544372559, 1.6070795059204102, -1.2326629161834717, 0.10353934019804001, 0.2193984091281891, 1.6783875226974487, 
223, 1144209082, 0.64871246, -0.018066162, -0.7535145, -0.10517456, 9.761436462402344, 1.6135538816452026, -1.2401416301727295, 0.32554376125335693, 0.10140707343816757, 1.831480860710144, 
224, 1144225749, 0.6488684, -0.017970832, -0.75339955, -0.10505263, 9.773802757263184, 1.5729387998580933, -1.269423007965088, 0.6128798723220825, 0.25723472237586975, 1.8863047361373901, 
225, 1144242416, 0.6490184, -0.017904678, -0.75328887, -0.10493099, 9.784749984741211, 1.5502398014068604, -1.2313611507415771, 1.1699947118759155, 0.2843458354473114, 1.9353405237197876, 
226, 1144259083, 0.649185, -0.017766817, -0.7531761, -0.10473396, 9.772754669189453, 1.5351439714431763, -1.2855215072631836, 1.8147302865982056, 0.4132929742336273, 1.9220091104507446, 
227, 1144275750, 0.6493691, -0.017576318, -0.7530509, -0.10452294, 9.758232116699219, 1.5762814283370972, -1.2182646989822388, 2.1023221015930176, 0.5984470844268799, 1.7267504930496216, 
228, 1144292417, 0.6495511, -0.01740714, -0.7529238, -0.10433692, 9.732848167419434, 1.6117377281188965, -1.154056429862976, 1.824321985244751, 0.5774831175804138, 1.7333457469940186, 
229, 1144309084, 0.6497348, -0.017319271, -0.752786, -0.10420276, 9.758173942565918, 1.6140809059143066, -1.141461730003357, 1.1402071714401245, 0.5725142955780029, 1.9339574575424194, 
230, 1144325751, 0.6499191, -0.017193994, -0.75264883, -0.10406506, 9.77950382232666, 1.5572623014450073, -1.1302812099456787, 0.8377977609634399, 0.5303941965103149, 1.8277925252914429, 
231, 1144342418, 0.6500772, -0.01707978, -0.7525298, -0.10395634, 9.774866104125977, 1.5308512449264526, -1.1348540782928467, 0.7442857027053833, 0.31981930136680603, 1.7207697629928589, 
232, 1144359085, 0.6501938, -0.017023241, -0.75243616, -0.10391511, 9.769153594970703, 1.5465205907821655, -1.1295210123062134, 0.9859864711761475, 0.06952567398548126, 1.5684705972671509, 
233, 1144375752, 0.6503036, -0.016945606, -0.7523469, -0.10388683, 9.76941967010498, 1.56191086769104, -1.0864671468734741, 0.4516671895980835, -0.0490611232817173, 1.4713088274002075, 
234, 1144392419, 0.6503594, -0.017105196, -0.75226825, -0.10408049, 9.768241882324219, 1.5388528108596802, -1.1035633087158203, 0.19026392698287964, -0.25451338291168213, 1.4041392803192139, 
235, 1144409086, 0.6504339, -0.017021049, -0.75221074, -0.10404418, 9.78011703491211, 1.5145480632781982, -1.1231151819229126, 0.29412344098091125, -0.41109028458595276, 1.480926275253296, 
236, 1144425753, 0.6504852, -0.016960857, -0.7521668, -0.10405052, 9.754654884338379, 1.5348352193832397, -1.1661405563354492, 0.15016725659370422, -0.5825096368789673, 1.3689732551574707, 
237, 1144442420, 0.6505201, -0.016925516, -0.7521315, -0.104094066, 9.758203506469727, 1.5897096395492554, -1.162275791168213, 0.2242455780506134, -0.6679791808128357, 1.2672076225280762, 
238, 1144459087, 0.6505611, -0.016922683, -0.75208694, -0.104159445, 9.77043342590332, 1.6059861183166504, -1.1852784156799316, 0.08269699662923813, -0.5991450548171997, 1.32723069190979, 
239, 1144475754, 0.6506029, -0.016961377, -0.7520366, -0.10425617, 9.782537460327148, 1.5893980264663696, -1.1885364055633545, -0.1864604651927948, -0.5831755995750427, 1.3936830759048462, 
240, 1144492421, 0.65064275, -0.017051946, -0.7519849, -0.10436544, 9.75813102722168, 1.5634750127792358, -1.1559544801712036, 0.12589281797409058, -0.538122832775116, 1.5233473777770996, 
241, 1144509088, 0.65068567, -0.017112127, -0.75193334, -0.104458556, 9.757397651672363, 1.5804834365844727, -1.1801517009735107, 0.0876210555434227, -0.5395251512527466, 1.4759831428527832, 
242, 1144525755, 0.6507517, -0.017026344, -0.75188166, -0.10443365, 9.771883964538574, 1.591537594795227, -1.1859437227249146, 0.10626067966222763, -0.5006898641586304, 1.4363025426864624, 
243, 1144542422, 0.65080714, -0.017090404, -0.7518154, -0.10455473, 9.772598266601562, 1.5598944425582886, -1.1689693927764893, -0.006608076859265566, -0.3953704535961151, 1.373513102531433, 
244, 1144559089, 0.65086794, -0.017145514, -0.75174516, -0.10467269, 9.7703218460083, 1.5335125923156738, -1.2013739347457886, -0.08181977272033691, -0.3633289635181427, 1.36345374584198, 
245, 1144575756, 0.6509217, -0.017222932, -0.7516762, -0.104820184, 9.783147811889648, 1.5669022798538208, -1.1753194332122803, -0.4518720209598541, -0.4316636621952057, 1.3560066223144531, 
246, 1144592423, 0.65096307, -0.01741314, -0.75160116, -0.105070144, 9.77851676940918, 1.560408115386963, -1.1621408462524414, -0.8753396272659302, -0.4518336057662964, 1.3889381885528564, 
247, 1144609090, 0.6510255, -0.01746562, -0.75152844, -0.1051949, 9.770844459533691, 1.551602840423584, -1.1195251941680908, -0.8939152359962463, -0.4479469060897827, 1.4239510297775269, 
248, 1144625757, 0.651077, -0.017533261, -0.7514636, -0.10532764, 9.76662540435791, 1.5664719343185425, -1.136591911315918, -0.5986072421073914, -0.49540087580680847, 1.4040305614471436, 
249, 1144642424, 0.6511147, -0.017561737, -0.7514177, -0.10541673, 9.779295921325684, 1.5789096355438232, -1.126545786857605, -0.40456533432006836, -0.6592195630073547, 1.4133023023605347, 
250, 1144659091, 0.6511686, -0.017540636, -0.75136465, -0.10546628, 9.7679443359375, 1.5769582986831665, -1.128366470336914, -0.4446108639240265, -0.5786164999008179, 1.408333420753479, 
251, 1144675758, 0.65120286, -0.01757253, -0.75132096, -0.10556033, 9.764203071594238, 1.5602364540100098, -1.1024916172027588, -0.22189563512802124, -0.6622803807258606, 1.3769965171813965, 
252, 1144692425, 0.6512239, -0.017642044, -0.75128424, -0.10567992, 9.753201484680176, 1.5631822347640991, -1.1210376024246216, -0.15567398071289062, -0.7360321879386902, 1.3985238075256348, 
253, 1144709092, 0.65124273, -0.01771299, -0.7512516, -0.10578518, 9.769956588745117, 1.5656757354736328, -1.1687599420547485, -0.15129423141479492, -0.7777296900749207, 1.4761303663253784, 
254, 1144725759, 0.6512848, -0.017638199, -0.7512217, -0.10574961, 9.770064353942871, 1.5663625001907349, -1.2001523971557617, 0.1876194030046463, -0.7277079820632935, 1.508735179901123, 
255, 1144742426, 0.65133053, -0.017580768, -0.7511892, -0.10570833, 9.774901390075684, 1.5774047374725342, -1.2141163349151611, 0.3368518352508545, -0.6792744994163513, 1.5992122888565063, 
256, 1144759093, 0.6513609, -0.017709328, -0.75114435, -0.10581903, 9.749693870544434, 1.5639182329177856, -1.2009944915771484, 0.33772268891334534, -0.588554322719574, 1.6563926935195923, 
257, 1144775760, 0.65140635, -0.017761799, -0.75109947, -0.105849706, 9.768702507019043, 1.5823605060577393, -1.2071024179458618, 0.5951302647590637, -0.5325904488563538, 1.6978209018707275, 
258, 1144792427, 0.6514937, -0.017626913, -0.7510486, -0.10569376, 9.770761489868164, 1.5893250703811646, -1.2060809135437012, 0.9035647511482239, -0.3833388388156891, 1.7925301790237427, 
259, 1144809094, 0.6515894, -0.017582236, -0.75097996, -0.10560026, 9.770315170288086, 1.5721033811569214, -1.1917980909347534, 1.0741454362869263, -0.18819572031497955, 1.8692148923873901, 
260, 1144825761, 0.6517116, -0.017411519, -0.7509074, -0.10538919, 9.776086807250977, 1.5534319877624512, -1.1996855735778809, 1.2376312017440796, -0.09673276543617249, 1.8962748050689697, 
261, 1144842428, 0.6518235, -0.017243396, -0.7508442, -0.10517502, 9.817436218261719, 1.4714008569717407, -1.2342498302459717, 1.7779055833816528, -0.1154620572924614, 1.8462275266647339, 
262, 1144859095, 0.6519228, -0.017015735, -0.75080025, -0.104910076, 9.782997131347656, 1.54078209400177, -1.2013856172561646, 2.0794758796691895, -0.2592005133628845, 1.7810368537902832, 
263, 1144875762, 0.6520089, -0.01707311, -0.7507297, -0.10487173, 9.751781463623047, 1.6238374710083008, -1.1723970174789429, 2.1274802684783936, -0.033104412257671356, 1.9039583206176758, 
264, 1144892429, 0.6521267, -0.016965987, -0.750653, -0.104703754, 9.768415451049805, 1.6040866374969482, -1.1331243515014648, 1.8159723281860352, 0.022148579359054565, 1.8844735622406006, 
265, 1144909096, 0.65225965, -0.016767113, -0.7505759, -0.104461536, 9.76254940032959, 1.581417441368103, -1.1263211965560913, 1.91947340965271, 0.06407656520605087, 1.844799280166626, 
266, 1144925763, 0.65241736, -0.016441604, -0.7504976, -0.10409001, 9.769087791442871, 1.5516650676727295, -1.1174715757369995, 2.0972256660461426, 0.12566231191158295, 1.9270164966583252, 
267, 1144942430, 0.652556, -0.01632953, -0.75040585, -0.10390059, 9.757537841796875, 1.5431103706359863, -1.0897036790847778, 1.8111958503723145, 0.18208707869052887, 1.9904844760894775, 
268, 1144959097, 0.6526742, -0.016202731, -0.75032973, -0.10372743, 9.777490615844727, 1.5384680032730103, -1.0995792150497437, 1.165871024131775, -0.0698714554309845, 1.9054889678955078, 
269, 1144975764, 0.6527516, -0.016315203, -0.7502554, -0.1037596, 9.794622421264648, 1.5334993600845337, -1.1039868593215942, 0.8883253335952759, -0.1802813857793808, 1.9516749382019043, 
270, 1144992431, 0.6528549, -0.016202528, -0.750187, -0.10362186, 9.785073280334473, 1.5128103494644165, -1.0999423265457153, 0.7773581147193909, -0.20965270698070526, 1.8258905410766602, 
271, 1145009098, 0.65292996, -0.016156133, -0.7501301, -0.103567705, 9.778594017028809, 1.5211341381072998, -1.1051632165908813, 1.0356173515319824, -0.3090555667877197, 1.6441750526428223, 
272, 1145025765, 0.6529887, -0.01612306, -0.7500877, -0.1035105, 9.775561332702637, 1.5498098134994507, -1.1162439584732056, 1.0782241821289062, -0.45835205912590027, 1.7024697065353394, 
273, 1145042432, 0.6530562, -0.016060235, -0.75004107, -0.10343184, 9.804303169250488, 1.5369678735733032, -1.1132760047912598, 0.934332013130188, -0.4289230406284332, 1.7001516819000244, 
274, 1145059099, 0.6531109, -0.016057763, -0.7499957, -0.10341618, 9.801777839660645, 1.4972537755966187, -1.1077152490615845, 1.0697784423828125, -0.4348011910915375, 1.624831199645996, 
275, 1145075766, 0.65316015, -0.01599962, -0.7499646, -0.10334005, 9.761066436767578, 1.491408109664917, -1.1024898290634155, 1.3845841884613037, -0.5305734872817993, 1.6352555751800537, 
276, 1145092433, 0.6531933, -0.01595488, -0.749942, -0.10330088, 9.773160934448242, 1.5495645999908447, -1.128848910331726, 1.3477083444595337, -0.6269093155860901, 1.4973634481430054, 
277, 1145109100, 0.6532396, -0.015852656, -0.74992186, -0.10316974, 9.785728454589844, 1.5629521608352661, -1.1931592226028442, 1.2091370820999146, -0.6605067253112793, 1.732891321182251, 
278, 1145125767, 0.65330523, -0.015704235, -0.7498916, -0.10299674, 9.768343925476074, 1.5345990657806396, -1.1936358213424683, 1.2594660520553589, -0.5350813269615173, 1.7440201044082642, 
279, 1145142434, 0.65338176, -0.015634626, -0.74984246, -0.10287942, 9.782286643981934, 1.5519479513168335, -1.2320536375045776, 1.3333524465560913, -0.3403799831867218, 1.818610668182373, 
280, 1145159101, 0.6534605, -0.015580031, -0.7497933, -0.10274652, 9.774482727050781, 1.5608282089233398, -1.1541472673416138, 1.0610125064849854, -0.3756870925426483, 2.0030734539031982, 
281, 1145175768, 0.6535404, -0.015674487, -0.7497249, -0.102722265, 9.780808448791504, 1.5714105367660522, -1.1400494575500488, 0.44349032640457153, -0.2884886562824249, 2.2093067169189453, 
282, 1145192435, 0.6536393, -0.015723972, -0.7496478, -0.102647796, 9.800627708435059, 1.4692416191101074, -1.1627237796783447, 0.8052056431770325, -0.13691267371177673, 2.2301809787750244, 
283, 1145209102, 0.6537399, -0.015567408, -0.7495937, -0.10242635, 9.799609184265137, 1.4972220659255981, -1.147853970527649, 1.3369508981704712, -0.261006236076355, 1.9673435688018799, 
284, 1145225769, 0.65383995, -0.015459109, -0.7495367, -0.102221996, 9.792828559875488, 1.5452730655670166, -1.1264230012893677, 1.7318346500396729, -0.18622992932796478, 2.0519678592681885, 
285, 1145242436, 0.6539584, -0.0153344, -0.7494671, -0.10199165, 9.758888244628906, 1.5417195558547974, -1.0823880434036255, 1.657186508178711, -0.060778938233852386, 2.132340431213379, 
286, 1145259103, 0.65405685, -0.015259554, -0.7494113, -0.10178092, 9.777303695678711, 1.494404673576355, -1.0718811750411987, 1.9373573064804077, -0.17787379026412964, 2.213615655899048, 
287, 1145275770, 0.654118, -0.015283242, -0.7493736, -0.10166261, 9.814045906066895, 1.443135380744934, -1.1014295816421509, 2.4338786602020264, -0.31910860538482666, 2.1029882431030273, 
288, 1145292437, 0.6542088, -0.015085559, -0.7493371, -0.10137673, 9.799267768859863, 1.457263469696045, -1.0942091941833496, 2.6029162406921387, -0.26522591710090637, 1.941275715827942, 
289, 1145309104, 0.65429974, -0.014848658, -0.7493033, -0.101074696, 9.788433074951172, 1.5011897087097168, -1.1044487953186035, 2.102290391921997, -0.3567273020744324, 1.9002702236175537, 
290, 1145325771, 0.65439206, -0.014755277, -0.7492508, -0.10087905, 9.77243709564209, 1.525749921798706, -1.0875763893127441, 1.1776655912399292, -0.3143446743488312, 2.1295104026794434, 
291, 1145342438, 0.6544543, -0.014726927, -0.7492139, -0.100754246, 9.800680160522461, 1.4671738147735596, -1.0891846418380737, 0.8536969423294067, -0.5320462584495544, 2.0826070308685303, 
292, 1145359105, 0.6545118, -0.014678107, -0.7491825, -0.10062083, 9.779648780822754, 1.4609708786010742, -1.0678222179412842, 1.1178278923034668, -0.5518960356712341, 1.9976754188537598, 
293, 1145375772, 0.6545399, -0.014697662, -0.7491661, -0.10055698, 9.78682804107666, 1.4956754446029663, -1.0842251777648926, 1.1431972980499268, -0.7201331257820129, 1.9273557662963867, 
294, 1145392439, 0.6545718, -0.014664769, -0.74915475, -0.10043968, 9.790450096130371, 1.5024137496948242, -1.075988531112671, 1.031288981437683, -0.7778064608573914, 1.9751423597335815, 
295, 1145409106, 0.6546017, -0.014505431, -0.7491601, -0.10022733, 9.805309295654297, 1.4662787914276123, -1.0907678604125977, 1.0469383001327515, -0.927525520324707, 1.8763797283172607, 
296, 1145425773, 0.65459836, -0.014491534, -0.7491754, -0.10013657, 9.804023742675781, 1.4629985094070435, -1.080929160118103, 1.229697823524475, -1.0340999364852905, 1.8752275705337524, 
297, 1145442440, 0.6545946, -0.014372912, -0.7492038, -0.099965364, 9.7882661819458, 1.4531311988830566, -1.0386219024658203, 1.2586785554885864, -1.1484735012054443, 1.8006947040557861, 
298, 1145459107, 0.6545429, -0.014433079, -0.7492452, -0.0999846, 9.776585578918457, 1.4626319408416748, -1.0723862648010254, 1.0491539239883423, -1.3477915525436401, 1.6358000040054321, 
299, 1145475774, 0.65448314, -0.014517293, -0.74929184, -0.10001479, 9.78516674041748, 1.4611941576004028, -1.083648443222046, 0.7946916222572327, -1.4421229362487793, 1.7128044366836548, 
300, 1145492441, 0.65440625, -0.0145584075, -0.7493586, -0.10001109, 9.792207717895508, 1.4766535758972168, -1.0914130210876465, 0.3336694538593292, -1.7084888219833374, 1.73000967502594, 
301, 1145509108, 0.6543496, -0.014444595, -0.7494256, -0.09989735, 9.789816856384277, 1.4821860790252686, -1.0980808734893799, -0.2610446512699127, -1.759259581565857, 1.6655746698379517, 
302, 1145525775, 0.6542564, -0.014546536, -0.7494962, -0.099962376, 9.778947830200195, 1.461350679397583, -1.0577219724655151, -0.4093421995639801, -1.860493779182434, 1.7370150089263916, 
303, 1145542442, 0.6541068, -0.0148446215, -0.74958825, -0.10020821, 9.828804016113281, 1.4527127742767334, -1.086153268814087, -0.5013622045516968, -2.136143922805786, 1.6789636611938477, 
304, 1145559109, 0.6539631, -0.014993406, -0.7496956, -0.10032059, 9.807833671569824, 1.4482693672180176, -1.1323394775390625, -0.6874960660934448, -2.2951409816741943, 1.701701283454895, 
305, 1145575776, 0.65379506, -0.015318874, -0.74979985, -0.100586824, 9.753302574157715, 1.4706822633743286, -1.116639256477356, -0.8005121350288391, -2.313070297241211, 1.7202194929122925, 
306, 1145592443, 0.65363675, -0.0154830655, -0.74991924, -0.10070062, 9.765096664428711, 1.495656132698059, -1.1386938095092773, -0.8182745575904846, -2.4425551891326904, 1.766335129737854, 
307, 1145609110, 0.65347767, -0.015745683, -0.7500242, -0.100909725, 9.806554794311523, 1.4949337244033813, -1.1680991649627686, -1.367519736289978, -2.385791301727295, 1.7974610328674316, 
308, 1145625777, 0.6533395, -0.015920764, -0.75012535, -0.101025335, 9.83491325378418, 1.4203710556030273, -1.1624432802200317, -0.9270197749137878, -2.2677295207977295, 1.835329294204712, 
309, 1145642444, 0.65320003, -0.015875135, -0.75025815, -0.10094844, 9.797289848327637, 1.4029613733291626, -1.1404592990875244, -0.06290479749441147, -2.4369587898254395, 1.6941969394683838, 
310, 1145659111, 0.65303856, -0.015955074, -0.75039166, -0.10098877, 9.787117004394531, 1.4705947637557983, -1.1264936923980713, -0.012691090814769268, -2.4623024463653564, 1.6457760334014893, 
311, 1145675778, 0.6528719, -0.016045941, -0.75052917, -0.10102879, 9.78669261932373, 1.4608913660049438, -1.1568137407302856, -0.15598134696483612, -2.529932975769043, 1.7083607912063599, 
312, 1145692445, 0.6526816, -0.016167603, -0.7506827, -0.10109933, 9.77583122253418, 1.4345413446426392, -1.1596205234527588, 0.08559765666723251, -2.668133020401001, 1.6452959775924683, 
313, 1145709112, 0.6524936, -0.016278917, -0.75083625, -0.10115385, 9.779261589050293, 1.4429981708526611, -1.1913503408432007, 0.22937454283237457, -2.6507034301757812, 1.660868525505066, 
314, 1145725779, 0.65233403, -0.016174996, -0.75099456, -0.101025, 9.77552318572998, 1.4821192026138306, -1.182221531867981, 0.28444185853004456, -2.6435317993164062, 1.625317931175232, 
315, 1145742446, 0.65213317, -0.016382264, -0.7511475, -0.10115117, 9.797959327697754, 1.4786081314086914, -1.1472328901290894, 0.0676303282380104, -2.6833460330963135, 1.7441351413726807, 
316, 1145759113, 0.6519402, -0.016486678, -0.7513061, -0.10120018, 9.770689964294434, 1.4473984241485596, -1.1768858432769775, 0.029710732400417328, -2.7255306243896484, 1.6766457557678223, 
317, 1145775780, 0.6517396, -0.016550599, -0.7514793, -0.101195425, 9.77790355682373, 1.4331587553024292, -1.181059718132019, 0.4574427902698517, -2.814713954925537, 1.7056519985198975, 
318, 1145792447, 0.6515434, -0.016503586, -0.7516601, -0.10112305, 9.776774406433105, 1.4588863849639893, -1.1902601718902588, 0.5477851629257202, -2.856917142868042, 1.5315560102462769, 
319, 1145809114, 0.6513215, -0.016568758, -0.7518494, -0.10113451, 9.780117988586426, 1.4376024007797241, -1.1702642440795898, 0.3994620442390442, -2.9912941455841064, 1.6147205829620361, 
320, 1145825781, 0.6510747, -0.016678136, -0.7520575, -0.10115836, 9.792308807373047, 1.4282938241958618, -1.1893036365509033, 0.4930252432823181, -3.1860921382904053, 1.7201553583145142, 
321, 1145842448, 0.65081567, -0.016893892, -0.75226134, -0.101273775, 9.79906177520752, 1.4314672946929932, -1.2037403583526611, 0.6280426383018494, -3.147916078567505, 1.7060043811798096, 
322, 1145859115, 0.65056795, -0.016964387, -0.7524739, -0.10127469, 9.772425651550293, 1.4306532144546509, -1.2004354000091553, 0.8177943825721741, -3.182480573654175, 1.61093008518219, 
323, 1145875782, 0.65030813, -0.017044526, -0.75269586, -0.10128106, 9.77090835571289, 1.4490724802017212, -1.2142245769500732, 0.8551952838897705, -3.2786495685577393, 1.6106418371200562, 
324, 1145892449, 0.65004826, -0.0170338, -0.7529299, -0.10121263, 9.792391777038574, 1.4394673109054565, -1.2421435117721558, 0.6524451971054077, -3.4112212657928467, 1.6043282747268677, 
325, 1145909116, 0.64978963, -0.017074797, -0.7531559, -0.10118522, 9.734297752380371, 1.4273334741592407, -1.2420028448104858, 0.5895786881446838, -3.350454807281494, 1.6397120952606201, 
326, 1145925783, 0.64952993, -0.017102815, -0.7533857, -0.10113653, 9.768845558166504, 1.4472694396972656, -1.2701479196548462, 0.6773214936256409, -3.3758180141448975, 1.6749874353408813, 
327, 1145942450, 0.6492505, -0.017246377, -0.7536151, -0.10119825, 9.75423526763916, 1.453308343887329, -1.2880645990371704, 0.4073636531829834, -3.4307961463928223, 1.6534985303878784, 
328, 1145959117, 0.6489637, -0.01749414, -0.7538414, -0.101307936, 9.743843078613281, 1.4773211479187012, -1.2734646797180176, 0.2972610294818878, -3.441124439239502, 1.8884117603302002, 
329, 1145975784, 0.6486879, -0.017619476, -0.7540764, -0.10130371, 9.778044700622559, 1.4568816423416138, -1.3100887537002563, 0.3541980981826782, -3.494987964630127, 1.918404221534729, 
330, 1145992451, 0.6484224, -0.017759796, -0.75430244, -0.101295896, 9.726272583007812, 1.4716742038726807, -1.323122262954712, 0.5133938789367676, -3.382842779159546, 1.9895180463790894, 
331, 1146009118, 0.64816445, -0.01798366, -0.75451237, -0.101343885, 9.754100799560547, 1.5023716688156128, -1.341798186302185, 0.5325842499732971, -3.228532552719116, 2.0837278366088867, 
332, 1146025785, 0.6479592, -0.018051619, -0.7547009, -0.101241775, 9.772520065307617, 1.464974045753479, -1.3542100191116333, 0.5845202803611755, -2.9554879665374756, 2.1802172660827637, 
333, 1146042452, 0.64775616, -0.018122299, -0.75488824, -0.101130694, 9.769515991210938, 1.457585096359253, -1.3193455934524536, 0.8154124021530151, -2.914149045944214, 2.2078723907470703, 
334, 1146059119, 0.6475539, -0.018307475, -0.75506365, -0.10108188, 9.770491600036621, 1.4447245597839355, -1.3581407070159912, 0.9784884452819824, -2.793001174926758, 2.382922410964966, 
335, 1146075786, 0.64735156, -0.0184633, -0.7552459, -0.1009892, 9.743438720703125, 1.4561492204666138, -1.3340084552764893, 0.9619491100311279, -2.8574366569519043, 2.4777729511260986, 
336, 1146092453, 0.64714164, -0.018690646, -0.755428, -0.10093146, 9.764500617980957, 1.4565789699554443, -1.3056325912475586, 1.0939311981201172, -2.857795000076294, 2.596141815185547, 
337, 1146109120, 0.646962, -0.018722981, -0.75561196, -0.10069818, 9.768837928771973, 1.4390578269958496, -1.2836042642593384, 1.2809233665466309, -2.805577039718628, 2.615537405014038, 
338, 1146125787, 0.6467861, -0.018753171, -0.75579566, -0.100444354, 9.777299880981445, 1.4199156761169434, -1.2944321632385254, 1.6921221017837524, -2.7481658458709717, 2.6549549102783203, 
339, 1146142454, 0.6465869, -0.018773163, -0.75599945, -0.1001886, 9.74502944946289, 1.386885166168213, -1.283729910850525, 2.273332118988037, -2.884355068206787, 2.514462947845459, 
340, 1146159121, 0.6463753, -0.018779434, -0.7562206, -0.09988442, 9.745952606201172, 1.4426884651184082, -1.319258689880371, 2.3573994636535645, -3.054020404815674, 2.680964708328247, 
341, 1146175788, 0.64615303, -0.018841712, -0.75644326, -0.099624775, 9.810152053833008, 1.4075604677200317, -1.2869740724563599, 2.022871971130371, -3.129244565963745, 2.745060682296753, 
342, 1146192455, 0.64589506, -0.018984882, -0.75668526, -0.09943221, 9.819859504699707, 1.304770827293396, -1.2681035995483398, 2.099351406097412, -3.350384473800659, 2.7239301204681396, 
343, 1146209122, 0.6456012, -0.019045994, -0.75697047, -0.099157035, 9.759415626525879, 1.3117321729660034, -1.2421973943710327, 2.6646370887756348, -3.717299699783325, 2.6661863327026367, 
344, 1146225789, 0.6452679, -0.019048724, -0.75729257, -0.098866254, 9.749497413635254, 1.3727246522903442, -1.2345173358917236, 2.8398401737213135, -4.073648452758789, 2.423236846923828, 
345, 1146242456, 0.6449081, -0.018995047, -0.757641, -0.098553345, 9.761759757995605, 1.338271975517273, -1.2945579290390015, 2.590686559677124, -4.379419803619385, 2.2996108531951904, 
346, 1146259123, 0.6444995, -0.019009098, -0.75802106, -0.09830116, 9.782946586608887, 1.3078252077102661, -1.3245264291763306, 2.7276246547698975, -4.716585159301758, 2.2296624183654785, 
347, 1146275790, 0.6440623, -0.01900315, -0.75842667, -0.09804006, 9.764348030090332, 1.323817491531372, -1.3625856637954712, 2.8842461109161377, -4.968230247497559, 2.1367907524108887, 
348, 1146292457, 0.6435879, -0.018941317, -0.7588712, -0.09772593, 9.761571884155273, 1.3659766912460327, -1.3370898962020874, 2.685793161392212, -5.3983259201049805, 2.1622438430786133, 
349, 1146309124, 0.643071, -0.019028803, -0.75933313, -0.09752398, 9.747217178344727, 1.3521132469177246, -1.398338794708252, 2.302940845489502, -5.676000118255615, 2.276226758956909, 
350, 1146325791, 0.6425278, -0.019073378, -0.75982434, -0.09726884, 9.765424728393555, 1.2726601362228394, -1.4367055892944336, 2.5838093757629395, -5.946866989135742, 2.2955002784729004, 
351, 1146342458, 0.64194155, -0.019109683, -0.7603527, -0.0970041, 9.745147705078125, 1.39561128616333, -1.3844038248062134, 2.985813617706299, -6.293559551239014, 2.207699775695801, 
352, 1146359125, 0.64132124, -0.019290773, -0.7608949, -0.09682069, 9.740862846374512, 1.4456666707992554, -1.3367547988891602, 2.485028028488159, -6.550718307495117, 2.4873971939086914, 
353, 1146375792, 0.64065534, -0.01946227, -0.76147264, -0.09665228, 9.747090339660645, 1.3793290853500366, -1.2906748056411743, 1.5875970125198364, -7.049461364746094, 2.4801485538482666, 
354, 1146392459, 0.6399345, -0.019611083, -0.7620983, -0.096465334, 9.782331466674805, 1.2628941535949707, -1.2672176361083984, 1.6485040187835693, -7.56217622756958, 2.425029993057251, 
355, 1146409126, 0.63912404, -0.019707931, -0.7627967, -0.09629914, 9.776854515075684, 1.163028359413147, -1.2287702560424805, 2.0647106170654297, -8.285645484924316, 1.940245270729065, 
356, 1146425793, 0.6382035, -0.019717522, -0.7635912, -0.09610633, 9.768301010131836, 1.1042239665985107, -1.141647458076477, 2.308351755142212, -9.278690338134766, 1.56557035446167, 
357, 1146442460, 0.63713306, -0.01972831, -0.7644959, -0.09601162, 9.784934043884277, 1.0044978857040405, -1.049708604812622, 1.5481795072555542, -10.58257007598877, 1.0705407857894897, 
358, 1146459127, 0.63583726, -0.01990437, -0.76554364, -0.09621771, 9.703563690185547, 0.8724191784858704, -0.9112108945846558, 0.4225521981716156, -12.33927059173584, 0.2403305321931839, 
359, 1146475794, 0.6342423, -0.020063557, -0.7668142, -0.0965939, 9.718335151672363, 0.7564294934272766, -0.7887917160987854, -0.19822964072227478, -14.856308937072754, -0.8562203049659729, 
360, 1146492461, 0.6323289, -0.02006219, -0.7683245, -0.09713437, 9.75885009765625, 0.592514157295227, -0.6478427648544312, -1.2268177270889282, -17.592849731445312, -2.50089693069458, 
361, 1146509128, 0.62994754, -0.020093901, -0.7701581, -0.09807672, 9.835205078125, 0.3899089992046356, -0.49947303533554077, -1.6543527841567993, -21.244489669799805, -4.781194686889648, 
362, 1146525795, 0.62706774, -0.01981094, -0.7723708, -0.09918308, 9.827073097229004, 0.12168785184621811, -0.29029330611228943, -1.5506478548049927, -25.39198112487793, -7.47416353225708, 
363, 1146542462, 0.62360525, -0.01899435, -0.7750313, -0.1004101, 9.739628791809082, -0.12948329746723175, 0.011453595012426376, -0.914203941822052, -30.232532501220703, -11.063055992126465, 
364, 1146559129, 0.6193933, -0.017754765, -0.7782325, -0.10193625, 9.773907661437988, -0.4307239353656769, 0.2814651131629944, 0.8878818154335022, -36.076473236083984, -15.523589134216309, 
365, 1146575796, 0.6143469, -0.015802039, -0.78204364, -0.1036146, 9.876347541809082, -0.7489457130432129, 0.4429002106189728, 3.70090389251709, -42.624977111816406, -20.776905059814453, 
366, 1146592463, 0.6083778, -0.012772231, -0.78655, -0.10513102, 10.029109001159668, -1.0700733661651611, 0.3423406779766083, 10.569966316223145, -49.65583038330078, -26.95967674255371, 
367, 1146609130, 0.6014881, -0.008162743, -0.79177314, -0.106024235, 10.125151634216309, -1.333504557609558, -0.15804436802864075, 21.852325439453125, -56.437198638916016, -33.968711853027344, 
368, 1146625797, 0.59390014, -0.0011694123, -0.7975511, -0.10580051, 10.138509750366211, -1.1022069454193115, -0.9807397127151489, 37.24139404296875, -61.025718688964844, -42.76000213623047, 
369, 1146642464, 0.58571786, 0.007653408, -0.8037314, -0.10436566, 10.210551261901855, 0.4013160169124603, -1.9283192157745361, 51.63885498046875, -64.6081771850586, -48.390777587890625, 
370, 1146659131, 0.57727, 0.017066926, -0.80993515, -0.10233912, 10.426172256469727, 2.550494909286499, -2.792172908782959, 55.988285064697266, -65.96097564697266, -49.097618103027344, 
371, 1146675798, 0.5693477, 0.025675742, -0.81542933, -0.10128687, 11.169517517089844, 4.180732250213623, -3.152249574661255, 46.15497589111328, -61.02434539794922, -47.961856842041016, 
372, 1146692465, 0.5624854, 0.03336264, -0.81987363, -0.101511694, 11.539769172668457, 4.371800422668457, -3.526346206665039, 34.448341369628906, -51.84593963623047, -47.189144134521484, 
373, 1146709132, 0.5568063, 0.041703697, -0.82347685, -0.100565776, 10.945765495300293, 2.707156181335449, -3.746744155883789, 42.75473403930664, -41.19428253173828, -45.68379211425781, 
374, 1146725799, 0.55244946, 0.051500235, -0.82639456, -0.09601879, 10.006773948669434, 1.5169267654418945, -3.8112893104553223, 67.7718505859375, -29.062782287597656, -39.377079010009766, 
375, 1146742466, 0.54925746, 0.06268028, -0.8286198, -0.08818642, 9.190450668334961, 1.9060802459716797, -4.395595073699951, 90.84801483154297, -17.72459602355957, -34.25871276855469, 
376, 1146759133, 0.54779905, 0.072584994, -0.8295199, -0.08089813, 9.070648193359375, 3.518397569656372, -4.788973808288574, 81.3425064086914, -3.837958812713623, -28.546218872070312, 
377, 1146775800, 0.5482569, 0.07910234, -0.829044, -0.0764409, 8.84366226196289, 4.8231000900268555, -4.596710205078125, 50.696048736572266, 8.999368667602539, -19.46058464050293, 
378, 1146792467, 0.55049974, 0.081093654, -0.8274186, -0.0758452, 8.813968658447266, 4.904930114746094, -4.217286586761475, 10.016881942749023, 19.04058265686035, -7.816983222961426, 
379, 1146809134, 0.5544155, 0.07962118, -0.82475483, -0.07786906, 8.573113441467285, 3.7256672382354736, -4.220122814178467, -19.382238388061523, 29.254281997680664, 2.299985647201538, 
380, 1146825801, 0.55985844, 0.07644148, -0.82117385, -0.07992983, 8.342323303222656, 2.4606430530548096, -4.099362850189209, -27.41752815246582, 40.495635986328125, 12.19329833984375, 
381, 1146842468, 0.56647164, 0.072539434, -0.8169141, -0.08061851, 8.301370620727539, 2.0411510467529297, -3.8346471786499023, -23.404998779296875, 50.06608963012695, 21.838895797729492, 
382, 1146859135, 0.5738743, 0.0678061, -0.8121445, -0.080572985, 8.410093307495117, 2.276230573654175, -3.5275497436523438, -23.21160888671875, 56.404327392578125, 29.562759399414062, 
383, 1146875802, 0.58198684, 0.061807316, -0.8068315, -0.08058746, 8.443543434143066, 2.5703208446502686, -3.383359670639038, -29.151376724243164, 61.79615783691406, 36.53915786743164, 
384, 1146892469, 0.5906778, 0.054580554, -0.8009886, -0.08085977, 8.581526756286621, 2.3935210704803467, -3.2206318378448486, -35.971435546875, 66.3560562133789, 42.41703414916992, 
385, 1146909136, 0.59976584, 0.046712514, -0.79469526, -0.08098452, 8.814597129821777, 1.9689991474151611, -2.9864466190338135, -38.17818069458008, 70.07286834716797, 46.62650680541992, 
386, 1146925803, 0.60890377, 0.039039318, -0.7881952, -0.0803759, 9.10012435913086, 1.5821179151535034, -2.9574224948883057, -34.246246337890625, 71.40180206298828, 48.770904541015625, 
387, 1146942470, 0.6179621, 0.03169375, -0.7815829, -0.07903555, 9.272757530212402, 1.3781676292419434, -2.620012044906616, -28.966691970825195, 71.8306655883789, 49.977630615234375, 
388, 1146959137, 0.62682104, 0.025041498, -0.77494144, -0.077034056, 9.186799049377441, 1.496659278869629, -2.3700125217437744, -22.456310272216797, 71.41255950927734, 48.937255859375, 
389, 1146975804, 0.6352233, 0.019140141, -0.7684457, -0.074941844, 9.31911849975586, 2.1123409271240234, -1.9501919746398926, -18.594989776611328, 68.7749252319336, 45.106971740722656, 
390, 1146992471, 0.643108, 0.013220761, -0.7621095, -0.07366451, 9.828174591064453, 2.5522634983062744, -1.7332074642181396, -22.838069915771484, 65.23100280761719, 41.409732818603516, 
391, 1147009138, 0.6507559, 0.0073130718, -0.7556931, -0.073428035, 9.856122970581055, 1.8102883100509644, -1.6434272527694702, -28.2659969329834, 64.25811767578125, 36.64008331298828, 
392, 1147025805, 0.658028, 0.0031405198, -0.74945575, -0.072839044, 9.695267677307129, 0.6568971276283264, -1.689828872680664, -18.57006072998047, 62.40228271484375, 29.029170989990234, 
393, 1147042472, 0.6646443, 0.0016720698, -0.7437925, -0.07083828, 9.69406509399414, 0.3533097207546234, -1.4717272520065308, 1.2295411825180054, 57.821781158447266, 21.152376174926758, 
394, 1147059139, 0.6702536, 0.0020454975, -0.73896956, -0.06841023, 9.508732795715332, 0.9871675372123718, -1.5570292472839355, 12.2432861328125, 49.74738693237305, 13.188493728637695, 
395, 1147075806, 0.675049, 0.0033397484, -0.7348108, -0.065961406, 9.256729125976562, 1.4572948217391968, -1.5819612741470337, 16.909698486328125, 43.00265884399414, 8.230820655822754, 
396, 1147092473, 0.6790004, 0.0045635006, -0.7312963, -0.06437025, 8.924238204956055, 1.6937421560287476, -1.4916447401046753, 12.556342124938965, 35.71945571899414, 4.248937129974365, 
397, 1147109140, 0.6816984, 0.0051042777, -0.7288084, -0.06402943, 9.067828178405762, 1.7824602127075195, -1.6142668724060059, 3.572018623352051, 24.30521011352539, 1.3399441242218018, 
398, 1147125807, 0.6833728, 0.004450907, -0.7271624, -0.06493709, 9.04034423828125, 1.737734317779541, -1.7122020721435547, -7.877621650695801, 14.686643600463867, 1.0657966136932373, 
399, 1147142474, 0.6840837, 0.0025986999, -0.72631747, -0.06697672, 8.846705436706543, 1.4857865571975708, -1.7673873901367188, -18.78579330444336, 5.563892364501953, 1.3495604991912842, 
400, 1147159141, 0.68371403, -9.9382894E-5, -0.7263979, -0.06986669, 8.859305381774902, 1.3375756740570068, -1.7479238510131836, -26.567218780517578, -4.562254905700684, 1.10020911693573, 
401, 1147175808, 0.6824199, -0.003607078, -0.7272277, -0.07368915, 8.916221618652344, 1.3230817317962646, -1.880738615989685, -34.67240905761719, -13.062390327453613, 0.31921255588531494, 
402, 1147192475, 0.68035436, -0.0077552963, -0.7286755, -0.07803852, 8.943085670471191, 1.285033106803894, -1.8381952047348022, -40.02017593383789, -20.10358238220215, 0.6462001800537109, 
403, 1147209142, 0.6775074, -0.012450511, -0.7307095, -0.083021566, 9.001116752624512, 1.262217402458191, -1.9325088262557983, -45.4807014465332, -26.992813110351562, -0.02509428560733795, 
404, 1147225809, 0.67410916, -0.016812392, -0.73313856, -0.08832927, 9.075634956359863, 1.1567198038101196, -1.9722447395324707, -45.38094711303711, -31.359365463256836, -3.5599794387817383, 
405, 1147242476, 0.6699581, -0.02051881, -0.73617536, -0.09370682, 9.431496620178223, 1.0848301649093628, -2.1158883571624756, -42.412620544433594, -37.53963088989258, -7.71638822555542, 
406, 1147259143, 0.6651637, -0.023127627, -0.7398085, -0.09851873, 9.548428535461426, 0.9997599720954895, -2.133704662322998, -34.19964599609375, -42.88882064819336, -11.169609069824219, 
407, 1147275810, 0.6600518, -0.024498647, -0.74379456, -0.10247517, 9.521191596984863, 1.0353902578353882, -1.8472578525543213, -23.998754501342773, -45.38972091674805, -13.828977584838867, 
408, 1147292477, 0.654679, -0.025418095, -0.747919, -0.10661408, 9.385754585266113, 1.6458810567855835, -1.5666077136993408, -22.827545166015625, -46.98671340942383, -17.180233001708984, 
409, 1147309144, 0.64888275, -0.026021965, -0.7521922, -0.11171859, 9.435416221618652, 1.9794604778289795, -1.9280610084533691, -26.333330154418945, -49.42396545410156, -23.48042106628418, 
410, 1147325811, 0.64325607, -0.026483655, -0.75600207, -0.118242346, 9.723420143127441, 1.6971811056137085, -1.6176433563232422, -33.36117935180664, -46.105289459228516, -30.32280921936035, 
411, 1147342478, 0.6385589, -0.027055366, -0.75899947, -0.124218866, 9.510096549987793, 1.4318760633468628, -1.9584264755249023, -31.489856719970703, -37.866180419921875, -26.42576026916504, 
412, 1147359145, 0.635566, -0.027953126, -0.7605846, -0.12956029, 9.66146183013916, 0.5949842929840088, -1.4364246129989624, -30.496204376220703, -23.15968132019043, -20.220911026000977, 
413, 1147375812, 0.63458896, -0.028806169, -0.76064944, -0.13371523, 10.529496192932129, 0.1674085408449173, -0.6995090842247009, -25.06403160095215, -6.166262149810791, -13.205343246459961, 
414, 1147392479, 0.63536334, -0.02796032, -0.75969875, -0.13560739, 11.163138389587402, 0.2748205363750458, -0.35093680024147034, -6.407290935516357, 8.516759872436523, -10.440844535827637, 
415, 1147409146, 0.63553053, -0.024269043, -0.75948215, -0.13674384, 11.012531280517578, 0.6957160830497742, -0.9924018383026123, 10.536863327026367, 4.6204705238342285, -22.744792938232422, 
416, 1147425813, 0.6338841, -0.020105306, -0.76066595, -0.13847095, 10.875686645507812, 0.48489657044410706, -2.2804319858551025, 10.530837059020996, -10.439457893371582, -29.757362365722656, 
417, 1147442480, 0.6321944, -0.017385218, -0.7618095, -0.14026518, 9.732112884521484, 1.7790758609771729, -2.3799617290496826, 3.837707042694092, -11.842482566833496, -22.566801071166992, 
418, 1147459147, 0.63060933, -0.016040832, -0.76269794, -0.1427112, 8.925848960876465, 3.2876267433166504, -1.7997292280197144, -5.791682243347168, -11.418173789978027, -18.066219329833984, 
419, 1147475814, 0.6286481, -0.016730271, -0.76346874, -0.14709637, 9.240381240844727, 3.6812245845794678, -2.4177663326263428, -24.931243896484375, -14.658065795898438, -16.138547897338867, 
420, 1147492481, 0.62709796, -0.018901026, -0.7634898, -0.15321378, 9.434825897216797, 3.0007901191711426, -2.853137254714966, -41.135250091552734, -10.541775703430176, -15.316901206970215, 
421, 1147509148, 0.6261251, -0.019782988, -0.7632652, -0.15812154, 9.513874053955078, 1.7950608730316162, -2.1393356323242188, -29.414077758789062, -5.2312235832214355, -16.209651947021484, 
422, 1147525815, 0.6253606, -0.018468684, -0.76342225, -0.1605291, 9.808206558227539, 1.8313698768615723, -1.4832288026809692, -6.398815631866455, -3.7235267162323, -16.80575180053711, 
423, 1147542482, 0.6246251, -0.016382542, -0.76380134, -0.16181168, 9.710902214050293, 3.210317373275757, -1.6006914377212524, 3.0732133388519287, -3.820932149887085, -16.0264835357666, 
424, 1147559149, 0.6238028, -0.016017755, -0.763936, -0.1643642, 9.415492057800293, 4.221629619598389, -1.810843825340271, -11.267448425292969, -5.000218868255615, -12.49404239654541, 
425, 1147575816, 0.62273824, -0.018356245, -0.7636912, -0.16922218, 9.451637268066406, 4.280539512634277, -1.8159445524215698, -35.419830322265625, -7.444815158843994, -8.38180923461914, 
426, 1147592483, 0.6219858, -0.021669568, -0.7629493, -0.17485046, 9.506743431091309, 3.396089792251587, -1.9686280488967896, -44.1734504699707, -4.714537143707275, -6.101167678833008, 
427, 1147609150, 0.62172914, -0.024154631, -0.76197773, -0.17960893, 9.47326946258545, 1.908744215965271, -2.017336130142212, -36.268402099609375, -0.2625442147254944, -6.0806756019592285, 
428, 1147625817, 0.62141263, -0.025311943, -0.7614105, -0.18292034, 9.480693817138672, 1.6241365671157837, -2.018789052963257, -22.526592254638672, -0.8992124795913696, -7.003486633300781, 
429, 1147642484, 0.6211174, -0.025767343, -0.7609585, -0.18571873, 9.502087593078613, 2.268613338470459, -2.022620916366577, -16.69816780090332, -0.47949594259262085, -8.497087478637695, 
430, 1147659151, 0.6209599, -0.026077995, -0.76030874, -0.18883725, 9.587889671325684, 2.174215316772461, -2.0239386558532715, -17.985687255859375, 1.3342124223709106, -10.41646957397461, 
431, 1147675818, 0.6210005, -0.025668146, -0.75959235, -0.19162224, 9.751962661743164, 1.4301866292953491, -1.7353163957595825, -13.221827507019043, 3.5369958877563477, -12.49903678894043, 
432, 1147692485, 0.62082005, -0.023723677, -0.759441, -0.19305228, 9.616538047790527, 1.4756001234054565, -1.2180147171020508, 1.1086018085479736, 1.753350853919983, -15.142868041992188, 
433, 1147709152, 0.6204012, -0.02094669, -0.7596883, -0.19374579, 9.44303035736084, 2.533452272415161, -0.7270193099975586, 8.995058059692383, -0.2121887058019638, -16.75066566467285, 
434, 1147725819, 0.61995816, -0.018021675, -0.7599467, -0.19444373, 9.612513542175293, 2.9165499210357666, -0.6587914824485779, 9.619304656982422, -0.20121364295482635, -17.58001708984375, 
435, 1147742486, 0.6194464, -0.014934561, -0.76034427, -0.19478199, 9.527920722961426, 2.8133974075317383, -0.4288356304168701, 12.370662689208984, -0.9978976845741272, -17.001644134521484, 
436, 1147759153, 0.6184822, -0.0121118305, -0.7611103, -0.19504969, 9.218485832214355, 3.848952054977417, -0.7322669625282288, 12.066396713256836, -5.311927795410156, -15.96338176727295, 
437, 1147775820, 0.6176049, -0.009929389, -0.7616632, -0.19579329, 9.087661743164062, 4.158109188079834, -1.1893243789672852, 6.5822062492370605, -4.7819719314575195, -14.484760284423828, 
438, 1147792487, 0.616806, -0.008339906, -0.7621056, -0.19666283, 9.23872184753418, 3.628754138946533, -1.2668108940124512, 3.266831398010254, -4.69707727432251, -11.777725219726562, 
439, 1147809154, 0.6157929, -0.0073882146, -0.7626443, -0.19778362, 9.147636413574219, 3.8419370651245117, -1.5091042518615723, -0.6325315237045288, -7.079839706420898, -9.786027908325195, 
440, 1147825821, 0.6147747, -0.007279287, -0.76302433, -0.19948217, 9.215653419494629, 4.016022682189941, -1.7704415321350098, -7.4430670738220215, -7.551947116851807, -7.79676628112793, 
441, 1147842488, 0.61396617, -0.0076679033, -0.76316345, -0.20141686, 9.225545883178711, 3.605360984802246, -1.8054243326187134, -11.102678298950195, -6.100578308105469, -5.867924690246582, 
442, 1147859155, 0.61320645, -0.008023131, -0.76331013, -0.20315352, 9.278512954711914, 2.729640007019043, -2.107938289642334, -9.909455299377441, -5.83721399307251, -5.131557941436768, 
443, 1147875822, 0.61247385, -0.0075246748, -0.7636887, -0.20395888, 9.434379577636719, 2.5539662837982178, -2.382587432861328, -1.100488305091858, -5.522880554199219, -5.667259216308594, 
444, 1147892489, 0.61192113, -0.006165007, -0.764183, -0.20381156, 9.334085464477539, 2.776416063308716, -2.568096399307251, 7.6953959465026855, -3.894566297531128, -5.940701484680176, 
445, 1147909156, 0.61157876, -0.0043672966, -0.76464325, -0.20315838, 9.251428604125977, 2.8329086303710938, -2.358842611312866, 12.150538444519043, -2.0375044345855713, -5.825368881225586, 
446, 1147925823, 0.61117715, -0.0023182512, -0.7652134, -0.20225133, 9.333081245422363, 2.6959052085876465, -2.0466907024383545, 14.68947982788086, -2.4549152851104736, -6.170271873474121, 
447, 1147942490, 0.6107606, 3.1097396E-5, -0.7658272, -0.2011969, 9.355524063110352, 2.99367356300354, -1.722752332687378, 16.784488677978516, -2.294849157333374, -7.160959720611572, 
448, 1147959157, 0.6103868, 0.0031904941, -0.7665061, -0.19971554, 9.291940689086914, 2.195237398147583, -1.6495444774627686, 22.52340316772461, -1.220985770225525, -9.577032089233398, 
449, 1147975824, 0.60975385, 0.007356134, -0.7675647, -0.19746052, 9.4740571975708, 1.640918254852295, -1.23100745677948, 31.3480281829834, -2.780320644378662, -11.997304916381836, 
450, 1147992491, 0.6085079, 0.0117385425, -0.76908463, -0.19516449, 9.178023338317871, 3.1063241958618164, -1.0159401893615723, 33.12881851196289, -7.660153865814209, -13.805103302001953, 
451, 1148009158, 0.60716414, 0.015606725, -0.7704563, -0.19366291, 9.021629333496094, 3.8129472732543945, -1.0619847774505615, 26.589385986328125, -8.32162094116211, -14.55321216583252, 
452, 1148025825, 0.6058483, 0.0188782, -0.7716026, -0.19292745, 9.16154670715332, 3.009993076324463, -0.729543149471283, 19.74366569519043, -8.119437217712402, -14.567987442016602, 
453, 1148042492, 0.60397714, 0.021641891, -0.77302456, -0.19281186, 8.943669319152832, 3.367757558822632, -0.32905736565589905, 14.783341407775879, -12.983976364135742, -15.159972190856934, 
454, 1148059159, 0.6017514, 0.023730468, -0.77452815, -0.19349054, 8.829538345336914, 3.8895161151885986, -0.8020720481872559, 7.92875337600708, -16.244590759277344, -15.326323509216309, 
455, 1148075826, 0.59946436, 0.025273846, -0.77590185, -0.19488521, 8.775321960449219, 3.36301589012146, -1.0398980379104614, 1.7060588598251343, -16.891708374023438, -15.478168487548828, 
456, 1148092493, 0.5968624, 0.026443195, -0.7774291, -0.1966217, 8.886629104614258, 3.492950439453125, -0.9540602564811707, -1.3922197818756104, -19.778528213500977, -15.284500122070312, 
457, 1148109160, 0.59395707, 0.026636833, -0.7789929, -0.19918768, 8.966119766235352, 4.400053977966309, -1.0392917394638062, -9.71790885925293, -23.034120559692383, -13.875360488891602, 
458, 1148125827, 0.59091765, 0.025266573, -0.7802447, -0.20346077, 8.814652442932129, 4.947268486022949, -1.168245792388916, -25.639568328857422, -24.9482421875, -12.698097229003906, 
459, 1148142494, 0.58788294, 0.023052815, -0.78127563, -0.20849645, 8.969014167785645, 4.053703784942627, -1.703163504600525, -33.45621871948242, -25.352602005004883, -11.282865524291992, 
460, 1148159161, 0.58488804, 0.021661688, -0.78235763, -0.21296355, 9.296616554260254, 1.9424089193344116, -2.0538973808288574, -27.00458335876465, -24.083232879638672, -13.332708358764648, 
461, 1148175828, 0.58146393, 0.022114715, -0.78405106, -0.21604295, 9.96657943725586, -0.13976600766181946, -1.598530650138855, -11.167718887329102, -25.947534561157227, -18.238887786865234, 
462, 1148192495, 0.57692134, 0.024282604, -0.7868171, -0.21792425, 9.830660820007324, 1.2763780355453491, -1.0234684944152832, 3.899986505508423, -33.54597854614258, -24.256067276000977, 
463, 1148209162, 0.5712637, 0.027515458, -0.79025257, -0.22000381, 8.87662124633789, 2.3874704837799072, -1.526493787765503, 8.241625785827637, -40.69218444824219, -32.40585708618164, 
464, 1148225829, 0.56543523, 0.03174583, -0.7937093, -0.22203785, 9.05817699432373, 2.5019240379333496, -1.9140876531600952, 12.473404884338379, -40.196529388427734, -37.920875549316406, 
465, 1148242496, 0.559365, 0.037612967, -0.79756343, -0.22268553, 8.390375137329102, 2.2381157875061035, -2.30837345123291, 27.06241798400879, -40.26582336425781, -41.7682991027832, 
466, 1148259163, 0.5528696, 0.044609483, -0.80175394, -0.22256707, 8.393240928649902, 2.1957199573516846, -2.2335751056671143, 36.22819900512695, -41.96437072753906, -45.59846878051758, 
467, 1148275830, 0.54576993, 0.051674213, -0.806156, -0.22266044, 8.455126762390137, 3.5840492248535156, -1.9662466049194336, 35.826332092285156, -46.06450271606445, -47.663909912109375, 
468, 1148292497, 0.5383391, 0.05813966, -0.81041616, -0.2236889, 7.817816257476807, 4.302859306335449, -2.739729881286621, 28.30141258239746, -48.6275520324707, -48.412506103515625, 
469, 1148309164, 0.5312049, 0.06442035, -0.8142087, -0.22524558, 7.2991557121276855, 4.3834757804870605, -2.887369394302368, 23.84234619140625, -45.73655700683594, -49.062950134277344, 
470, 1148325831, 0.5238364, 0.07119714, -0.81812507, -0.22626916, 6.947766304016113, 4.035516262054443, -3.2673654556274414, 28.938514709472656, -46.491512298583984, -50.192222595214844, 
471, 1148342498, 0.51617515, 0.07844242, -0.8221148, -0.22701803, 7.088048934936523, 3.198122262954712, -2.8926920890808105, 32.42905044555664, -47.529563903808594, -52.253360748291016, 
472, 1148359165, 0.50763947, 0.08561259, -0.82652855, -0.22764722, 7.096065521240234, 4.379274368286133, -3.278560161590576, 33.971893310546875, -54.029518127441406, -52.54866027832031, 
473, 1148375832, 0.49883196, 0.092457615, -0.8308389, -0.22874652, 6.5127058029174805, 5.119392395019531, -3.8976340293884277, 30.168256759643555, -55.99532699584961, -52.82413864135742, 
474, 1148392499, 0.49015975, 0.098902814, -0.8347837, -0.2304299, 7.106572151184082, 4.724605560302734, -3.6036853790283203, 24.803943634033203, -54.95604705810547, -52.54661560058594, 
475, 1148409166, 0.48100284, 0.10542588, -0.8388626, -0.23201585, 7.951050758361816, 3.8876757621765137, -3.389460802078247, 26.17201805114746, -57.997310638427734, -53.33915328979492, 
476, 1148425833, 0.47097406, 0.11221484, -0.8431655, -0.23380195, 7.82811164855957, 3.8910534381866455, -3.4786930084228516, 26.888259887695312, -63.49665451049805, -56.77770233154297, 
477, 1148442500, 0.460075, 0.11958054, -0.8477192, -0.23538047, 7.181332111358643, 3.8299152851104736, -3.6221911907196045, 31.03511619567871, -68.2757339477539, -60.66986083984375, 
478, 1148459167, 0.44825292, 0.12742683, -0.8526021, -0.2364347, 7.5770745277404785, 3.331580877304077, -3.630352735519409, 36.904579162597656, -73.49407196044922, -63.050113677978516, 
479, 1148475834, 0.4352909, 0.13568316, -0.85781413, -0.23720668, 7.564758777618408, 4.023615837097168, -3.9639241695404053, 41.353939056396484, -80.28984832763672, -66.17288208007812, 
480, 1148492501, 0.42139825, 0.14442864, -0.86311096, -0.23791525, 6.280488967895508, 4.679651260375977, -4.720130920410156, 44.20027542114258, -85.18768310546875, -70.32339477539062, 
481, 1148509168, 0.40711504, 0.15327752, -0.86825615, -0.2385258, 5.596022605895996, 5.171349048614502, -4.966411113739014, 45.22126388549805, -86.79830932617188, -71.44606018066406, 
482, 1148525835, 0.39249647, 0.16181895, -0.87332755, -0.23887268, 6.378027439117432, 5.521528244018555, -5.0226311683654785, 46.171852111816406, -88.81311798095703, -69.49406433105469, 
483, 1148542502, 0.37720373, 0.169956, -0.87850314, -0.23888199, 6.766092777252197, 6.002772808074951, -5.657487869262695, 48.03566360473633, -93.43537139892578, -67.14813232421875, 
484, 1148559169, 0.36109677, 0.17749481, -0.88383645, -0.23861691, 7.488183975219727, 6.15960168838501, -5.997397422790527, 49.36064529418945, -99.43022155761719, -63.97748947143555, 
485, 1148575836, 0.34439158, 0.18417828, -0.8892302, -0.23820657, 9.634531021118164, 6.285547256469727, -6.384185791015625, 48.9564094543457, -104.45670318603516, -59.336326599121094, 
486, 1148592503, 0.3267551, 0.19052094, -0.8950005, -0.23644698, 10.994492530822754, 6.120935440063477, -7.327614784240723, 58.20242691040039, -109.92847442626953, -55.13417434692383, 
487, 1148609170, 0.30835584, 0.19644761, -0.9011285, -0.23300813, 10.496155738830566, 5.656607151031494, -8.154155731201172, 69.18218994140625, -113.95582580566406, -49.6156120300293, 
488, 1148625837, 0.29018563, 0.20067853, -0.90717113, -0.2292618, 10.458843231201172, 6.050928115844727, -8.558730125427246, 67.03575134277344, -114.70428466796875, -38.24519348144531, 
489, 1148642504, 0.27292344, 0.20349027, -0.913013, -0.22474857, 8.907469749450684, 5.739497661590576, -8.675140380859375, 67.40892791748047, -109.87067413330078, -26.746915817260742, 
490, 1148659171, 0.25760484, 0.20467249, -0.9182631, -0.22032246, 6.791085720062256, 5.84775447845459, -8.78546142578125, 60.1587028503418, -99.2418212890625, -14.532539367675781, 
491, 1148675838, 0.24590252, 0.20410782, -0.9221363, -0.21802938, 4.563364505767822, 7.060954570770264, -9.547872543334961, 36.41474533081055, -79.64059448242188, -3.7519137859344482, 
492, 1148692505, 0.23643404, 0.20053995, -0.92469823, -0.22094361, 2.016373634338379, 7.972975254058838, -7.303066253662109, -6.776322841644287, -75.06703186035156, 7.999386310577393, 
493, 1148709172, 0.22993071, 0.19479015, -0.92703044, -0.22316694, -0.9274377226829529, 8.96039867401123, -8.441899299621582, -10.339566230773926, -58.184059143066406, 27.208322525024414, 
494, 1148725839, 0.22537847, 0.18721469, -0.92929196, -0.22488166, -0.6281878352165222, 10.222387313842773, -9.306755065917969, -12.67307186126709, -47.701934814453125, 42.59865188598633, 
495, 1148742506, 0.22309566, 0.17759678, -0.93065333, -0.22928663, 0.6705484986305237, 9.399720191955566, -8.140812873840332, -37.300289154052734, -38.374855041503906, 53.88301467895508, 
496, 1148759173, 0.22294499, 0.16641599, -0.930681, -0.23755907, 0.9666023254394531, 7.199213981628418, -7.432457447052002, -69.11278533935547, -29.842876434326172, 59.72126770019531, 
497, 1148775840, 0.22472435, 0.15491563, -0.929849, -0.24674131, 0.8715478181838989, 5.140830039978027, -6.559577465057373, -79.02062225341797, -17.714590072631836, 62.56166458129883, 
498, 1148792507, 0.22860815, 0.14458403, -0.92904085, -0.2524224, 1.1820963621139526, 2.6968984603881836, -5.8904709815979, -57.031009674072266, 1.4343417882919312, 64.10833740234375, 
499, 1148809174, 0.23507437, 0.13725653, -0.9291646, -0.25010827, 1.8859539031982422, 1.9189528226852417, -5.7120585441589355, -2.2100038528442383, 29.641767501831055, 62.896568298339844, 
500, 1148825841, 0.24461336, 0.13249713, -0.92977023, -0.24111441, 2.770853042602539, 1.8937978744506836, -6.2288079261779785, 42.513954162597656, 59.21963882446289, 63.02592468261719, 
501, 1148842508, 0.25647366, 0.12894093, -0.9305505, -0.2273141, 2.8642425537109375, 1.864880919456482, -6.159856796264648, 73.41028594970703, 80.1429443359375, 67.42510986328125, 
502, 1148859175, 0.27015215, 0.12531464, -0.930891, -0.21155696, 2.948714256286621, 3.2657904624938965, -6.277897357940674, 83.48019409179688, 94.18138885498047, 73.77568054199219, 
503, 1148875842, 0.28600153, 0.120013855, -0.9299429, -0.19749999, 2.7630765438079834, 5.319316864013672, -6.6638312339782715, 65.7307357788086, 106.5742416381836, 83.3941879272461, 
504, 1148892509, 0.3039445, 0.11162924, -0.92699796, -0.18929185, 2.7019965648651123, 6.220022201538086, -7.007043361663818, 17.834264755249023, 114.88558959960938, 92.83297729492188, 
505, 1148909176, 0.323315, 0.10006967, -0.9219086, -0.18851568, 3.2867987155914307, 5.48346471786499, -6.7496442794799805, -40.04555130004883, 118.64752960205078, 97.78523254394531, 
506, 1148925843, 0.34293652, 0.08689921, -0.91542345, -0.19194597, 4.073117733001709, 4.442914009094238, -6.842166423797607, -72.26824188232422, 118.37445831298828, 98.03759002685547, 
507, 1148942510, 0.36287808, 0.074265614, -0.9081696, -0.19501835, 4.881187915802002, 3.4146642684936523, -6.909293174743652, -69.96117401123047, 123.13368225097656, 95.47924041748047, 
508, 1148959177, 0.38369012, 0.063560285, -0.9005326, -0.19437861, 5.2113213539123535, 2.5511512756347656, -6.40566349029541, -42.94247055053711, 134.01513671875, 93.67633056640625, 
509, 1148975844, 0.40435913, 0.05516028, -0.8930929, -0.18930411, 5.569768905639648, 2.7875242233276367, -6.643721580505371, -9.095497131347656, 137.63626098632812, 90.99246215820312, 
510, 1148992511, 0.42437536, 0.04875923, -0.88568413, -0.18191206, 6.257777214050293, 3.6038432121276855, -6.725957870483398, 10.963683128356934, 137.03558349609375, 84.3228759765625, 
511, 1149009178, 0.44414178, 0.043220744, -0.8778567, -0.1738915, 6.836705207824707, 4.511704921722412, -6.282738208770752, 16.855335235595703, 138.0408172607422, 80.45845794677734, 
512, 1149025845, 0.46385303, 0.037153166, -0.8692219, -0.16707282, 7.161216735839844, 5.393913745880127, -6.088433742523193, 7.031919479370117, 139.194580078125, 79.69281768798828, 
513, 1149042512, 0.48333886, 0.030621264, -0.8597775, -0.1619522, 7.564040660858154, 5.600350379943848, -6.204084873199463, -5.468672752380371, 139.47357177734375, 76.61507415771484, 
514, 1149059179, 0.50252086, 0.023857936, -0.84966475, -0.15803003, 7.831262588500977, 4.648180961608887, -5.823693752288818, -14.003800392150879, 139.40464782714844, 73.55194854736328, 
515, 1149075846, 0.5212713, 0.017139796, -0.8392968, -0.15350343, 8.002549171447754, 3.528869390487671, -5.6938557624816895, -10.527098655700684, 137.92626953125, 74.89048767089844, 
516, 1149092513, 0.53894365, 0.0111319395, -0.8291185, -0.14825094, 8.201931953430176, 2.848069190979004, -5.35505485534668, -3.4755618572235107, 131.8785400390625, 72.28783416748047, 
517, 1149109180, 0.5555429, 0.005862964, -0.81913763, -0.14265814, 8.613624572753906, 2.9293999671936035, -4.563738822937012, 1.4726510047912598, 125.82585906982422, 68.26335906982422, 
518, 1149125847, 0.57119673, 0.0010236119, -0.80937016, -0.13657698, 9.298188209533691, 3.271533250808716, -4.3125786781311035, 6.102229118347168, 120.13972473144531, 66.79733276367188, 
519, 1149142514, 0.58632183, -0.003692469, -0.79952276, -0.13029404, 9.684142112731934, 3.267164707183838, -3.937570095062256, 7.630725860595703, 117.63955688476562, 66.41736602783203, 
520, 1149159181, 0.60118085, -0.008281389, -0.7894173, -0.12382864, 9.633130073547363, 2.7589690685272217, -3.56646466255188, 8.901144027709961, 117.33720397949219, 66.23578643798828, 
521, 1149175848, 0.6155904, -0.01234184, -0.7792595, -0.116837285, 9.507118225097656, 1.891357421875, -3.1886990070343018, 13.86202621459961, 115.54486083984375, 65.17037200927734, 
522, 1149192515, 0.6292503, -0.015452298, -0.76937777, -0.10891895, 9.547215461730957, 1.1651376485824585, -2.809220790863037, 22.99875259399414, 111.05498504638672, 63.37905502319336, 
523, 1149209182, 0.64211047, -0.017897641, -0.7598158, -0.10026918, 9.744564056396484, 1.167935848236084, -2.3770503997802734, 29.89185905456543, 105.87381744384766, 62.385719299316406, 
524, 1149225849, 0.65410435, -0.0204842, -0.750495, -0.092115626, 9.811554908752441, 1.6468822956085205, -1.8975802659988403, 26.72795295715332, 100.25570678710938, 60.300716400146484, 
525, 1149242516, 0.6651067, -0.023858724, -0.7414965, -0.085129134, 9.857804298400879, 1.8695586919784546, -1.540030598640442, 17.219736099243164, 93.36150360107422, 58.44882583618164, 
526, 1149259183, 0.6750654, -0.028351959, -0.732875, -0.07985832, 9.848151206970215, 1.6658916473388672, -1.1618646383285522, 3.4014410972595215, 85.947509765625, 55.64144515991211, 
527, 1149275850, 0.6837631, -0.033789895, -0.7249101, -0.07636601, 9.778114318847656, 1.228499174118042, -0.8563074469566345, -9.83460521697998, 76.37688446044922, 51.33491516113281, 
528, 1149292517, 0.69111097, -0.039859004, -0.7177931, -0.074498564, 9.533611297607422, 0.7865660190582275, -0.4006927013397217, -20.773483276367188, 65.71023559570312, 45.939796447753906, 
529, 1149309184, 0.69713503, -0.045920733, -0.71167505, -0.07357137, 9.36496353149414, 0.5320774912834167, -0.19143913686275482, -25.23333740234375, 54.68849563598633, 40.48506546020508, 
530, 1149325851, 0.70207596, -0.051107094, -0.7065076, -0.072969824, 9.306787490844727, 0.2091606706380844, 0.029035430401563644, -22.494346618652344, 45.37569808959961, 33.79146957397461, 
531, 1149342518, 0.7060364, -0.05478406, -0.7023367, -0.072349824, 9.301363945007324, -0.1467893123626709, 0.260560005903244, -14.966381072998047, 36.54983901977539, 25.70386505126953, 
532, 1149359185, 0.70905024, -0.056593865, -0.69920796, -0.071785256, 9.346704483032227, -0.48047295212745667, 0.3261904716491699, -6.009395122528076, 27.865053176879883, 15.546965599060059, 
533, 1149375852, 0.7111523, -0.05673705, -0.697089, -0.071487844, 9.266119003295898, -0.47817471623420715, 0.39489930868148804, 0.9741547703742981, 19.481624603271484, 5.378917694091797, 
534, 1149392519, 0.71264225, -0.05536852, -0.69571984, -0.07105849, 9.185225486755371, -0.036358628422021866, 0.056470684707164764, 9.128155708312988, 13.56982421875, -1.8243749141693115, 
535, 1149409186, 0.71378136, -0.053165566, -0.6947754, -0.07054648, 9.109936714172363, 0.5995924472808838, -0.2512221038341522, 13.685431480407715, 10.190369606018066, -5.748693466186523, 
536, 1149425853, 0.7148837, -0.050492395, -0.69391114, -0.06985121, 9.152061462402344, 0.8636355996131897, -0.7953310608863831, 16.892433166503906, 9.787741661071777, -7.13967227935791, 
537, 1149442520, 0.71612024, -0.04756625, -0.69294345, -0.06883904, 8.995182037353516, 0.7256945967674255, -0.989405632019043, 19.643644332885742, 10.963203430175781, -6.682858467102051, 
538, 1149459187, 0.7174121, -0.044961043, -0.6918554, -0.06807752, 8.695110321044922, 0.5485445261001587, -0.7353265285491943, 16.8306827545166, 11.765852928161621, -6.317465782165527, 
539, 1149475854, 0.71852183, -0.04268665, -0.6908977, -0.06756185, 8.634384155273438, 0.5506498217582703, -0.5396780967712402, 14.03329086303711, 10.19085693359375, -6.08155632019043, 
540, 1149492521, 0.7196306, -0.040548723, -0.68992305, -0.06703623, 8.566137313842773, 0.32366856932640076, -0.4206423759460449, 13.396635055541992, 10.214560508728027, -5.3780131340026855, 
541, 1149509188, 0.7206881, -0.038808305, -0.688956, -0.06665206, 8.48987865447998, -0.015495842322707176, 0.04029297083616257, 10.74812126159668, 9.7996187210083, -4.220418930053711, 
542, 1149525855, 0.7214114, -0.037695657, -0.6882686, -0.06656681, 8.467350006103516, -0.15488474071025848, 0.12814496457576752, 6.260180950164795, 6.6274542808532715, -2.9601693153381348, 
543, 1149542522, 0.7218765, -0.036806762, -0.6878234, -0.06662398, 8.611331939697266, -0.34127604961395264, 0.009016042575240135, 4.521986484527588, 4.140779495239258, -2.797156810760498, 
544, 1149559189, 0.7221486, -0.035598233, -0.6875958, -0.066681504, 8.339909553527832, -0.715055525302887, 0.1747618019580841, 6.1570634841918945, 2.298868417739868, -4.463634967803955, 
545, 1149575856, 0.7217718, -0.034086548, -0.6880532, -0.06683321, 8.08082389831543, -0.6606140732765198, 0.2822149991989136, 7.3733086585998535, -4.004783630371094, -6.843260765075684, 
546, 1149592523, 0.72085565, -0.033054143, -0.68901235, -0.06735575, 8.068373680114746, 0.005312917288392782, 0.2530316114425659, 3.347043991088867, -9.179128646850586, -6.795353889465332, 
547, 1149609190, 0.71945554, -0.03339886, -0.6903198, -0.06875382, 8.259081840515137, 0.40629610419273376, 0.5355384349822998, -7.574253082275391, -13.636337280273438, -4.9193525314331055, 
548, 1149625857, 0.71754533, -0.034657143, -0.69202447, -0.070922375, 8.69985294342041, 0.15719786286354065, 0.3743610680103302, -15.678945541381836, -18.281251907348633, -4.727646827697754, 
549, 1149642524, 0.7150563, -0.036636584, -0.69412786, -0.07442338, 8.637731552124023, 0.23395206034183502, 0.25919294357299805, -25.518409729003906, -23.038883209228516, -8.250968933105469, 
550, 1149659191, 0.7114894, -0.040166914, -0.696961, -0.080093905, 8.548850059509277, 0.6721962094306946, 0.4424648582935333, -43.39381790161133, -32.01914978027344, -12.253779411315918, 
551, 1149675858, 0.70664436, -0.04492155, -0.7006865, -0.087602705, 8.831249237060547, 0.5945394039154053, 0.7983324527740479, -58.05283737182617, -42.682159423828125, -16.326478958129883, 
552, 1149692525, 0.70100945, -0.04850424, -0.705145, -0.09488781, 9.141531944274902, -0.2362097054719925, 0.5727329850196838, -51.081504821777344, -49.42169189453125, -21.585630416870117, 
553, 1149709192, 0.6947882, -0.04742171, -0.7105645, -0.100592576, 9.778545379638672, -1.3533211946487427, -0.41507503390312195, -20.501256942749023, -54.38827896118164, -37.3005256652832, 
554, 1149725859, 0.6893093, -0.039069094, -0.71577406, -0.10485262, 11.157401084899902, -1.300593614578247, 0.235854834318161, 21.384654998779297, -45.20000457763672, -65.3599624633789, 
555, 1149742526, 0.6810705, -0.030662723, -0.7229691, -0.111886226, 12.310612678527832, 1.9560158252716064, -1.4694969654083252, 8.68072509765625, -67.41571807861328, -81.32128143310547, 
556, 1149759193, 0.6759905, -0.022840189, -0.7271804, -0.11714947, 16.460710525512695, 1.422488808631897, 1.3212594985961914, 13.115351676940918, -38.551536560058594, -67.06229400634766, 
557, 1149775860, 0.6758674, -0.014831952, -0.72724754, -0.11871996, 15.084218978881836, 1.5250598192214966, 3.5711145401000977, 29.883228302001953, 5.036285877227783, -46.19382095336914, 
558, 1149792527, 0.6728514, -0.0038401056, -0.7296992, -0.12163638, 11.314932823181152, 2.1655664443969727, 2.378885269165039, 38.67629623413086, -17.98715591430664, -69.981689453125, 
559, 1149809194, 0.66724926, 0.0038209893, -0.7340633, -0.12615436, 10.876538276672363, 2.331245183944702, -1.9951361417770386, 16.769439697265625, -42.586883544921875, -62.89057922363281, 
560, 1149825861, 0.6635088, 0.009342379, -0.736792, -0.12964025, 9.657934188842773, 2.660856008529663, -3.6656270027160645, 10.69336223602295, -27.503158569335938, -45.78173828125, 
561, 1149842528, 0.6587643, 0.011170345, -0.73992276, -0.1357178, 8.91679859161377, 3.504526138305664, -3.6387054920196533, -18.865982055664062, -37.8500862121582, -39.75563049316406, 
562, 1149859195, 0.6545477, 0.010639129, -0.7422653, -0.14316629, 10.450366973876953, 3.981642484664917, -3.2811689376831055, -37.30622100830078, -33.86954116821289, -33.514137268066406, 
563, 1149875862, 0.6526456, 0.00828588, -0.7425615, -0.15029176, 13.373826026916504, 4.845434188842773, -1.3775513172149658, -46.044578552246094, -14.596671104431152, -20.614473342895508, 
564, 1149892529, 0.65142894, 0.0063036545, -0.7422396, -0.1571026, 16.540191650390625, 1.2614811658859253, -2.524608612060547, -43.44918441772461, -7.925403118133545, -20.406116485595703, 
565, 1149909196, 0.6489956, 0.007019381, -0.74339557, -0.16161305, 13.733733177185059, -0.8564824461936951, -3.620182752609253, -17.980836868286133, -17.733043670654297, -25.152320861816406, 
566, 1149925863, 0.6461116, 0.009200987, -0.7454432, -0.16361462, 9.142468452453613, 3.521974802017212, -2.4997177124023438, 2.3851075172424316, -22.243579864501953, -21.954294204711914, 
567, 1149942530, 0.6441812, 0.010793288, -0.74679965, -0.16493788, 7.760277271270752, 6.580706596374512, -1.1425776481628418, 2.404146194458008, -14.890811920166016, -14.880745887756348, 
568, 1149959197, 0.64283407, 0.012143613, -0.74775004, -0.1657918, 8.689270973205566, 5.166497230529785, -1.0355777740478516, 3.2421417236328125, -10.333927154541016, -10.879990577697754, 
569, 1149975864, 0.64185905, 0.014100332, -0.7484918, -0.16606674, 9.939732551574707, 2.5628507137298584, -1.480013370513916, 8.633772850036621, -6.760900974273682, -11.004390716552734, 
570, 1149992531, 0.6410055, 0.016952356, -0.74940044, -0.16499573, 9.619410514831543, 1.942154049873352, -1.337112307548523, 19.68863868713379, -5.716136932373047, -9.520232200622559, 
571, 1150009198, 0.6398942, 0.019435193, -0.7505539, -0.16378807, 8.998855590820312, 3.429325819015503, -1.5851000547409058, 19.072446823120117, -8.525483131408691, -7.289732933044434, 
572, 1150025865, 0.6388428, 0.02111072, -0.75139844, -0.16381244, 9.157519340515137, 4.199204444885254, -2.0614001750946045, 8.807515144348145, -7.927712917327881, -8.510351181030273, 
573, 1150042532, 0.6384292, 0.022571417, -0.75165755, -0.16404198, 9.260143280029297, 3.0218069553375244, -1.6556365489959717, 6.050253391265869, -2.3239946365356445, -7.652782917022705, 
574, 1150059199, 0.6379237, 0.024570126, -0.75211644, -0.16361666, 8.865771293640137, 2.5624337196350098, -1.3403170108795166, 12.036779403686523, -2.96579909324646, -7.629734516143799, 
575, 1150075866, 0.6372537, 0.02690187, -0.7527531, -0.16293277, 9.142495155334473, 2.195150136947632, -0.9178826212882996, 15.060881614685059, -4.1761555671691895, -8.374798774719238, 
576, 1150092533, 0.6366615, 0.02878509, -0.75328386, -0.16247195, 9.994029998779297, 2.210155487060547, -0.29776594042778015, 11.809492111206055, -3.858107089996338, -6.9704108238220215, 
577, 1150109200, 0.6355502, 0.03043711, -0.75414556, -0.1625244, 9.886401176452637, 2.3276619911193848, -0.3881693482398987, 8.614127159118652, -8.367688179016113, -8.542865753173828, 
578, 1150125867, 0.63394827, 0.031909615, -0.7552887, -0.16318844, 9.539799690246582, 2.621696949005127, -0.6272985339164734, 5.077805995941162, -12.481003761291504, -10.781267166137695, 
579, 1150142534, 0.6321495, 0.033049606, -0.7565756, -0.16397643, 8.99954605102539, 4.000401973724365, -1.0499087572097778, 3.1913390159606934, -14.538641929626465, -9.787711143493652, 
580, 1150159201, 0.6306067, 0.03335931, -0.7575905, -0.16516449, 8.831579208374023, 4.647833347320557, -1.5110716819763184, -2.860146999359131, -13.056981086730957, -6.969785213470459, 
581, 1150175868, 0.62944853, 0.032068454, -0.7581096, -0.16743977, 9.15217113494873, 4.616226673126221, -1.759202003479004, -16.11079216003418, -10.970061302185059, -3.00527024269104, 
582, 1150192535, 0.62833554, 0.02932947, -0.7583698, -0.17090817, 9.144885063171387, 4.428205966949463, -1.4397982358932495, -28.903226852416992, -11.543068885803223, -0.6083165407180786, 
583, 1150209202, 0.62750506, 0.025097037, -0.7581176, -0.17568508, 8.930435180664062, 4.583277225494385, -1.353770136833191, -42.834136962890625, -9.877900123596191, 1.7701631784439087, 
584, 1150225869, 0.62681913, 0.020580506, -0.75763124, -0.18074645, 9.541133880615234, 1.9324067831039429, -1.7350341081619263, -45.84608459472656, -8.510948181152344, 2.1749379634857178, 
585, 1150242536, 0.6257252, 0.017289987, -0.75758404, -0.18502857, 9.802734375, 1.36250901222229, -1.0591955184936523, -35.901702880859375, -10.896221160888672, -1.3096606731414795, 
586, 1150259203, 0.6240285, 0.014876723, -0.75809103, -0.18885227, 9.115593910217285, 2.839855670928955, -0.9471016526222229, -28.963485717773438, -15.257336616516113, -4.625991344451904, 
587, 1150275870, 0.6225845, 0.012382996, -0.75825685, -0.19308469, 9.363105773925781, 2.4001944065093994, -0.8036189079284668, -31.90452766418457, -12.628996849060059, -5.668728828430176, 
588, 1150292537, 0.6208772, 0.010229214, -0.7586709, -0.19704159, 9.503885269165039, 1.8542653322219849, -0.6710854172706604, -28.659835815429688, -14.59853744506836, -6.598330020904541, 
589, 1150309204, 0.61854595, 0.009022655, -0.75967187, -0.20054457, 9.40932559967041, 2.123537302017212, -1.1609597206115723, -21.40839385986328, -19.052644729614258, -10.418614387512207, 
590, 1150325871, 0.61608315, 0.0084735695, -0.7608728, -0.20357385, 9.455984115600586, 2.162473201751709, -2.023285150527954, -15.855607986450195, -19.660768508911133, -12.017829895019531, 
591, 1150342538, 0.6138108, 0.008786268, -0.76213783, -0.20568196, 9.394393920898438, 2.0458405017852783, -2.4107537269592285, -7.308276653289795, -17.6729736328125, -12.366089820861816, 
592, 1150359205, 0.6113855, 0.009959664, -0.7636391, -0.20727739, 9.47929859161377, 2.497605562210083, -2.331552267074585, -0.6508839726448059, -18.21500587463379, -14.925867080688477, 
593, 1150375872, 0.60898554, 0.011749525, -0.76524425, -0.20832634, 9.519638061523438, 2.7256834506988525, -2.1121749877929688, 4.953474521636963, -17.597381591796875, -15.831254959106445, 
594, 1150392539, 0.60649294, 0.013710074, -0.7669068, -0.20936188, 9.230294227600098, 3.2910501956939697, -1.6185411214828491, 5.82474422454834, -18.07675552368164, -16.809268951416016, 
595, 1150409206, 0.6040367, 0.016244283, -0.76859546, -0.21008882, 9.334310531616211, 2.6998634338378906, -1.29319429397583, 9.878799438476562, -17.140357971191406, -18.49296760559082, 
596, 1150425873, 0.6012983, 0.019714355, -0.770731, -0.20982285, 9.310644149780273, 2.5762884616851807, -1.7020435333251953, 19.69297218322754, -19.028888702392578, -19.682056427001953, 
597, 1150442540, 0.59833753, 0.023753123, -0.7731105, -0.20911281, 8.61320972442627, 3.310345411300659, -2.169760227203369, 24.776744842529297, -20.33761215209961, -21.156301498413086, 
598, 1150459207, 0.5954225, 0.02743728, -0.77529633, -0.20888974, 8.919252395629883, 3.988687753677368, -1.8108816146850586, 20.441360473632812, -19.883392333984375, -21.240449905395508, 
599, 1150475874, 0.5925601, 0.030649656, -0.77727824, -0.2092167, 9.094914436340332, 3.512044906616211, -1.381658673286438, 15.277652740478516, -19.551706314086914, -20.936962127685547, 
600, 1150492541, 0.58932114, 0.033226773, -0.77935266, -0.21025254, 8.886186599731445, 3.7172610759735107, -1.2905359268188477, 9.11667537689209, -23.009674072265625, -20.95441246032715, 
601, 1150509208, 0.5858416, 0.035430644, -0.78152597, -0.2115461, 8.315958976745605, 4.4221978187561035, -1.9456850290298462, 6.423900604248047, -25.306055068969727, -20.32230567932129, 
602, 1150525875, 0.5825235, 0.03721026, -0.783438, -0.21332307, 8.492108345031738, 4.094674110412598, -1.7913066148757935, 1.7036795616149902, -24.12084197998047, -19.8111572265625, 
603, 1150542542, 0.57898676, 0.038752116, -0.7854321, -0.2153349, 8.830292701721191, 3.9205379486083984, -1.267950415611267, -0.3363088071346283, -26.040632247924805, -19.76688003540039, 
604, 1150559209, 0.5749576, 0.039507307, -0.78753257, -0.21830149, 8.86555004119873, 4.079965114593506, -0.8505882024765015, -8.331686973571777, -30.551671981811523, -20.018795013427734, 
605, 1150575876, 0.5706162, 0.03882712, -0.78944397, -0.22286361, 8.523322105407715, 4.932140350341797, -1.1776145696640015, -22.83365821838379, -34.09565734863281, -19.07300567626953, 
606, 1150592543, 0.5662449, 0.037584934, -0.79119587, -0.22795446, 8.00853443145752, 4.504488468170166, -2.530308246612549, -28.13823890686035, -34.647281646728516, -18.176610946655273, 
607, 1150609210, 0.5622079, 0.03667686, -0.7926625, -0.23294483, 8.128575325012207, 2.960568904876709, -3.2689573764801025, -26.819080352783203, -31.164995193481445, -19.146448135375977, 
608, 1150625877, 0.5581272, 0.03712842, -0.79448235, -0.23645994, 8.560654640197754, 2.974414587020874, -3.3220107555389404, -12.95645809173584, -30.21404266357422, -20.842138290405273, 
609, 1150642544, 0.55392134, 0.038781475, -0.79658175, -0.23900796, 8.700817108154297, 3.144083261489868, -3.6219589710235596, -2.581516742706299, -29.763744354248047, -23.836246490478516, 
610, 1150659211, 0.54981285, 0.04130235, -0.79862386, -0.24124706, 8.869441032409668, 3.234635353088379, -3.109553575515747, 2.2892816066741943, -27.495174407958984, -27.27796173095703, 
611, 1150675878, 0.54545116, 0.044688653, -0.80091715, -0.2429357, 8.712061882019043, 2.9807326793670654, -2.877960205078125, 9.066895484924316, -28.24264907836914, -30.309083938598633, 
612, 1150692545, 0.5406624, 0.048912287, -0.80356675, -0.24407469, 8.477691650390625, 3.4886066913604736, -2.821791172027588, 15.956809043884277, -30.363548278808594, -33.474578857421875, 
613, 1150709212, 0.5355313, 0.05433036, -0.80653286, -0.2444576, 8.374373435974121, 3.403815269470215, -3.2354848384857178, 25.219297409057617, -31.17341423034668, -37.741268157958984, 
614, 1150725879, 0.5302505, 0.06134712, -0.809746, -0.24368502, 8.59245777130127, 2.0543394088745117, -3.201478958129883, 37.97976303100586, -29.79175567626953, -42.51924133300781, 
615, 1150742546, 0.52427745, 0.069940396, -0.8135924, -0.2414729, 8.198741912841797, 2.353083610534668, -3.3211987018585205, 53.088138580322266, -32.70658493041992, -46.96458053588867, 
616, 1150759213, 0.51775587, 0.079110265, -0.8175912, -0.23919724, 7.778104782104492, 3.6385297775268555, -2.8384437561035156, 56.032745361328125, -35.33626174926758, -50.81772232055664, 
617, 1150775880, 0.51089686, 0.0873005, -0.82136846, -0.23815374, 7.414842128753662, 5.9715375900268555, -2.5607235431671143, 45.43118667602539, -38.732303619384766, -50.37781524658203, 
618, 1150792547, 0.5039401, 0.09453338, -0.8248524, -0.23817319, 6.970340251922607, 6.248559951782227, -2.8264403343200684, 35.65201187133789, -40.46617126464844, -49.028255462646484, 
619, 1150809214, 0.49719828, 0.10083415, -0.82792956, -0.23907983, 6.929244041442871, 5.539304256439209, -2.7804832458496094, 26.601240158081055, -39.93950271606445, -46.71609115600586, 
620, 1150825881, 0.4900281, 0.10681826, -0.8312776, -0.23966666, 7.007037162780762, 4.975412845611572, -3.033825635910034, 28.085430145263672, -43.60979080200195, -44.326534271240234, 
621, 1150842548, 0.48229584, 0.11259114, -0.8347547, -0.24062173, 7.443009376525879, 4.138524532318115, -2.959183931350708, 25.897794723510742, -47.880760192871094, -45.18755340576172, 
622, 1150859215, 0.47372586, 0.11816009, -0.8385045, -0.24193501, 7.837770938873291, 3.951364755630493, -2.9544475078582764, 24.270532608032227, -54.21294403076172, -46.38861083984375, 
623, 1150875882, 0.46422198, 0.12371426, -0.8424538, -0.24385326, 7.826566696166992, 4.40107536315918, -2.728074073791504, 21.82592010498047, -60.775733947753906, -49.6751594543457, 
624, 1150892549, 0.45382708, 0.12956135, -0.8465558, -0.24616683, 7.485506057739258, 4.691337585449219, -3.5051748752593994, 21.48999786376953, -66.28460693359375, -54.00612258911133, 
625, 1150909216, 0.4428109, 0.13614151, -0.85082036, -0.24796927, 6.871592044830322, 4.6488494873046875, -3.7898807525634766, 27.586261749267578, -68.71858215332031, -57.592567443847656, 
626, 1150925883, 0.43121392, 0.14280878, -0.85523826, -0.24945529, 6.471199035644531, 4.761619567871094, -3.8245644569396973, 30.50920867919922, -72.14474487304688, -57.990943908691406, 
627, 1150942550, 0.41889355, 0.14924751, -0.85990727, -0.25062585, 6.571523666381836, 5.045860767364502, -4.228948593139648, 32.8308219909668, -77.23015594482422, -56.708858489990234, 
628, 1150959217, 0.4058957, 0.15552172, -0.8645116, -0.25235206, 6.696940898895264, 5.011237144470215, -5.166895389556885, 29.65785026550293, -81.90943145751953, -58.57369613647461, 
629, 1150975884, 0.39237753, 0.16253647, -0.86897796, -0.2539668, 6.354163646697998, 4.358047962188721, -5.96140193939209, 32.70159149169922, -83.21430969238281, -63.720733642578125, 
630, 1150992551, 0.37800074, 0.17029783, -0.87390435, -0.2537822, 7.053373336791992, 4.1666364669799805, -6.125742435455322, 47.22216033935547, -86.27108001708984, -64.32215881347656, 
631, 1151009218, 0.36282626, 0.1782309, -0.8790941, -0.2525559, 8.123351097106934, 4.876652240753174, -6.165488243103027, 55.31011962890625, -90.2331314086914, -63.744293212890625, 
632, 1151025885, 0.34643167, 0.18618914, -0.8844647, -0.25107944, 9.148423194885254, 5.608788013458252, -6.567844390869141, 58.68958282470703, -97.7244644165039, -65.1883544921875, 
633, 1151042552, 0.32938907, 0.19388811, -0.8899893, -0.24865544, 9.864080429077148, 5.774596691131592, -7.194284439086914, 64.92640686035156, -101.28868103027344, -62.29539108276367, 
634, 1151059219, 0.31199217, 0.20086011, -0.8955064, -0.24573244, 10.136096954345703, 5.645472049713135, -7.225987911224365, 66.78905487060547, -104.04694366455078, -57.35578918457031, 
635, 1151075886, 0.2947473, 0.2066963, -0.9009008, -0.24244285, 11.184633255004883, 5.587508678436279, -7.377215385437012, 66.18792724609375, -104.29385375976562, -49.514705657958984, 
636, 1151092553, 0.27799052, 0.21206278, -0.9061307, -0.23807116, 9.730533599853516, 5.8997297286987305, -7.590888500213623, 70.96712493896484, -100.22807312011719, -43.862823486328125, 
