sep=,
DeviceTag:,L Upper Leg - 6,,,,,,,,,,,,,,,,,
FirmwareVersion:,3.0.0,,,,,,,,,,,,,,,,,
AppVersion:,2023.6.1,,,,,,,,,,,,,,,,,
StartTime:,2024-05-25 15:19:41.000 +0200,,,,,,,,,,,,,,,,,
 2024,,,,,,,,,,,,,,,,,,,

PacketCounter,SampleTimeFine,Quat_W,Quat_X,Quat_Y,Quat_Z,Acc_X,Acc_Y,Acc_Z,Gyr_X,Gyr_Y,Gyr_Z,
0, 1213436390, 0.2900678, 0.6978939, -0.25653043, 0.60249245, 0.0, 0.0, 0.0, 0.0, 0.0, 0.0, 
1, 1213453057, 0.28830695, 0.69855744, -0.25845075, 0.6017475, 9.764594078063965, 0.45765793323516846, -1.3944337368011475, 0.5691974759101868, -1.3930492401123047, 4.093620300292969, 
2, 1213469724, 0.28444046, 0.69927555, -0.26376683, 0.6004453, 9.662368774414062, 0.0740402489900589, -1.6874239444732666, -7.0799784660339355, -2.540395498275757, 5.1824421882629395, 
3, 1213486391, 0.2786841, 0.7003918, -0.2713236, 0.598473, 9.630850791931152, -0.2866317629814148, -1.7155004739761353, -11.781773567199707, -2.7791590690612793, 5.9063496589660645, 
4, 1213503058, 0.27282944, 0.7008506, -0.27919924, 0.5970094, 9.671439170837402, -0.4041697084903717, -1.5491703748703003, -11.056455612182617, -2.7867653369903564, 5.726637363433838, 
5, 1213519725, 0.26710927, 0.7009243, -0.28491715, 0.5968083, 9.841225624084473, -0.29605355858802795, -1.3836703300476074, -6.265085697174072, -2.888293743133545, 5.097421646118164, 
6, 1213536392, 0.26257777, 0.7005611, -0.28875172, 0.59740245, 9.890591621398926, -0.24271389842033386, -1.1556941270828247, -1.7806334495544434, -1.9208502769470215, 4.3233795166015625, 
7, 1213553059, 0.25914162, 0.69989634, -0.29113814, 0.5985227, 9.867252349853516, -0.16574715077877045, -1.051743507385254, 0.9881445169448853, -1.6507772207260132, 3.4488723278045654, 
8, 1213569726, 0.25665355, 0.6991722, -0.29264057, 0.5997074, 9.822892189025879, 0.022528015077114105, -1.1102921962738037, 1.7141878604888916, -2.3980536460876465, 2.607123613357544, 
9, 1213586393, 0.25468215, 0.6987802, -0.29321936, 0.60072106, 9.802332878112793, 0.10014357417821884, -1.2313907146453857, 0.6007907390594482, -3.5261266231536865, 1.9076660871505737, 
10, 1213603060, 0.25342292, 0.69855994, -0.2935485, 0.6013486, 9.808865547180176, -0.0076123489998281, -1.3886518478393555, -2.086590051651001, -4.015022277832031, 1.3188174962997437, 
11, 1213619727, 0.2524473, 0.69854385, -0.2937068, 0.6017003, 9.790144920349121, -0.14847248792648315, -1.4728235006332397, -2.7946019172668457, -4.2280683517456055, 0.7940130233764648, 
12, 1213636394, 0.25152463, 0.6986645, -0.29377064, 0.60191536, 9.78347396850586, -0.3184681534767151, -1.5710090398788452, -2.0585825443267822, -4.082076072692871, 0.5339672565460205, 
13, 1213653061, 0.25082415, 0.6987402, -0.29411724, 0.6019508, 9.825349807739258, -0.43169692158699036, -1.4411325454711914, -2.3461999893188477, -3.738365411758423, 0.5684289932250977, 
14, 1213669728, 0.2501367, 0.6987422, -0.29463714, 0.60198015, 9.80770492553711, -0.43405240774154663, -1.4100868701934814, 0.5354014039039612, -3.474477767944336, 0.8061148524284363, 
15, 1213686395, 0.24922492, 0.69881856, -0.2949287, 0.6021269, 9.817144393920898, -0.36786144971847534, -1.2728089094161987, 2.8756723403930664, -3.171402931213379, 0.7478331923484802, 
16, 1213703062, 0.24822477, 0.6989257, -0.29509285, 0.60233516, 9.850471496582031, -0.302459716796875, -1.2289408445358276, 4.113560199737549, -3.2033803462982178, 0.827335000038147, 
17, 1213719729, 0.24716094, 0.69905126, -0.29503658, 0.6026543, 9.830587387084961, -0.22811244428157806, -1.2202050685882568, 5.784955978393555, -2.7533655166625977, 0.5889833569526672, 
18, 1213736396, 0.24628958, 0.69917095, -0.29506582, 0.60285795, 9.785346031188965, -0.14481960237026215, -1.269070029258728, 4.885436534881592, -3.2155978679656982, 0.4371511936187744, 
19, 1213753063, 0.24533209, 0.69935006, -0.29489645, 0.60312325, 9.778103828430176, -0.10797876119613647, -1.3565266132354736, 6.024536609649658, -3.022580623626709, 0.43443629145622253, 
20, 1213769730, 0.24441046, 0.6995803, -0.29472515, 0.6033143, 9.83517074584961, -0.07385584712028503, -1.4747337102890015, 5.586111545562744, -3.3878180980682373, 0.5902511477470398, 
21, 1213786397, 0.24361779, 0.6997365, -0.29464394, 0.6034934, 9.83047103881836, -0.13589341938495636, -1.4665148258209229, 5.118372440338135, -2.7979443073272705, 0.9719188809394836, 
22, 1213803064, 0.24309224, 0.699803, -0.29468304, 0.6036092, 9.717707633972168, -0.1567065268754959, -1.3496824502944946, 4.080840110778809, -2.2254366874694824, 0.6591236591339111, 
23, 1213819731, 0.24231113, 0.70007914, -0.2945438, 0.60367113, 9.775422096252441, -0.12492766231298447, -1.3753180503845215, 4.466732978820801, -3.50311279296875, 0.854548454284668, 
24, 1213836398, 0.24143946, 0.7003285, -0.29428133, 0.6038588, 9.818279266357422, -0.13182230293750763, -1.419674038887024, 5.551226615905762, -2.7096829414367676, 1.1372488737106323, 
25, 1213853065, 0.24068706, 0.70056695, -0.2940909, 0.6039754, 9.765454292297363, -0.10362031310796738, -1.3809653520584106, 4.50070858001709, -2.8063197135925293, 1.0801068544387817, 
26, 1213869732, 0.23983064, 0.7008706, -0.29376486, 0.6041225, 9.819294929504395, -0.09350832551717758, -1.3544670343399048, 3.7621660232543945, -2.8383610248565674, 1.2657346725463867, 
27, 1213886399, 0.23933478, 0.7010018, -0.29377508, 0.6041621, 9.77209186553955, -0.0830974355340004, -1.4317517280578613, 3.8372507095336914, -2.5276153087615967, 1.1374154090881348, 
28, 1213903066, 0.23890145, 0.70112854, -0.29391435, 0.60411876, 9.841632843017578, -0.06575965136289597, -1.4495172500610352, 3.9194862842559814, -2.948995351791382, 1.3429763317108154, 
29, 1213919733, 0.23825885, 0.7013141, -0.2937763, 0.60422415, 9.82056713104248, -0.11955003440380096, -1.4484148025512695, 3.9174439907073975, -2.330986499786377, 1.5405336618423462, 
30, 1213936400, 0.23773709, 0.7014699, -0.29370493, 0.60428345, 9.736159324645996, -0.11622514575719833, -1.3854047060012817, 2.80724835395813, -2.241342067718506, 1.4446141719818115, 
31, 1213953067, 0.23741926, 0.7015931, -0.29389948, 0.6041709, 9.768373489379883, -0.028130799531936646, -1.3776249885559082, 1.8035244941711426, -2.970829725265503, 1.5042786598205566, 
32, 1213969734, 0.23692435, 0.7018334, -0.29388532, 0.6040929, 9.811403274536133, -0.010142119601368904, -1.4266929626464844, 0.6235219836235046, -3.228532314300537, 1.6673548221588135, 
33, 1213986401, 0.2367887, 0.7019196, -0.29422304, 0.60388154, 9.807785034179688, -0.046505529433488846, -1.325740933418274, -0.8043668270111084, -3.1026711463928223, 1.7068367004394531, 
34, 1214003068, 0.23695228, 0.70191306, -0.29484156, 0.60352314, 9.858860969543457, -0.11064323782920837, -1.3518365621566772, -2.8056538105010986, -3.3271541595458984, 1.6702107191085815, 
35, 1214019735, 0.2370269, 0.70192033, -0.29537168, 0.6032261, 9.893512725830078, -0.19827836751937866, -1.3865119218826294, -3.274097204208374, -3.1034908294677734, 1.9485692977905273, 
36, 1214036402, 0.23709002, 0.7018784, -0.2958745, 0.60300386, 9.817913055419922, -0.27351951599121094, -1.441102385520935, -3.123084783554077, -2.515334129333496, 2.0956506729125977, 
37, 1214053069, 0.23705946, 0.7018541, -0.2963086, 0.6028308, 9.77122974395752, -0.259528249502182, -1.4214340448379517, -2.0025546550750732, -2.410923480987549, 2.1225948333740234, 
38, 1214069736, 0.23699151, 0.7018882, -0.2966731, 0.6026386, 9.779086112976074, -0.22104519605636597, -1.404835820198059, -1.2851685285568237, -2.6948788166046143, 1.7401268482208252, 
39, 1214086403, 0.23675747, 0.702014, -0.29691604, 0.6024642, 9.793697357177734, -0.1811358481645584, -1.522601842880249, -0.11369478702545166, -3.11332631111145, 1.7308486700057983, 
40, 1214103070, 0.23640078, 0.7021181, -0.29703626, 0.6024238, 9.803074836730957, -0.14391674101352692, -1.5432113409042358, 1.5259405374526978, -2.390369176864624, 1.871532917022705, 
41, 1214119737, 0.23602328, 0.70219886, -0.29700738, 0.6024918, 9.765022277832031, -0.15902778506278992, -1.4989042282104492, 1.8742989301681519, -1.5122441053390503, 1.5771404504776, 
42, 1214136404, 0.23556696, 0.7023101, -0.29695624, 0.6025662, 9.763704299926758, -0.0926346629858017, -1.4074410200119019, 2.7756547927856445, -1.7149239778518677, 1.7008050680160522, 
43, 1214153071, 0.23517242, 0.70245093, -0.29695773, 0.6025554, 9.751689910888672, -0.0038453559391200542, -1.3260856866836548, 1.9769867658615112, -2.203793525695801, 1.562496304512024, 
44, 1214169738, 0.23494367, 0.70262927, -0.29707712, 0.6023778, 9.776363372802734, -0.016098108142614365, -1.3262050151824951, -0.20209699869155884, -3.0208256244659424, 1.2558610439300537, 
45, 1214186405, 0.23480117, 0.70278245, -0.2973475, 0.6021211, 9.850722312927246, -0.013741791248321533, -1.4563493728637695, 0.30342724919319153, -3.4368271827697754, 1.3071632385253906, 
46, 1214203072, 0.23467462, 0.70293033, -0.29749626, 0.6019245, 9.819049835205078, -0.052338819950819016, -1.4430431127548218, 0.019843438640236855, -2.8640377521514893, 0.9433605670928955, 
47, 1214219739, 0.23477826, 0.7030563, -0.29780763, 0.60158294, 9.770230293273926, -0.09631083905696869, -1.4174176454544067, -1.4430962800979614, -3.2781822681427, 0.5074451565742493, 
48, 1214236406, 0.23466519, 0.7032997, -0.29782942, 0.60133135, 9.79564380645752, -0.14884158968925476, -1.5281133651733398, 0.01716691255569458, -3.2729315757751465, 0.11905424296855927, 
49, 1214253073, 0.23425198, 0.70363957, -0.2975839, 0.6012166, 9.838037490844727, -0.2296128123998642, -1.5812764167785645, 1.722319483757019, -3.1356730461120605, 0.3127630650997162, 
50, 1214269740, 0.23390661, 0.70388526, -0.2972972, 0.6012053, 9.792277336120605, -0.3334411680698395, -1.441124677658081, 3.395597457885742, -2.063077449798584, -0.12078950554132462, 
51, 1214286407, 0.23349565, 0.704213, -0.29686975, 0.6011923, 9.732840538024902, -0.20762456953525543, -1.3919572830200195, 4.124586582183838, -2.3116745948791504, -0.6857545375823975, 
52, 1214303074, 0.23306635, 0.7046002, -0.29647717, 0.60109913, 9.794682502746582, -0.07757047563791275, -1.4696846008300781, 4.19755744934082, -3.053495168685913, -0.7299620509147644, 
53, 1214319741, 0.23258038, 0.7050023, -0.29600418, 0.60104877, 9.777073860168457, -0.034799765795469284, -1.4799431562423706, 4.563088417053223, -2.881659507751465, -0.7680224776268005, 
54, 1214336408, 0.23239383, 0.7053517, -0.29577863, 0.600822, 9.784568786621094, 0.03346681594848633, -1.3879759311676025, 2.164849281311035, -3.315288543701172, -1.0449533462524414, 
55, 1214353075, 0.2324066, 0.7056509, -0.29574695, 0.6004813, 9.789175033569336, 0.03193972632288933, -1.4045029878616333, -0.05837134271860123, -3.5751230716705322, -0.9484127759933472, 
56, 1214369742, 0.2324981, 0.7059319, -0.29574484, 0.6001166, 9.81495475769043, 0.033160701394081116, -1.5421674251556396, -0.677430272102356, -3.5140621662139893, -1.095992922782898, 
57, 1214386409, 0.2326398, 0.70616585, -0.29580602, 0.5997562, 9.848331451416016, -0.0874241441488266, -1.5214205980300903, -0.9991898536682129, -3.2939469814300537, -0.9090843200683594, 
58, 1214403076, 0.23279902, 0.70635986, -0.2958159, 0.599461, 9.770965576171875, -0.13394899666309357, -1.4237614870071411, -1.1033439636230469, -2.6835579872131348, -0.9888935685157776, 
59, 1214419743, 0.2329335, 0.70660055, -0.29581842, 0.59912395, 9.761140823364258, -0.13510826230049133, -1.3995260000228882, -1.0312696695327759, -3.1273744106292725, -1.0758870840072632, 
60, 1214436410, 0.23306264, 0.70681757, -0.29591268, 0.5987708, 9.77365493774414, -0.16260191798210144, -1.355302333831787, -1.1882243156433105, -3.286391019821167, -0.6373976469039917, 
61, 1214453077, 0.23309246, 0.70702237, -0.29592016, 0.5985137, 9.767695426940918, -0.17925268411636353, -1.3771907091140747, -0.2620179355144501, -2.8504247665405273, -0.4648064970970154, 
62, 1214469744, 0.23297577, 0.7072417, -0.29586032, 0.59832954, 9.797107696533203, -0.1398845762014389, -1.343586802482605, 0.7693223357200623, -2.76029372215271, -0.08978532254695892, 
63, 1214486411, 0.23285733, 0.7074048, -0.2959302, 0.59814817, 9.841893196105957, -0.09700217097997665, -1.2640258073806763, 0.2078022062778473, -2.750547409057617, 0.653347909450531, 
64, 1214503078, 0.23271216, 0.70752835, -0.29605883, 0.5979948, 9.835820198059082, -0.07784507423639297, -1.2030032873153687, 0.11435429751873016, -2.633971691131592, 1.1711087226867676, 
65, 1214519745, 0.23258218, 0.70765734, -0.29631385, 0.5977665, 9.845383644104004, -0.104008749127388, -1.2949615716934204, -0.8742767572402954, -3.226163148880005, 1.6430100202560425, 
66, 1214536412, 0.23236108, 0.707771, -0.2965581, 0.59759676, 9.867542266845703, -0.15384483337402344, -1.3933480978012085, -0.08167890459299088, -3.0799148082733154, 2.0524418354034424, 
67, 1214553079, 0.23218603, 0.7078697, -0.2967181, 0.5974687, 9.75484848022461, -0.15798251330852509, -1.3937182426452637, 0.14247706532478333, -2.602020263671875, 1.538586974143982, 
68, 1214569746, 0.23201911, 0.7080067, -0.29697835, 0.5972417, 9.781086921691895, -0.175167053937912, -1.413106083869934, -0.36820822954177856, -3.397819757461548, 1.7375210523605347, 
69, 1214586413, 0.23167987, 0.70814025, -0.29705375, 0.5971777, 9.791406631469727, -0.2209572046995163, -1.4555963277816772, 1.5916693210601807, -2.6594691276550293, 1.8001952171325684, 
70, 1214603080, 0.23137434, 0.7082991, -0.29704487, 0.5971122, 9.726361274719238, -0.2959662675857544, -1.3900301456451416, 1.7227165699005127, -2.5718352794647217, 1.2034447193145752, 
71, 1214619747, 0.23101664, 0.70853764, -0.29705805, 0.59696084, 9.76755142211914, -0.26065897941589355, -1.3485496044158936, 1.7790387868881226, -3.4696497917175293, 1.2184536457061768, 
72, 1214636414, 0.23047845, 0.7087836, -0.2969084, 0.5969514, 9.844532012939453, -0.22446730732917786, -1.433639645576477, 3.633384943008423, -2.9375457763671875, 1.3639336824417114, 
73, 1214653081, 0.22987339, 0.7090175, -0.29667547, 0.5970227, 9.817153930664062, -0.23014798760414124, -1.402790904045105, 4.362002849578857, -2.5078933238983154, 1.393772840499878, 
74, 1214669748, 0.22925556, 0.70921016, -0.2965319, 0.597103, 9.814474105834961, -0.19966553151607513, -1.3618767261505127, 4.1030659675598145, -2.47837495803833, 1.957297444343567, 
75, 1214686415, 0.22860616, 0.7093795, -0.29632664, 0.59725255, 9.753530502319336, -0.1332954615354538, -1.348892092704773, 4.630622863769531, -2.0320093631744385, 1.9395090341567993, 
76, 1214703082, 0.22792193, 0.7095874, -0.29627132, 0.5972947, 9.836170196533203, -0.12861177325248718, -1.4035797119140625, 3.9672155380249023, -3.036168336868286, 2.5832459926605225, 
77, 1214719749, 0.22731197, 0.70968264, -0.29636434, 0.5973677, 9.848567962646484, -0.2169049084186554, -1.3880351781845093, 2.9582414627075195, -2.5214169025421143, 3.2741613388061523, 
78, 1214736416, 0.226826, 0.7097171, -0.29650623, 0.59744114, 9.724020957946777, -0.2056502252817154, -1.2955247163772583, 2.0244600772857666, -2.108706474304199, 3.133451461791992, 
79, 1214753083, 0.22635996, 0.7098404, -0.2967653, 0.5973426, 9.763370513916016, -0.13619442284107208, -1.312929391860962, 1.2327711582183838, -3.47833251953125, 3.1753408908843994, 
80, 1214769750, 0.22588176, 0.70996475, -0.29697457, 0.59727186, 9.788461685180664, -0.09229609370231628, -1.3808518648147583, 1.5572588443756104, -3.3178822994232178, 3.030386447906494, 
81, 1214786417, 0.22542688, 0.7100851, -0.29711288, 0.59723175, 9.776290893554688, -0.14258596301078796, -1.3502928018569946, 1.8175861835479736, -3.0099916458129883, 2.6537256240844727, 
82, 1214803084, 0.22501288, 0.71024907, -0.29725775, 0.5971211, 9.818868637084961, -0.19273680448532104, -1.3518507480621338, 1.5025755167007446, -3.48054838180542, 2.3312747478485107, 
83, 1214819751, 0.22464763, 0.7104248, -0.2974025, 0.5969773, 9.835210800170898, -0.1976398229598999, -1.3704309463500977, 1.2123066186904907, -3.6102254390716553, 2.061828851699829, 
84, 1214836418, 0.22428524, 0.7106292, -0.29754537, 0.5967992, 9.802663803100586, -0.23738989233970642, -1.425045371055603, 1.1999999284744263, -3.9075636863708496, 1.9292960166931152, 
85, 1214853085, 0.22384408, 0.7108162, -0.29765573, 0.5966871, 9.852876663208008, -0.2957540452480316, -1.453069806098938, 1.7990940809249878, -3.636286497116089, 2.2395427227020264, 
86, 1214869752, 0.22339003, 0.7109375, -0.2976899, 0.5966954, 9.80643081665039, -0.3177433907985687, -1.4263266324996948, 2.3462321758270264, -2.7024598121643066, 2.2317817211151123, 
87, 1214886419, 0.2228592, 0.7110803, -0.2976934, 0.5967223, 9.75349235534668, -0.2552913427352905, -1.3719087839126587, 2.875352621078491, -2.8232243061065674, 2.384754180908203, 
88, 1214903086, 0.22233735, 0.71120834, -0.29775652, 0.59673285, 9.791308403015137, -0.25703880190849304, -1.3627700805664062, 2.5055689811706543, -2.933781147003174, 2.6528165340423584, 
89, 1214919753, 0.22189504, 0.7113191, -0.29789162, 0.596698, 9.786296844482422, -0.2697410583496094, -1.3679560422897339, 1.7047878503799438, -3.052765130996704, 2.647411823272705, 
90, 1214936420, 0.22151192, 0.7114308, -0.29811832, 0.5965941, 9.866652488708496, -0.3244219422340393, -1.3869448900222778, 0.9107106328010559, -3.4347140789031982, 2.7453479766845703, 
91, 1214953087, 0.2210707, 0.7115095, -0.29830575, 0.5965701, 9.857565879821777, -0.41914114356040955, -1.471532940864563, 1.48158597946167, -2.9894118309020996, 2.9767913818359375, 
92, 1214969754, 0.22048075, 0.7116265, -0.29828125, 0.5966609, 9.758416175842285, -0.37923479080200195, -1.4735387563705444, 3.3661680221557617, -2.581414222717285, 2.6392412185668945, 
93, 1214986421, 0.21980262, 0.7117951, -0.2981429, 0.59677935, 9.762677192687988, -0.23601998388767242, -1.4589602947235107, 4.4189653396606445, -2.678806781768799, 2.3717808723449707, 
94, 1215003088, 0.2191547, 0.71201336, -0.29793677, 0.59686023, 9.756783485412598, -0.16014935076236725, -1.4436880350112915, 4.529292106628418, -2.914609909057617, 1.7707277536392212, 
95, 1215019755, 0.21859103, 0.71225375, -0.29774272, 0.59687674, 9.779633522033691, -0.14436568319797516, -1.4494363069534302, 3.9869565963745117, -3.1820192337036133, 1.3551486730575562, 
96, 1215036422, 0.21819453, 0.7124427, -0.29757407, 0.59688044, 9.74763298034668, -0.17961770296096802, -1.4327757358551025, 2.952049493789673, -2.7451562881469727, 0.8997806310653687, 
97, 1215053089, 0.21788058, 0.71268266, -0.2973984, 0.5967963, 9.725919723510742, -0.1517297923564911, -1.449977159500122, 2.486640691757202, -3.2226409912109375, 0.3015702962875366, 
98, 1215069756, 0.21759747, 0.71292496, -0.29738027, 0.5966191, 9.837095260620117, -0.18614396452903748, -1.4918732643127441, 1.5115013122558594, -3.8759312629699707, 0.818024754524231, 
99, 1215086423, 0.2173595, 0.713105, -0.29737926, 0.59649134, 9.7994384765625, -0.24625307321548462, -1.460506796836853, 1.1639306545257568, -3.3238110542297363, 0.9443145394325256, 
100, 1215103090, 0.21722348, 0.7132665, -0.29742917, 0.59632295, 9.785953521728516, -0.2936428487300873, -1.4339332580566406, 0.38927459716796875, -3.332730770111084, 0.7526931762695312, 
101, 1215119757, 0.21710475, 0.71344596, -0.29748896, 0.59612143, 9.759111404418945, -0.23627270758152008, -1.4505153894424438, 0.2512541711330414, -3.5700771808624268, 0.6431028246879578, 
102, 1215136424, 0.21695742, 0.71366817, -0.2975209, 0.5958932, 9.763301849365234, -0.1307087391614914, -1.4745163917541504, 0.5207639336585999, -3.910137891769409, 0.5037057995796204, 
103, 1215153091, 0.216832, 0.7138646, -0.29758203, 0.5956729, 9.809844970703125, -0.16915759444236755, -1.4392236471176147, 0.24748915433883667, -3.781062602996826, 0.6440250277519226, 
104, 1215169758, 0.21681838, 0.71400356, -0.29771706, 0.5954439, 9.782846450805664, -0.23910103738307953, -1.439963459968567, -0.66933673620224, -3.490537166595459, 0.6596615314483643, 
105, 1215186425, 0.21686816, 0.7141521, -0.29789394, 0.5951592, 9.747750282287598, -0.22921285033226013, -1.4192653894424438, -1.2541131973266602, -3.7578442096710205, 0.511696994304657, 
106, 1215203092, 0.21695867, 0.7143155, -0.2980933, 0.59483004, 9.780289649963379, -0.20351040363311768, -1.4226059913635254, -1.6387133598327637, -4.006608009338379, 0.37189003825187683, 
107, 1215219759, 0.21712105, 0.7144524, -0.29837716, 0.59446424, 9.79684829711914, -0.24282662570476532, -1.445436716079712, -2.45933198928833, -4.080948829650879, 0.5043461322784424, 
108, 1215236426, 0.21730557, 0.7146008, -0.298661, 0.59407574, 9.814603805541992, -0.25896239280700684, -1.4668514728546143, -2.586332082748413, -4.215018272399902, 0.3612479567527771, 
109, 1215253093, 0.21751325, 0.71473485, -0.29889375, 0.5937212, 9.777982711791992, -0.35905683040618896, -1.484399676322937, -2.4438486099243164, -3.8873419761657715, 0.10075395554304123, 
110, 1215269760, 0.2176502, 0.71490747, -0.2990234, 0.59339786, 9.779691696166992, -0.4090304672718048, -1.482261300086975, -1.5563108921051025, -3.901768207550049, -0.15171043574810028, 
111, 1215286427, 0.21766436, 0.7151118, -0.29898533, 0.5931655, 9.777070045471191, -0.37842151522636414, -1.4899895191192627, -0.03316204249858856, -3.606581926345825, -0.40933579206466675, 
112, 1215303094, 0.21758027, 0.7153278, -0.29883802, 0.5930102, 9.76856517791748, -0.35268157720565796, -1.5086352825164795, 1.067697286605835, -3.332545042037964, -0.45649510622024536, 
113, 1215319761, 0.21742372, 0.7155752, -0.29859364, 0.5928921, 9.815762519836426, -0.3030780255794525, -1.5724999904632568, 1.9774609804153442, -3.300977945327759, -0.6549553275108337, 
114, 1215336428, 0.2172213, 0.71584505, -0.2982499, 0.5928133, 9.829974174499512, -0.2823992073535919, -1.5819793939590454, 2.697650909423828, -3.1576101779937744, -0.9355165958404541, 
115, 1215353095, 0.21705388, 0.7161147, -0.29782566, 0.59276253, 9.774557113647461, -0.2664523124694824, -1.5576997995376587, 2.9112675189971924, -2.842151641845703, -1.4256796836853027, 
116, 1215369762, 0.21685377, 0.7164229, -0.29729462, 0.59272987, 9.762686729431152, -0.2324962168931961, -1.6043835878372192, 3.5876030921936035, -2.8325726985931396, -1.861979365348816, 
117, 1215386429, 0.2166665, 0.7167305, -0.29665175, 0.59274864, 9.751232147216797, -0.20832283794879913, -1.5681095123291016, 4.099114418029785, -2.3959531784057617, -2.381814956665039, 
118, 1215403096, 0.21653228, 0.71705526, -0.2959864, 0.5927376, 9.72716999053955, -0.2046421617269516, -1.538304328918457, 3.8989129066467285, -2.4862122535705566, -2.7784016132354736, 
119, 1215419763, 0.21642974, 0.7174025, -0.29537004, 0.5926622, 9.759281158447266, -0.1464853137731552, -1.4694677591323853, 3.4517405033111572, -2.920642375946045, -2.799455404281616, 
120, 1215436430, 0.21627808, 0.71777284, -0.2947921, 0.592557, 9.799086570739746, -0.15074361860752106, -1.5585228204727173, 3.511507987976074, -3.3400115966796875, -2.4885685443878174, 
121, 1215453097, 0.21609429, 0.7180838, -0.29422635, 0.59252846, 9.813895225524902, -0.19480417668819427, -1.5775295495986938, 3.693011999130249, -2.818434476852417, -2.0516927242279053, 
122, 1215469764, 0.21598381, 0.7183279, -0.2937109, 0.59252864, 9.792454719543457, -0.21509245038032532, -1.5223605632781982, 3.0882766246795654, -2.3486268520355225, -1.9159643650054932, 
123, 1215486431, 0.21578068, 0.718576, -0.29319626, 0.5925568, 9.799788475036621, -0.17876051366329193, -1.5426297187805176, 3.595017671585083, -2.433706045150757, -1.4937070608139038, 
124, 1215503098, 0.21553385, 0.7187544, -0.29275027, 0.59265065, 9.785200119018555, -0.19270586967468262, -1.5058938264846802, 3.570589542388916, -2.031592845916748, -0.7309415936470032, 
125, 1215519765, 0.21528207, 0.7188881, -0.29240596, 0.5927499, 9.769585609436035, -0.19721738994121552, -1.448958158493042, 3.0942447185516357, -2.00359845161438, -0.09606683999300003, 
126, 1215536432, 0.21500668, 0.7190207, -0.29211697, 0.5928314, 9.75877857208252, -0.17120450735092163, -1.429301142692566, 2.971796751022339, -2.24070143699646, 0.250396192073822, 
127, 1215553099, 0.21473111, 0.7191328, -0.29185018, 0.5929268, 9.78921127319336, -0.11046532541513443, -1.4863300323486328, 2.8743791580200195, -2.145127773284912, 0.43291229009628296, 
128, 1215569766, 0.21448003, 0.71920997, -0.29161924, 0.5930377, 9.784146308898926, -0.03205418959259987, -1.503575086593628, 2.594892740249634, -1.9522254467010498, 0.6127390265464783, 
129, 1215586433, 0.21434948, 0.71923786, -0.29145303, 0.5931328, 9.768863677978516, -0.04258052632212639, -1.4521102905273438, 1.62501060962677, -1.703161358833313, 0.5362274646759033, 
130, 1215603100, 0.21422128, 0.71927744, -0.29132795, 0.59319234, 9.783286094665527, -0.06526254117488861, -1.4785877466201782, 1.4051766395568848, -2.0054101943969727, 0.6686195135116577, 
131, 1215619767, 0.21404889, 0.7193224, -0.29118395, 0.59327084, 9.787859916687012, -0.13991133868694305, -1.5316157341003418, 1.7522798776626587, -2.015789747238159, 0.7853365540504456, 
132, 1215636434, 0.21387924, 0.7193724, -0.29102162, 0.59335095, 9.777223587036133, -0.17931750416755676, -1.51011323928833, 1.815991759300232, -2.0134143829345703, 0.6881236433982849, 
133, 1215653101, 0.21364631, 0.71944034, -0.29080895, 0.59345704, 9.798423767089844, -0.19493386149406433, -1.5023689270019531, 2.4129786491394043, -2.0302672386169434, 0.7055337429046631, 
134, 1215669768, 0.21337773, 0.71951747, -0.29057848, 0.593573, 9.808347702026367, -0.20415747165679932, -1.5073965787887573, 2.7067694664001465, -2.0824151039123535, 0.7629575133323669, 
135, 1215686435, 0.21301115, 0.7196117, -0.2903155, 0.59371907, 9.797096252441406, -0.20252200961112976, -1.4919263124465942, 3.4109647274017334, -2.170945167541504, 1.0176886320114136, 
136, 1215703102, 0.21254699, 0.7196952, -0.2899865, 0.593945, 9.783254623413086, -0.20714883506298065, -1.4564090967178345, 4.297695636749268, -1.8488205671310425, 1.236222505569458, 
137, 1215719769, 0.21210441, 0.71976954, -0.2896398, 0.5941823, 9.738457679748535, -0.1742047518491745, -1.4251525402069092, 4.274266719818115, -1.708123803138733, 1.101800799369812, 
138, 1215736436, 0.21169572, 0.7198717, -0.28934127, 0.5943495, 9.762208938598633, -0.09581930935382843, -1.394236445426941, 3.8197953701019287, -2.193894624710083, 1.0503959655761719, 
139, 1215753103, 0.21131788, 0.7199895, -0.28907624, 0.59447044, 9.798051834106445, -0.07236041128635406, -1.469677209854126, 3.443685293197632, -2.497814416885376, 1.0087625980377197, 
140, 1215769770, 0.21097124, 0.7200762, -0.2888033, 0.5946211, 9.755586624145508, -0.13260839879512787, -1.4603289365768433, 3.331648588180542, -2.170003890991211, 0.9634472727775574, 
141, 1215786437, 0.21066503, 0.72016346, -0.2885503, 0.5947469, 9.781697273254395, -0.11904027312994003, -1.4228817224502563, 3.015172004699707, -2.2649312019348145, 0.8683538436889648, 
142, 1215803104, 0.2103368, 0.7202807, -0.2883247, 0.5948304, 9.824257850646973, -0.14248597621917725, -1.4751719236373901, 2.972078323364258, -2.702267646789551, 0.9842895865440369, 
143, 1215819771, 0.21002342, 0.7203639, -0.28811926, 0.5949398, 9.791816711425781, -0.22478264570236206, -1.4726707935333252, 2.8070623874664307, -2.4525506496429443, 1.1424546241760254, 
144, 1215836438, 0.2096521, 0.7204066, -0.28789616, 0.5951271, 9.791692733764648, -0.2961224615573883, -1.4429619312286377, 3.281921625137329, -2.011044979095459, 1.4853571653366089, 
145, 1215853105, 0.20911923, 0.720469, -0.28758702, 0.59538835, 9.78668212890625, -0.2682075500488281, -1.4344130754470825, 4.600892543792725, -1.9417628049850464, 1.7900525331497192, 
146, 1215869772, 0.20853633, 0.72055304, -0.28723398, 0.59566146, 9.76819133758545, -0.22759869694709778, -1.4131914377212524, 5.092452049255371, -2.0277957916259766, 1.7531957626342773, 
147, 1215886439, 0.20792009, 0.7206439, -0.2869061, 0.59592503, 9.796798706054688, -0.1913403421640396, -1.444981575012207, 5.126517295837402, -2.225423812866211, 1.9976435899734497, 
148, 1215903106, 0.20732267, 0.7206895, -0.2866234, 0.59621406, 9.790247917175293, -0.2176714390516281, -1.4505207538604736, 4.830280303955078, -1.960831642150879, 2.280292510986328, 
149, 1215919773, 0.20679998, 0.72072434, -0.28636894, 0.5964755, 9.761845588684082, -0.1706579476594925, -1.4241219758987427, 4.290921688079834, -1.9656530618667603, 2.100369453430176, 
150, 1215936440, 0.20633808, 0.72078264, -0.2861328, 0.5966783, 9.76518726348877, -0.13381162285804749, -1.4290592670440674, 3.8260257244110107, -2.278409957885742, 1.8235219717025757, 
151, 1215953107, 0.205869, 0.72089225, -0.28586015, 0.59683865, 9.794857025146484, -0.10866323858499527, -1.516302466392517, 3.9936535358428955, -2.681547164916992, 1.5257678031921387, 
152, 1215969774, 0.20540509, 0.7209805, -0.28550932, 0.5970598, 9.802611351013184, -0.13688182830810547, -1.4780473709106445, 4.3899335861206055, -2.1851861476898193, 1.257346749305725, 
153, 1215986441, 0.20503034, 0.7210456, -0.28517526, 0.59726954, 9.758087158203125, -0.17935851216316223, -1.460607647895813, 3.8441522121429443, -2.012171983718872, 1.0137826204299927, 
154, 1216003108, 0.20446654, 0.7211891, -0.28464943, 0.59754026, 9.769684791564941, -0.17953887581825256, -1.4940990209579468, 5.78416109085083, -2.147228240966797, 0.784497857093811, 
155, 1216019775, 0.20379993, 0.7213633, -0.28402406, 0.59785527, 9.768523216247559, -0.18031252920627594, -1.4733625650405884, 6.843451499938965, -2.1309256553649902, 0.7260112166404724, 
156, 1216036442, 0.2032195, 0.72151864, -0.28342548, 0.59814954, 9.748481750488281, -0.18950915336608887, -1.4372140169143677, 6.2251482009887695, -2.038553476333618, 0.5267188549041748, 
157, 1216053109, 0.20275027, 0.72167486, -0.28292885, 0.59835523, 9.77856159210205, -0.10603156685829163, -1.4194879531860352, 5.0831098556518555, -2.4244534969329834, 0.46029868721961975, 
158, 1216069776, 0.20239028, 0.7218252, -0.28252184, 0.5984881, 9.821605682373047, -0.1359085589647293, -1.445798397064209, 4.035062789916992, -2.692439079284668, 0.37837639451026917, 
159, 1216086443, 0.20205633, 0.721923, -0.28213808, 0.5986639, 9.80449390411377, -0.20394521951675415, -1.4476137161254883, 3.807398557662964, -2.2606537342071533, 0.5643694400787354, 
160, 1216103110, 0.20185721, 0.7219967, -0.28188598, 0.59876096, 9.79509449005127, -0.1828027069568634, -1.4071677923202515, 2.4030792713165283, -2.490386724472046, 0.6097935438156128, 
161, 1216119777, 0.20170043, 0.72205615, -0.28172243, 0.59881914, 9.782929420471191, -0.17641253769397736, -1.4184422492980957, 1.7421437501907349, -2.683199167251587, 0.8570328950881958, 
162, 1216136444, 0.20143934, 0.72214675, -0.281445, 0.59892833, 9.755236625671387, -0.18795645236968994, -1.5067274570465088, 2.88100004196167, -2.6207430362701416, 0.7375754117965698, 
163, 1216153111, 0.20132947, 0.72221506, -0.2812701, 0.598965, 9.791104316711426, -0.18216624855995178, -1.4169118404388428, 1.5533140897750854, -2.7507781982421875, 0.5720148086547852, 
164, 1216169778, 0.20130435, 0.7222502, -0.28110394, 0.59900904, 9.805676460266113, -0.21675695478916168, -1.4596463441848755, 1.0567095279693604, -2.4437716007232666, 0.3509259819984436, 
165, 1216186445, 0.20126016, 0.72227603, -0.28094503, 0.5990674, 9.7826509475708, -0.22301211953163147, -1.3916120529174805, 1.1456881761550903, -2.395261287689209, 0.5073171854019165, 
166, 1216203112, 0.20124361, 0.7223049, -0.28088567, 0.5990661, 9.78046703338623, -0.20389467477798462, -1.3886830806732178, 0.46878284215927124, -2.8066012859344482, 0.8085481524467468, 
167, 1216219779, 0.20128252, 0.7223184, -0.2808798, 0.5990393, 9.799040794372559, -0.1888856589794159, -1.3879833221435547, -0.0797579437494278, -2.8563408851623535, 0.8417805433273315, 
168, 1216236446, 0.20137495, 0.7222873, -0.2809471, 0.5990144, 9.792773246765137, -0.21621832251548767, -1.416134238243103, -0.7323375344276428, -2.67781400680542, 1.0853767395019531, 
169, 1216253113, 0.20155923, 0.722244, -0.28105456, 0.5989539, 9.779979705810547, -0.22597070038318634, -1.410547137260437, -1.4212294816970825, -2.701070547103882, 0.8821398615837097, 
170, 1216269780, 0.20161612, 0.72224146, -0.28106052, 0.5989352, 9.760096549987793, -0.18941189348697662, -1.4648070335388184, -0.24488301575183868, -2.7819361686706543, 0.887435257434845, 
171, 1216286447, 0.2016048, 0.7222441, -0.28099155, 0.5989682, 9.768571853637695, -0.20534464716911316, -1.5113048553466797, 0.4370550811290741, -2.584449529647827, 0.8792967200279236, 
172, 1216303114, 0.20164703, 0.7222509, -0.28086466, 0.5990052, 9.740466117858887, -0.21083135902881622, -1.463192105293274, 0.4641084671020508, -2.409412384033203, 0.3657301366329193, 
173, 1216319781, 0.20176993, 0.72227734, -0.28078762, 0.598968, 9.768260955810547, -0.21109992265701294, -1.3945485353469849, -0.21934717893600464, -2.786738634109497, 0.13618911802768707, 
174, 1216336448, 0.20197725, 0.72229695, -0.28081352, 0.59886235, 9.802017211914062, -0.21886542439460754, -1.4349009990692139, -1.1805789470672607, -3.095883846282959, 0.21758626401424408, 
175, 1216353115, 0.20218319, 0.7222909, -0.28085148, 0.5987823, 9.8434419631958, -0.24696186184883118, -1.4237676858901978, -1.229006052017212, -2.8955729007720947, 0.37537968158721924, 
176, 1216369782, 0.20248, 0.7222697, -0.28091675, 0.5986769, 9.807985305786133, -0.3221636712551117, -1.3590731620788574, -1.8607755899429321, -2.8379766941070557, 0.13254572451114655, 
177, 1216386449, 0.20266986, 0.7222968, -0.2809007, 0.59858763, 9.80697250366211, -0.32517269253730774, -1.3914331197738647, -0.9181895852088928, -3.06691575050354, 0.09780848771333694, 
178, 1216403116, 0.20274812, 0.7223559, -0.2807694, 0.5985515, 9.813861846923828, -0.2752990126609802, -1.423265814781189, 0.2942066788673401, -3.0080196857452393, -0.013536310754716396, 
179, 1216419783, 0.20277627, 0.7224303, -0.28059718, 0.59853286, 9.795522689819336, -0.26810044050216675, -1.411783218383789, 0.7356800436973572, -3.036360263824463, -0.009310217574238777, 
180, 1216436450, 0.20285293, 0.7224855, -0.28044578, 0.5985111, 9.793428421020508, -0.2625668942928314, -1.428794026374817, 0.3989626467227936, -2.9235105514526367, -0.07742719352245331, 
181, 1216453117, 0.20306079, 0.72248906, -0.28040546, 0.59845525, 9.762004852294922, -0.25537946820259094, -1.3988035917282104, -0.8154572248458862, -2.7958569526672363, -0.020669449120759964, 
182, 1216469784, 0.20333044, 0.7225108, -0.2804431, 0.59831977, 9.786112785339355, -0.2876497507095337, -1.3914319276809692, -1.6241718530654907, -3.2687761783599854, -0.02277609519660473, 
183, 1216486451, 0.20358679, 0.7225213, -0.28048417, 0.5982007, 9.822367668151855, -0.3217744827270508, -1.4082735776901245, -1.547800898551941, -3.1868088245391846, 0.08886966109275818, 
184, 1216503118, 0.20376927, 0.7225048, -0.2804457, 0.59817654, 9.814275741577148, -0.3862985670566559, -1.3734065294265747, -0.7013013958930969, -2.6494288444519043, 0.17608091235160828, 
185, 1216519785, 0.20386782, 0.7225194, -0.28029796, 0.59819454, 9.779437065124512, -0.40202316641807556, -1.3394442796707153, 0.27278804779052734, -2.592165231704712, -0.027360767126083374, 
186, 1216536452, 0.20386449, 0.722588, -0.2800554, 0.59822637, 9.801822662353516, -0.3497277498245239, -1.4045313596725464, 1.2672909498214722, -2.825727939605713, -0.17158588767051697, 
187, 1216553119, 0.20371632, 0.72269017, -0.27965093, 0.5983426, 9.808821678161621, -0.30367493629455566, -1.4639309644699097, 2.8605544567108154, -2.6086342334747314, -0.3301157057285309, 
188, 1216569786, 0.20359953, 0.72274715, -0.27924857, 0.59850156, 9.821051597595215, -0.2944179177284241, -1.4417881965637207, 2.734328508377075, -2.1623904705047607, -0.3091837167739868, 
189, 1216586453, 0.2035558, 0.7227997, -0.27885428, 0.59863675, 9.759669303894043, -0.23329328000545502, -1.3999210596084595, 2.277115821838379, -2.1437699794769287, -0.5930876135826111, 
190, 1216603120, 0.20357479, 0.72288746, -0.27849844, 0.59869, 9.762768745422363, -0.1607176512479782, -1.3903144598007202, 1.6877743005752563, -2.6402533054351807, -0.8399749398231506, 
191, 1216619787, 0.2035643, 0.72300416, -0.27812147, 0.598728, 9.785503387451172, -0.16543255746364594, -1.4525479078292847, 1.9658390283584595, -2.875454902648926, -0.9010611772537231, 
192, 1216636454, 0.20359893, 0.7231111, -0.27773815, 0.59876484, 9.813064575195312, -0.14467613399028778, -1.4257004261016846, 1.7296897172927856, -2.753371477127075, -1.0928620100021362, 
193, 1216653121, 0.20380211, 0.7231734, -0.27743322, 0.598762, 9.754847526550293, -0.1044197678565979, -1.3728106021881104, 0.42561906576156616, -2.564746856689453, -1.3600407838821411, 
194, 1216669788, 0.20406502, 0.7232548, -0.2772121, 0.5986765, 9.751337051391602, -0.07448963075876236, -1.424785852432251, -0.2994765043258667, -3.072089910507202, -1.3458962440490723, 
195, 1216686455, 0.20438701, 0.7233436, -0.27702647, 0.5985452, 9.780061721801758, -0.09302741289138794, -1.4469271898269653, -0.8241525888442993, -3.2767348289489746, -1.481899380683899, 
196, 1216703122, 0.2048092, 0.7233919, -0.2768996, 0.59840137, 9.76345157623291, -0.12924674153327942, -1.4196069240570068, -1.6796938180923462, -3.0703225135803223, -1.530755877494812, 
197, 1216719789, 0.20523547, 0.72348183, -0.27675596, 0.598213, 9.767931938171387, -0.13242429494857788, -1.4125760793685913, -1.693377137184143, -3.441110849380493, -1.763005256652832, 
198, 1216736456, 0.20557432, 0.7235876, -0.27653515, 0.5980709, 9.823336601257324, -0.16988344490528107, -1.488155722618103, -0.8260992765426636, -3.3431620597839355, -1.750922679901123, 
199, 1216753123, 0.20583557, 0.72367525, -0.27622887, 0.5980163, 9.818007469177246, -0.22547805309295654, -1.506515383720398, 0.03756742551922798, -2.866483688354492, -1.6952918767929077, 
200, 1216769790, 0.2060454, 0.72375494, -0.27584675, 0.59802395, 9.795581817626953, -0.220830038189888, -1.4210748672485352, 0.754056990146637, -2.5197641849517822, -1.7702085971832275, 
201, 1216786457, 0.20622742, 0.72386116, -0.27549806, 0.5979934, 9.784385681152344, -0.14323903620243073, -1.373198390007019, 0.7696295380592346, -2.93080997467041, -1.6076706647872925, 
202, 1216803124, 0.20640999, 0.7239702, -0.27519485, 0.597938, 9.791521072387695, -0.08905429393053055, -1.422706961631775, 0.505165696144104, -3.1377477645874023, -1.4164848327636719, 
203, 1216819791, 0.20661356, 0.7240819, -0.2749461, 0.59784687, 9.82796573638916, -0.0891345888376236, -1.444124698638916, 0.11186987906694412, -3.3732950687408447, -1.284079909324646, 
204, 1216836458, 0.20681599, 0.72413576, -0.27470723, 0.5978214, 9.808877944946289, -0.133659228682518, -1.44912850856781, 0.11555810272693634, -2.8315606117248535, -1.0254557132720947, 
205, 1216853125, 0.2069803, 0.7241863, -0.27441913, 0.59783596, 9.77946949005127, -0.13722741603851318, -1.3949788808822632, 0.5665848851203918, -2.627568244934082, -1.047738790512085, 
206, 1216869792, 0.20710957, 0.72426015, -0.27410817, 0.59784406, 9.764309883117676, -0.1457221955060959, -1.4281164407730103, 0.8758326172828674, -2.798469305038452, -1.0750033855438232, 
207, 1216886459, 0.20716791, 0.7243618, -0.2737387, 0.59787005, 9.786115646362305, -0.14496544003486633, -1.4372738599777222, 1.5655570030212402, -2.88124942779541, -1.1078132390975952, 
208, 1216903126, 0.20713621, 0.7244836, -0.27332568, 0.59792256, 9.821294784545898, -0.13100044429302216, -1.4319283962249756, 2.2477774620056152, -2.9454991817474365, -0.9508716464042664, 
209, 1216919793, 0.20710208, 0.72458863, -0.2728986, 0.5980021, 9.791716575622559, -0.1086382269859314, -1.4109907150268555, 2.429166316986084, -2.735231399536133, -0.9582735300064087, 
210, 1216936460, 0.20706388, 0.7246991, -0.27246794, 0.5980778, 9.781774520874023, -0.05056505650281906, -1.384333610534668, 2.4144389629364014, -2.7848052978515625, -0.9644206762313843, 
211, 1216953127, 0.20703231, 0.72480154, -0.2720589, 0.59815085, 9.792403221130371, -0.039988622069358826, -1.3916767835617065, 2.242680072784424, -2.79081130027771, -0.8621747493743896, 
212, 1216969794, 0.20702553, 0.7248876, -0.27165848, 0.5982308, 9.766852378845215, -0.03851275518536568, -1.3735908269882202, 2.1223256587982178, -2.6643354892730713, -0.8878641724586487, 
213, 1216986461, 0.20704879, 0.7249952, -0.2713047, 0.59825283, 9.766191482543945, -0.04063836485147476, -1.3831535577774048, 1.6238899230957031, -3.059180736541748, -0.8820629119873047, 
214, 1217003128, 0.20711434, 0.7250994, -0.27101406, 0.5982357, 9.779484748840332, -0.040793318301439285, -1.4150911569595337, 1.1549471616744995, -3.2599847316741943, -0.8042644262313843, 
215, 1217019795, 0.20721842, 0.7252036, -0.27077436, 0.598182, 9.797261238098145, -0.033198367804288864, -1.407034993171692, 0.5993052124977112, -3.448148250579834, -0.7416157126426697, 
216, 1217036462, 0.20732473, 0.72529656, -0.2705538, 0.5981322, 9.807466506958008, -0.04891878366470337, -1.4303783178329468, 0.5846802592277527, -3.4142112731933594, -0.6447869539260864, 
217, 1217053129, 0.20743413, 0.72536516, -0.27034137, 0.59810716, 9.79464054107666, -0.06186592951416969, -1.431747317314148, 0.5228768587112427, -3.200319528579712, -0.5299651622772217, 
218, 1217069796, 0.2074961, 0.72544855, -0.2700729, 0.59810567, 9.803654670715332, -0.09389586001634598, -1.4035844802856445, 1.0073539018630981, -3.1560606956481934, -0.5987480282783508, 
219, 1217086463, 0.20755868, 0.7255399, -0.26978526, 0.5981031, 9.789275169372559, -0.10744316875934601, -1.39263117313385, 1.1004687547683716, -3.173323631286621, -0.7164896130561829, 
220, 1217103130, 0.20752437, 0.725682, -0.26946083, 0.59808874, 9.811631202697754, -0.10041958093643188, -1.4277323484420776, 1.67564058303833, -3.5719094276428223, -0.593766450881958, 
221, 1217119797, 0.2074753, 0.7257742, -0.26914105, 0.59813803, 9.792024612426758, -0.1183265894651413, -1.460864543914795, 1.9240070581436157, -3.0904669761657715, -0.35737401247024536, 
222, 1217136464, 0.20739144, 0.72586375, -0.2687958, 0.5982136, 9.766294479370117, -0.11165691167116165, -1.4415315389633179, 2.2511322498321533, -2.9803192615509033, -0.3034592866897583, 
223, 1217153131, 0.2072665, 0.7259417, -0.26845977, 0.5983132, 9.791092872619629, -0.10281752794981003, -1.4321047067642212, 2.429070472717285, -2.9049606323242188, -0.03165089339017868, 
224, 1217169798, 0.20715377, 0.725991, -0.26819146, 0.5984129, 9.789488792419434, -0.09272443503141403, -1.4200519323349, 1.9926872253417969, -2.864140033721924, 0.31741175055503845, 
225, 1217186465, 0.20706509, 0.7260313, -0.2679778, 0.5984903, 9.774349212646484, -0.06165910139679909, -1.4016090631484985, 1.6718369722366333, -2.9760546684265137, 0.4581535756587982, 
226, 1217203132, 0.20700353, 0.72607684, -0.2678218, 0.5985262, 9.800823211669922, -0.05281614884734154, -1.419925570487976, 1.2404102087020874, -3.244123935699463, 0.5623140335083008, 
227, 1217219799, 0.20686963, 0.72614384, -0.26765478, 0.59856594, 9.846766471862793, -0.05377982184290886, -1.4765695333480835, 1.5403351783752441, -3.431788682937622, 0.8003585338592529, 
228, 1217236466, 0.20676805, 0.7261406, -0.2674798, 0.5986832, 9.819801330566406, -0.0917283445596695, -1.442246675491333, 1.4788644313812256, -2.6886866092681885, 0.8601385354995728, 
229, 1217253133, 0.20667551, 0.7261304, -0.2672923, 0.59881127, 9.794072151184082, -0.09657607972621918, -1.3907437324523926, 1.5065581798553467, -2.5747551918029785, 0.7846385836601257, 
230, 1217269800, 0.20654494, 0.7261493, -0.2670659, 0.5989343, 9.773391723632812, -0.07473095506429672, -1.3903889656066895, 1.8311606645584106, -2.738560914993286, 0.6956344842910767, 
231, 1217286467, 0.20635031, 0.72621787, -0.26680332, 0.5990354, 9.76072883605957, -0.04939334839582443, -1.4633402824401855, 2.51796555519104, -3.126798629760742, 0.6177719831466675, 
232, 1217303134, 0.20606235, 0.7263192, -0.26646286, 0.5991631, 9.785371780395508, 0.01388009637594223, -1.5470150709152222, 3.32135272026062, -3.1900365352630615, 0.6066496968269348, 
233, 1217319801, 0.20579143, 0.7263967, -0.26607704, 0.5993337, 9.7746000289917, 0.031225087121129036, -1.5175124406814575, 3.447558879852295, -2.7786705493927, 0.4210728108882904, 
234, 1217336468, 0.20561188, 0.7264893, -0.2657497, 0.59942824, 9.777535438537598, 0.05173177272081375, -1.4955251216888428, 2.6316728591918945, -3.1355068683624268, 0.20686735212802887, 
235, 1217353135, 0.20549612, 0.726558, -0.26546916, 0.599509, 9.784530639648438, 0.05001828446984291, -1.494813323020935, 2.0935118198394775, -3.0555567741394043, 0.20023369789123535, 
236, 1217369802, 0.20546219, 0.72661865, -0.26523265, 0.5995519, 9.789053916931152, 0.050196532160043716, -1.4830141067504883, 1.4362514019012451, -3.1247754096984863, 0.04539210721850395, 
237, 1217386469, 0.2054631, 0.7266924, -0.26498458, 0.599572, 9.780920028686523, 0.019582001492381096, -1.4455952644348145, 1.2878257036209106, -3.2127416133880615, -0.20829527080059052, 
238, 1217403136, 0.20552078, 0.72677886, -0.26474884, 0.5995515, 9.768345832824707, 0.025369683280587196, -1.4756946563720703, 0.9080405831336975, -3.3854734897613525, -0.46189939975738525, 
239, 1217419803, 0.20563866, 0.7268815, -0.26454398, 0.59947693, 9.771492958068848, 0.00937950611114502, -1.4903554916381836, 0.345329612493515, -3.6542916297912598, -0.6474378108978271, 
240, 1217436470, 0.20569457, 0.7269759, -0.26430264, 0.5994498, 9.78275203704834, -0.03199324011802673, -1.4991180896759033, 0.7782930731773376, -3.4444406032562256, -0.4707934260368347, 
241, 1217453137, 0.2057696, 0.72702694, -0.26407835, 0.59946084, 9.794605255126953, -0.08514665067195892, -1.4776681661605835, 0.7547998428344727, -3.0655837059020996, -0.35979437828063965, 
242, 1217469804, 0.20580854, 0.7270909, -0.26382416, 0.59948194, 9.776976585388184, -0.06580919772386551, -1.4892215728759766, 1.0937838554382324, -3.0921058654785156, -0.3727800250053406, 
243, 1217486471, 0.20579061, 0.7271768, -0.2635201, 0.59951776, 9.764904022216797, -0.05309092998504639, -1.4989697933197021, 1.6185626983642578, -3.141986846923828, -0.4046678841114044, 
244, 1217503138, 0.20580022, 0.7272674, -0.2632345, 0.5995301, 9.787559509277344, -0.026004953309893608, -1.4650460481643677, 1.4819060564041138, -3.255732774734497, -0.4933518171310425, 
245, 1217519805, 0.20578593, 0.7273514, -0.26295704, 0.5995547, 9.786845207214355, 0.006009281147271395, -1.4423164129257202, 1.5263184309005737, -3.2217063903808594, -0.31403735280036926, 
246, 1217536472, 0.20577142, 0.72743934, -0.26270002, 0.5995657, 9.781859397888184, 0.040777210146188736, -1.4791897535324097, 1.3951430320739746, -3.3372323513031006, -0.23215351998806, 
247, 1217553139, 0.20572297, 0.7275187, -0.26246276, 0.59959, 9.823847770690918, 0.043585676699876785, -1.5200986862182617, 1.5826406478881836, -3.325540065765381, 0.02638748288154602, 
248, 1217569806, 0.20565884, 0.72754943, -0.26219133, 0.59969336, 9.816808700561523, -0.008285203017294407, -1.4781283140182495, 1.6451034545898438, -2.7063848972320557, 0.16607272624969482, 
249, 1217586473, 0.20563145, 0.7275673, -0.26192427, 0.59979767, 9.767006874084473, -0.013456727378070354, -1.4569103717803955, 1.540533423423767, -2.58962345123291, 0.037797942757606506, 
250, 1217603140, 0.20559245, 0.7276229, -0.26165336, 0.5998619, 9.764805793762207, 0.03528822585940361, -1.506385087966919, 1.5474616289138794, -2.9616858959198, -0.049778278917074203, 
251, 1217619807, 0.2056186, 0.7276654, -0.26143593, 0.5998963, 9.771388053894043, 0.02241576835513115, -1.5323163270950317, 1.202035903930664, -3.018059492111206, -0.1222878247499466, 
252, 1217636474, 0.20570843, 0.72771406, -0.26126018, 0.59988296, 9.769192695617676, -0.003175477497279644, -1.4880656003952026, 0.47951456904411316, -3.2208096981048584, -0.22535331547260284, 
253, 1217653141, 0.20590514, 0.72776747, -0.2611324, 0.59980625, 9.781294822692871, -0.0017190967919304967, -1.4909814596176147, -0.2172469049692154, -3.4368271827697754, -0.553733766078949, 
254, 1217669808, 0.20612204, 0.7278347, -0.2610012, 0.59970737, 9.761587142944336, 0.010556675493717194, -1.5100256204605103, -0.46385881304740906, -3.560908317565918, -0.6848580837249756, 
255, 1217686475, 0.20636614, 0.72789943, -0.2608767, 0.59959894, 9.764076232910156, 0.013198114931583405, -1.487485408782959, -0.7249674797058105, -3.557476043701172, -0.7592116594314575, 
256, 1217703142, 0.2065899, 0.7279725, -0.26071703, 0.59950256, 9.795515060424805, -0.005188857205212116, -1.5311203002929688, -0.44712087512016296, -3.5162649154663086, -0.8511868119239807, 
257, 1217719809, 0.20668703, 0.7280457, -0.2604668, 0.5994889, 9.805091857910156, -0.04329848289489746, -1.5132910013198853, 0.5973328948020935, -3.1992180347442627, -0.6445178985595703, 
258, 1217736476, 0.20671204, 0.72810507, -0.26011017, 0.5995632, 9.803688049316406, -0.06437760591506958, -1.5030770301818848, 1.6889845132827759, -2.6804072856903076, -0.7651281356811523, 
259, 1217753143, 0.20669624, 0.7281436, -0.2597536, 0.5996764, 9.78192138671875, -0.05420471355319023, -1.455582857131958, 2.3147923946380615, -2.4755313396453857, -0.5840207934379578, 
260, 1217769810, 0.20659173, 0.728222, -0.2593414, 0.59979576, 9.76387882232666, 3.078443114645779E-4, -1.4553073644638062, 2.3289437294006348, -2.6816883087158203, -0.4202403724193573, 
261, 1217786477, 0.20652407, 0.7283188, -0.2590006, 0.5998486, 9.779175758361816, 0.013620210811495781, -1.4292949438095093, 1.9384138584136963, -3.1280531883239746, -0.3792216181755066, 
262, 1217803144, 0.20650297, 0.728405, -0.2587242, 0.59987044, 9.76689624786377, 0.03549730405211449, -1.5033265352249146, 1.6139394044876099, -3.252800464630127, -0.3241671621799469, 
263, 1217819811, 0.20641363, 0.7284849, -0.2584282, 0.59993184, 9.80490493774414, 0.01903349533677101, -1.529964804649353, 2.0028302669525146, -3.119050979614258, -0.055553946644067764, 
264, 1217836478, 0.20630907, 0.7285199, -0.25809774, 0.60006756, 9.849100112915039, -0.009158918634057045, -1.5031728744506836, 2.542252540588379, -2.540696620941162, -0.03090812638401985, 
265, 1217853145, 0.20613185, 0.7285497, -0.2576768, 0.6002731, 9.800053596496582, -0.04435696825385094, -1.4761366844177246, 3.2939345836639404, -2.1675004959106445, -0.059242185205221176, 
266, 1217869812, 0.20585646, 0.72861415, -0.25718486, 0.60050035, 9.76110553741455, -0.02629462257027626, -1.4894347190856934, 3.8580734729766846, -2.272179365158081, 0.017781617119908333, 
267, 1217886479, 0.2055356, 0.728694, -0.25667363, 0.6007321, 9.772306442260742, 0.01705240271985531, -1.5289939641952515, 4.289633750915527, -2.3652944564819336, 0.06556211411952972, 
268, 1217903146, 0.20520607, 0.7287784, -0.25618336, 0.60095155, 9.759169578552246, 0.017550813034176826, -1.5316720008850098, 4.508814811706543, -2.4903740882873535, 0.12630262970924377, 
269, 1217919813, 0.20495853, 0.72885954, -0.2557338, 0.6011291, 9.755483627319336, 0.07493747025728226, -1.4891530275344849, 3.9005520343780518, -2.596564769744873, -0.07226624339818954, 
270, 1217936480, 0.2046656, 0.72897315, -0.25527617, 0.60128564, 9.769368171691895, 0.12409622967243195, -1.535334825515747, 3.7143607139587402, -2.8989994525909424, 0.07799708098173141, 
271, 1217953147, 0.20439221, 0.7290487, -0.25481135, 0.60148394, 9.790757179260254, 0.13024099171161652, -1.540711760520935, 3.7047808170318604, -2.484713315963745, 0.08258173614740372, 
272, 1217969814, 0.20421325, 0.72908443, -0.25441787, 0.6016681, 9.79391098022461, 0.08792218565940857, -1.5055840015411377, 3.151066541671753, -2.324564218521118, 0.044630132615566254, 
273, 1217986481, 0.20404163, 0.72913975, -0.2539981, 0.60183656, 9.767317771911621, 0.06504831463098526, -1.4866365194320679, 3.07499098777771, -2.432387113571167, -0.1429957151412964, 
274, 1218003148, 0.20385128, 0.72921854, -0.2535518, 0.6019939, 9.768473625183105, 0.053227055817842484, -1.5060735940933228, 3.2303056716918945, -2.577418804168701, -0.24328221380710602, 
275, 1218019815, 0.20361392, 0.7293177, -0.25309277, 0.6021472, 9.793404579162598, 0.06932772696018219, -1.5525026321411133, 3.613356590270996, -2.743619680404663, -0.16772478818893433, 
276, 1218036482, 0.20334429, 0.72938913, -0.25260544, 0.6023565, 9.80247688293457, 0.06523887813091278, -1.5637972354888916, 4.031849384307861, -2.362138032913208, -0.0648193508386612, 
277, 1218053149, 0.20309131, 0.72943616, -0.25209257, 0.6025997, 9.797518730163574, 0.04945322126150131, -1.521518349647522, 4.031503200531006, -2.021021604537964, -0.16252541542053223, 
278, 1218069816, 0.20283765, 0.7295135, -0.2515268, 0.6028277, 9.762229919433594, 0.05326295644044876, -1.4813168048858643, 4.016948699951172, -2.146024227142334, -0.4507195055484772, 
279, 1218086483, 0.20255068, 0.7296088, -0.25097165, 0.60304046, 9.768333435058594, 0.04475795105099678, -1.495919942855835, 4.28565788269043, -2.3668758869171143, -0.34016862511634827, 
280, 1218103150, 0.20221803, 0.7296884, -0.2504057, 0.6032909, 9.804195404052734, 0.030678819864988327, -1.469469666481018, 4.873482704162598, -2.1772141456604004, -0.17751523852348328, 
281, 1218119817, 0.20184389, 0.72974336, -0.24984525, 0.603582, 9.800616264343262, 0.025478927418589592, -1.4782013893127441, 5.030815124511719, -1.9480254650115967, 0.13233442604541779, 
282, 1218136484, 0.2015, 0.72976506, -0.24935307, 0.6038741, 9.77407455444336, 0.02776477299630642, -1.4411779642105103, 4.497570514678955, -1.8463681936264038, 0.4164048135280609, 
283, 1218153151, 0.20121045, 0.7297804, -0.24894552, 0.6041202, 9.745361328125, 0.06408842653036118, -1.4106402397155762, 3.677234411239624, -2.0727715492248535, 0.5820677876472473, 
284, 1218169818, 0.2009275, 0.72982055, -0.24861008, 0.604304, 9.769543647766113, 0.11304722726345062, -1.4527537822723389, 3.051452159881592, -2.574409008026123, 0.8293071389198303, 
285, 1218186485, 0.20072758, 0.7298043, -0.24838144, 0.604484, 9.83608341217041, 0.10659170150756836, -1.5211536884307861, 2.8159823417663574, -2.369123935699463, 0.9780660271644592, 
286, 1218203152, 0.20050228, 0.7297441, -0.24812467, 0.6047369, 9.804039001464844, 0.019941218197345734, -1.5381476879119873, 3.18337082862854, -1.8223822116851807, 1.1084858179092407, 
287, 1218219819, 0.20022614, 0.72968227, -0.2477946, 0.6050383, 9.785867691040039, -0.04684411734342575, -1.5040438175201416, 3.6950414180755615, -1.553243637084961, 1.0437431335449219, 
288, 1218236486, 0.19980843, 0.7296549, -0.24731931, 0.60540366, 9.762710571289062, -0.05300936475396156, -1.491152048110962, 4.903289318084717, -1.411605715751648, 0.9781298637390137, 
289, 1218253153, 0.19925849, 0.7296845, -0.2467389, 0.6057859, 9.791934967041016, 0.021440422162413597, -1.4736156463623047, 6.141523361206055, -1.6414287090301514, 0.9194385409355164, 
290, 1218269820, 0.19872344, 0.72970647, -0.24614765, 0.60617566, 9.812636375427246, 0.06161186844110489, -1.4635851383209229, 6.27155876159668, -1.5303846597671509, 0.7956650257110596, 
291, 1218286487, 0.19830255, 0.7296957, -0.24560516, 0.60654646, 9.785140037536621, 0.0911785289645195, -1.4512068033218384, 5.677862167358398, -1.3620386123657227, 0.5470104217529297, 
292, 1218303154, 0.19784026, 0.7297341, -0.24503835, 0.6068803, 9.780067443847656, 0.10586730390787125, -1.4558101892471313, 5.460339546203613, -1.7833995819091797, 0.5651378631591797, 
293, 1218319821, 0.19744106, 0.72975314, -0.24455291, 0.6071831, 9.813645362854004, 0.09515750408172607, -1.48561429977417, 5.210974216461182, -1.8639131784439087, 0.6117785573005676, 
294, 1218336488, 0.19702445, 0.72976065, -0.244014, 0.60752624, 9.797481536865234, 0.06741426885128021, -1.457371711730957, 5.014557838439941, -1.562074065208435, 0.5969424843788147, 
295, 1218353155, 0.19657643, 0.729781, -0.24341796, 0.60788584, 9.764669418334961, 0.056881096214056015, -1.4804250001907349, 4.8312087059021, -1.4992328882217407, 0.558177649974823, 
296, 1218369822, 0.19610696, 0.72983354, -0.24281485, 0.60821575, 9.754531860351562, 0.08195672184228897, -1.509451150894165, 5.568329811096191, -1.8110421895980835, 0.40754935145378113, 
297, 1218386489, 0.19561972, 0.7298766, -0.24218354, 0.60857236, 9.76361083984375, 0.09753932803869247, -1.514344573020935, 5.805170059204102, -1.6245816946029663, 0.3940258324146271, 
298, 1218403156, 0.1951116, 0.7299292, -0.24152952, 0.60893214, 9.790055274963379, 0.07909971475601196, -1.5196634531021118, 6.577144145965576, -1.6535946130752563, 0.255698025226593, 
299, 1218419823, 0.19447684, 0.73001516, -0.24069108, 0.60936403, 9.80079460144043, 0.06713967025279999, -1.485412359237671, 7.66729736328125, -1.3838542699813843, -0.007069106679409742, 
300, 1218436490, 0.19387105, 0.7300939, -0.23983306, 0.609801, 9.784088134765625, 0.05984260141849518, -1.4367897510528564, 7.262929439544678, -1.245936393737793, -0.1450895518064499, 
301, 1218453157, 0.19334932, 0.73016083, -0.2390871, 0.61017936, 9.788887023925781, 0.08581364154815674, -1.4623470306396484, 6.631077289581299, -1.5025500059127808, -0.05959435552358627, 
302, 1218469824, 0.19288306, 0.73022664, -0.23838678, 0.610522, 9.792871475219727, 0.1373828798532486, -1.4554716348648071, 5.937426567077637, -1.641197681427002, -0.07687651365995407, 
303, 1218486491, 0.19258155, 0.73022175, -0.23786983, 0.6108245, 9.771223068237305, 0.10118752717971802, -1.4193196296691895, 4.824920177459717, -1.5209779739379883, 0.10105490684509277, 
304, 1218503158, 0.19226046, 0.730266, -0.23729478, 0.61109656, 9.786002159118652, 0.11185233294963837, -1.3986696004867554, 3.915573835372925, -1.8203587532043457, 0.0017352604772895575, 
305, 1218519825, 0.1921438, 0.73026615, -0.23691419, 0.6112806, 9.777551651000977, 0.1357848346233368, -1.4557743072509766, 2.605919122695923, -2.005871295928955, -0.05657845363020897, 
306, 1218536492, 0.19194195, 0.730289, -0.23647538, 0.6114867, 9.848519325256348, 0.0938161164522171, -1.464782476425171, 2.333387851715088, -2.039898157119751, 0.18425136804580688, 
307, 1218553159, 0.19187492, 0.7301972, -0.23617266, 0.6117341, 9.785127639770508, 0.03730061277747154, -1.4430663585662842, 2.792649030685425, -1.324202299118042, 0.22170992195606232, 
308, 1218569826, 0.19174291, 0.73017216, -0.23574854, 0.61196905, 9.735037803649902, 0.041283514350652695, -1.395580768585205, 2.2854464054107666, -1.5953316688537598, 0.011820259504020214, 
309, 1218586493, 0.19155845, 0.7301764, -0.23531348, 0.61218905, 9.779577255249023, 0.043144550174474716, -1.4526070356369019, 2.7772107124328613, -1.8643805980682373, 0.07927130907773972, 
310, 1218603160, 0.19137496, 0.7301507, -0.23490393, 0.6124345, 9.851239204406738, 0.019426116719841957, -1.4405286312103271, 3.2673354148864746, -1.6448156833648682, 0.17617695033550262, 
311, 1218619827, 0.19124779, 0.7300795, -0.23454635, 0.6126961, 9.849146842956543, -0.0020319526083767414, -1.4253978729248047, 3.317901372909546, -1.3514926433563232, 0.18960443139076233, 
312, 1218636494, 0.19122282, 0.72995603, -0.23428659, 0.6129502, 9.792572021484375, -0.005829476751387119, -1.3635097742080688, 3.105942964553833, -1.1372934579849243, 0.18174129724502563, 
313, 1218653161, 0.19107842, 0.7298997, -0.23386231, 0.6132243, 9.803182601928711, 0.026009108871221542, -1.3663684129714966, 3.0170414447784424, -1.2803786993026733, 0.039193831384181976, 
314, 1218669828, 0.19086201, 0.72988605, -0.23338953, 0.61348814, 9.799617767333984, 0.09278568625450134, -1.399559497833252, 3.7226336002349854, -1.5642062425613403, -0.0018441146239638329, 
315, 1218686495, 0.1906646, 0.7298451, -0.23294838, 0.61376566, 9.817214012145996, 0.08944670110940933, -1.4100843667984009, 3.6529159545898438, -1.3897579908370972, 0.1090909093618393, 
316, 1218703162, 0.1904223, 0.72979623, -0.2324803, 0.6140765, 9.789607048034668, 0.08639843016862869, -1.4277466535568237, 3.4335684776306152, -1.2172563076019287, 0.3256590664386749, 
317, 1218719829, 0.19026999, 0.7297187, -0.23207968, 0.61436707, 9.79262638092041, 0.07026638835668564, -1.3777142763137817, 2.8788998126983643, -1.140994668006897, 0.25828489661216736, 
318, 1218736496, 0.19021511, 0.7296352, -0.23179173, 0.61459213, 9.788198471069336, 0.08073347806930542, -1.3624775409698486, 2.2370965480804443, -1.4374487400054932, 0.2612047493457794, 
319, 1218753163, 0.19016819, 0.72958654, -0.23152761, 0.61476386, 9.789175033569336, 0.08072112500667572, -1.368672490119934, 1.6215848922729492, -1.865078330039978, 0.29602518677711487, 
320, 1218769830, 0.19017017, 0.7295133, -0.2313124, 0.61493117, 9.816234588623047, 0.08047784119844437, -1.392188549041748, 1.5353724956512451, -1.7707982063293457, 0.296883225440979, 
321, 1218786497, 0.19001737, 0.72948223, -0.23093559, 0.61515695, 9.804986000061035, 0.04077424481511116, -1.4591747522354126, 2.0947155952453613, -1.679002285003662, 0.330653578042984, 
322, 1218803164, 0.18985377, 0.72940516, -0.2305456, 0.6154451, 9.811869621276855, 0.04383281618356705, -1.4036264419555664, 2.446134567260742, -1.1683361530303955, 0.4278537333011627, 
323, 1218819831, 0.18979624, 0.72928077, -0.23021567, 0.6157336, 9.790925979614258, 0.022245308384299278, -1.3573426008224487, 2.0391807556152344, -0.8761336803436279, 0.2785893380641937, 
324, 1218836498, 0.18958116, 0.7292463, -0.22972704, 0.61602306, 9.803168296813965, 0.03530511260032654, -1.3325905799865723, 2.3871872425079346, -1.2828761339187622, 0.21729175746440887, 
325, 1218853165, 0.18948923, 0.72916514, -0.22938304, 0.6162756, 9.824386596679688, 0.048796217888593674, -1.3563331365585327, 2.7390799522399902, -1.275794267654419, 0.1543997824192047, 
326, 1218869832, 0.18934439, 0.72909534, -0.22894615, 0.61656517, 9.799511909484863, 0.0657154768705368, -1.3648208379745483, 3.3507237434387207, -1.097158432006836, -0.037509795278310776, 
327, 1218886499, 0.18914077, 0.7290408, -0.22844668, 0.61687726, 9.809364318847656, 0.07417009025812149, -1.3600192070007324, 3.3655216693878174, -1.0522273778915405, 0.003624197095632553, 
328, 1218903166, 0.189058, 0.7289353, -0.22806548, 0.6171684, 9.790444374084473, 0.09180325269699097, -1.336651086807251, 2.7419803142547607, -0.9066319465637207, 0.0384574718773365, 
329, 1218919833, 0.18900418, 0.7288252, -0.22769898, 0.6174501, 9.797704696655273, 0.0815236046910286, -1.3056092262268066, 1.9491970539093018, -0.9030654430389404, 0.07792024314403534, 
330, 1218936500, 0.18905023, 0.72869843, -0.22746567, 0.6176716, 9.780055046081543, 0.05312290042638779, -1.3165051937103271, 0.9580623507499695, -1.148972988128662, 0.2360914647579193, 
331, 1218953167, 0.1891479, 0.72858185, -0.22728798, 0.6178445, 9.80367374420166, 0.03242359310388565, -1.327283501625061, 0.6848644018173218, -1.426896333694458, 0.16778239607810974, 
332, 1218969834, 0.1891407, 0.7284605, -0.22704437, 0.61807925, 9.817198753356934, 8.440702804364264E-4, -1.3449225425720215, 1.0647966861724854, -1.1700009107589722, 0.4538826644420624, 
333, 1218986501, 0.18899386, 0.728364, -0.22662711, 0.61839104, 9.788421630859375, -0.03786829859018326, -1.309348464012146, 1.0137763023376465, -0.8670091032981873, 0.5065039396286011, 
334, 1219003168, 0.18896745, 0.7282254, -0.22639045, 0.6186489, 9.778093338012695, -0.010415969416499138, -1.263154149055481, 0.819958508014679, -1.0123803615570068, 0.6717507243156433, 
335, 1219019835, 0.18911484, 0.72802806, -0.22637656, 0.6188413, 9.812516212463379, -0.008525373414158821, -1.309859037399292, 0.7389071583747864, -1.121797800064087, 0.73614102602005, 
336, 1219036502, 0.1890138, 0.72789747, -0.22613046, 0.6191157, 9.856809616088867, -0.01977563463151455, -1.2980268001556396, 1.2667078971862793, -1.0635416507720947, 0.9433093070983887, 
337, 1219053169, 0.1888926, 0.72774225, -0.22583322, 0.61944354, 9.81869125366211, -0.03862709179520607, -1.3101378679275513, 1.7518572807312012, -0.6548078656196594, 0.8582046627998352, 
338, 1219069836, 0.18876797, 0.7275798, -0.22553372, 0.6197815, 9.795910835266113, 5.185732734389603E-4, -1.3094731569290161, 2.170215606689453, -0.5760616064071655, 0.819593608379364, 
339, 1219086503, 0.18855852, 0.7274187, -0.2251727, 0.6201653, 9.805160522460938, 0.012144516222178936, -1.3762809038162231, 3.168854236602783, -0.4032975137233734, 0.8887349963188171, 
340, 1219103170, 0.18838704, 0.72720706, -0.22483438, 0.62058836, 9.823076248168945, 0.005840701051056385, -1.3193072080612183, 3.674647808074951, 0.037093594670295715, 0.8388223648071289, 
341, 1219119837, 0.18815657, 0.7270377, -0.22436881, 0.62102515, 9.810542106628418, 0.017283190041780472, -1.2947670221328735, 3.5218167304992676, 0.010840576142072678, 0.575229287147522, 
342, 1219136504, 0.18793488, 0.72689766, -0.22391672, 0.621419, 9.790947914123535, 0.03574015945196152, -1.2856457233428955, 3.0991365909576416, -0.3268500566482544, 0.549776554107666, 
343, 1219153171, 0.18777294, 0.7267509, -0.22350661, 0.6217872, 9.820841789245605, 0.07961961627006531, -1.3331832885742188, 3.094641923904419, -0.3900110423564911, 0.39652302861213684, 
344, 1219169838, 0.18749912, 0.7266291, -0.2229262, 0.6222205, 9.875219345092773, 0.06703159958124161, -1.309653878211975, 2.705840826034546, -0.10554352402687073, 0.3535448908805847, 
345, 1219186505, 0.1874837, 0.72640365, -0.22255087, 0.62262255, 9.841903686523438, 0.08587400615215302, -1.305689811706543, 2.5974221229553223, 0.3001808226108551, 0.03952039033174515, 
346, 1219203172, 0.18752974, 0.7261944, -0.22217743, 0.6229861, 9.765833854675293, 0.12789271771907806, -1.2829710245132446, 2.7243268489837646, 0.1308104693889618, -0.3636234998703003, 
347, 1219219839, 0.18755826, 0.72604364, -0.22171168, 0.623319, 9.776397705078125, 0.18396666646003723, -1.3158320188522339, 2.7622339725494385, -0.1722710281610489, -0.803777813911438, 
348, 1219236506, 0.18744951, 0.7259473, -0.22105521, 0.623697, 9.826529502868652, 0.19566604495048523, -1.3271507024765015, 3.018321990966797, -0.13108579814434052, -0.9760999083518982, 
349, 1219253173, 0.1874892, 0.72577745, -0.22048543, 0.62408435, 9.81944465637207, 0.1720125675201416, -1.255947470664978, 2.4078946113586426, 0.3466614782810211, -1.143120288848877, 
350, 1219269840, 0.18759829, 0.72560495, -0.21996711, 0.62443477, 9.818819999694824, 0.17721350491046906, -1.270039439201355, 1.5415834188461304, 0.21661299467086792, -1.190401315689087, 
351, 1219286507, 0.1878003, 0.7254059, -0.21954632, 0.6247535, 9.818341255187988, 0.21165181696414948, -1.285901427268982, 0.774457573890686, 0.189565971493721, -1.1332337856292725, 
352, 1219303174, 0.18816398, 0.72516274, -0.21928395, 0.6250184, 9.837130546569824, 0.22393393516540527, -1.3076802492141724, -0.16251257061958313, 0.1518128663301468, -1.1414682865142822, 
353, 1219319841, 0.1886164, 0.7248443, -0.21909489, 0.6253177, 9.844273567199707, 0.1637095957994461, -1.2761526107788086, -0.7732025384902954, 0.6899293065071106, -1.0262048244476318, 
354, 1219336508, 0.18944156, 0.7243697, -0.21928097, 0.6255526, 9.80724811553955, 0.11406785249710083, -1.2922630310058594, -1.6545099020004272, 1.1108227968215942, -1.0337222814559937, 
355, 1219353175, 0.19012317, 0.7239659, -0.21926521, 0.62581897, 9.803677558898926, 0.1640254408121109, -1.3048851490020752, -2.238793134689331, 1.0219788551330566, -1.1480252742767334, 
356, 1219369842, 0.19065194, 0.7236579, -0.21899949, 0.62610745, 9.785849571228027, 0.19991445541381836, -1.320277214050293, -2.416602849960327, 0.8254844546318054, -1.5343992710113525, 
357, 1219386509, 0.19139068, 0.72334516, -0.21882395, 0.6263046, 9.82620620727539, 0.2265799194574356, -1.284641146659851, -2.7382731437683105, 0.5930108428001404, -2.2835195064544678, 
358, 1219403176, 0.19215596, 0.72310543, -0.21845815, 0.626475, 9.796881675720215, 0.3256957530975342, -1.242653727531433, -3.4036974906921387, 0.4409034848213196, -3.286839723587036, 
359, 1219419843, 0.19339569, 0.7228328, -0.21828519, 0.6264683, 9.758187294006348, 0.49994879961013794, -1.1486635208129883, -5.068511486053467, 0.16771841049194336, -4.81602144241333, 
360, 1219436510, 0.19499907, 0.7226516, -0.2181642, 0.6262225, 9.720020294189453, 0.7333838939666748, -1.054818868637085, -7.655459880828857, -0.9376299977302551, -6.5282182693481445, 
361, 1219453177, 0.19676171, 0.7227225, -0.2177859, 0.6257208, 9.66480827331543, 0.9569798707962036, -1.1038185358047485, -10.57701587677002, -2.7326979637145996, -8.750072479248047, 
362, 1219469844, 0.19928677, 0.722849, -0.21787173, 0.62474483, 9.709198951721191, 1.1461313962936401, -1.2963768243789673, -12.332924842834473, -4.773712635040283, -11.093768119812012, 
363, 1219486511, 0.20197593, 0.723129, -0.21755466, 0.6236669, 9.781872749328613, 1.2532768249511719, -1.482913613319397, -13.252106666564941, -5.159928798675537, -13.883742332458496, 
364, 1219503178, 0.20497365, 0.7234656, -0.21681404, 0.6225554, 9.76571273803711, 1.3686708211898804, -1.6209239959716797, -12.786150932312012, -4.507241249084473, -17.445724487304688, 
365, 1219519845, 0.2082533, 0.7238786, -0.215491, 0.6214451, 9.606107711791992, 1.555832028388977, -1.657463788986206, -10.709716796875, -3.551605463027954, -21.765552520751953, 
366, 1219536512, 0.21178427, 0.7245108, -0.21328782, 0.6202741, 9.433747291564941, 1.8632997274398804, -1.7402995824813843, -8.431584358215332, -3.153137445449829, -27.540287017822266, 
367, 1219553179, 0.215605, 0.725436, -0.20999923, 0.6189974, 9.251717567443848, 2.255793571472168, -1.8160344362258911, -5.444822311401367, -2.9255974292755127, -34.66746139526367, 
368, 1219569846, 0.21988988, 0.7266476, -0.2056237, 0.617536, 9.04033374786377, 2.7030882835388184, -1.9288159608840942, -1.7367956638336182, -2.6977648735046387, -42.889095306396484, 
369, 1219586513, 0.22430253, 0.7283781, -0.19965324, 0.6158672, 8.777884483337402, 3.240147352218628, -1.9554213285446167, 3.056732416152954, -3.434030532836914, -52.135833740234375, 
370, 1219603180, 0.22939903, 0.7305183, -0.19257496, 0.61370534, 8.528066635131836, 3.750192165374756, -1.7172223329544067, 4.758552551269531, -4.939130783081055, -61.910789489746094, 
371, 1219619847, 0.23588665, 0.7328116, -0.18508759, 0.6108088, 8.454780578613281, 3.882603645324707, -1.3077901601791382, -0.753936231136322, -6.722341060638428, -71.20008087158203, 
372, 1219636514, 0.2442895, 0.7351221, -0.17811093, 0.6067904, 8.993906021118164, 3.4429829120635986, -0.8325708508491516, -13.859053611755371, -10.814812660217285, -78.4605941772461, 
373, 1219653181, 0.25455955, 0.7370145, -0.1723823, 0.6019081, 10.136017799377441, 2.6615731716156006, -0.759345531463623, -30.361478805541992, -13.265979766845703, -80.82530212402344, 
374, 1219669848, 0.26560065, 0.7384909, -0.16808687, 0.59651875, 11.355203628540039, 1.70335054397583, -0.9035362005233765, -41.12646484375, -15.65019702911377, -77.19843292236328, 
375, 1219686515, 0.27590978, 0.73986137, -0.16460505, 0.5910875, 11.80352783203125, 0.8933126926422119, -1.3630856275558472, -41.47220993041992, -17.865407943725586, -69.97050476074219, 
376, 1219703182, 0.28436765, 0.7416569, -0.16048086, 0.5859405, 11.202174186706543, 0.19750076532363892, -1.39574134349823, -28.277902603149414, -19.01942253112793, -65.71269989013672, 
377, 1219719849, 0.28978446, 0.74432564, -0.15397277, 0.581633, 10.727041244506836, 0.06171206384897232, -1.355093240737915, -0.602253794670105, -16.96495819091797, -64.99437713623047, 
378, 1219736516, 0.2922314, 0.7476864, -0.14592214, 0.57816344, 10.370123863220215, 0.6940242648124695, -1.7137714624404907, 23.180280685424805, -15.469683647155762, -60.16684341430664, 
379, 1219753183, 0.2930415, 0.7511511, -0.1373814, 0.57534796, 10.378883361816406, 1.492829442024231, -1.8436706066131592, 34.26502227783203, -13.19922161102295, -54.9957275390625, 
380, 1219769850, 0.29260805, 0.75449485, -0.12831554, 0.57328314, 10.29306697845459, 2.358811140060425, -1.532508134841919, 43.23035430908203, -8.94288158416748, -51.194602966308594, 
381, 1219786517, 0.29155815, 0.7577751, -0.1197896, 0.571333, 9.934990882873535, 3.044633388519287, -1.2335920333862305, 44.27574920654297, -9.72028923034668, -45.69423294067383, 
382, 1219803184, 0.29161516, 0.7603516, -0.11358247, 0.5691443, 9.646319389343262, 3.3854691982269287, -0.6972759366035461, 27.811798095703125, -11.929622650146484, -37.86393737792969, 
383, 1219819851, 0.2940113, 0.76178676, -0.11054385, 0.5665851, 9.341004371643066, 3.3213658332824707, -0.5317893028259277, 0.6018558740615845, -13.945680618286133, -30.301837921142578, 
384, 1219836518, 0.2982357, 0.7623849, -0.11005037, 0.5636611, 9.088276863098145, 3.218585968017578, -0.691310703754425, -20.82133674621582, -16.365680694580078, -24.206748962402344, 
385, 1219853185, 0.30347973, 0.7625069, -0.111271404, 0.56044817, 8.902212142944336, 3.177605152130127, -1.1309993267059326, -33.9997444152832, -18.798540115356445, -19.41359519958496, 
386, 1219869852, 0.30894515, 0.76233, -0.11337615, 0.5572716, 8.732060432434082, 2.9693117141723633, -1.5372346639633179, -39.17729949951172, -19.149887084960938, -15.339097023010254, 
387, 1219886519, 0.31379387, 0.7621209, -0.11561754, 0.55438083, 8.702881813049316, 2.7859222888946533, -1.6488077640533447, -36.292667388916016, -18.29212760925293, -11.64983081817627, 
388, 1219903186, 0.31758326, 0.7620228, -0.11752593, 0.5519511, 8.78907299041748, 2.6618995666503906, -1.618614912033081, -28.8797550201416, -16.426206588745117, -8.470281600952148, 
389, 1219919853, 0.32017276, 0.7621483, -0.11887721, 0.5499887, 8.88644790649414, 2.5083508491516113, -1.565946102142334, -19.61344337463379, -14.577821731567383, -6.021610736846924, 
390, 1219936520, 0.3217058, 0.7626121, -0.11947024, 0.5483203, 8.889019966125488, 2.357571601867676, -1.5432900190353394, -10.205723762512207, -13.500249862670898, -5.659733295440674, 
391, 1219953187, 0.32191804, 0.7635951, -0.11908831, 0.5469091, 8.866347312927246, 2.3922340869903564, -1.6287498474121094, 1.7159559726715088, -13.049742698669434, -5.67170524597168, 
392, 1219969854, 0.32063442, 0.76522356, -0.11769465, 0.5456875, 8.95965576171875, 2.83300518989563, -1.7960083484649658, 14.95262336730957, -13.46189022064209, -5.4923834800720215, 
393, 1219986521, 0.31855074, 0.76720226, -0.11593906, 0.5445038, 9.046502113342285, 3.621910810470581, -1.7296048402786255, 21.32430648803711, -14.41910171508789, -4.612077236175537, 
394, 1220003188, 0.31678477, 0.76911104, -0.11457286, 0.54312867, 9.005437850952148, 4.245390892028809, -1.5518627166748047, 17.891691207885742, -15.762341499328613, -4.112011432647705, 
395, 1220019855, 0.31595352, 0.7706862, -0.113749996, 0.5415509, 8.898370742797852, 4.544246196746826, -1.3981620073318481, 10.03314208984375, -16.039514541625977, -4.8961944580078125, 
396, 1220036522, 0.31569228, 0.77198666, -0.11319031, 0.5399658, 8.908408164978027, 4.573728084564209, -1.5753583908081055, 5.442902565002441, -15.185746192932129, -5.4092535972595215, 
397, 1220053189, 0.315793, 0.77315766, -0.112934895, 0.53828233, 8.791478157043457, 4.366061210632324, -1.7059459686279297, 2.035116672515869, -15.613822937011719, -5.233947277069092, 
398, 1220069856, 0.3161575, 0.77423817, -0.1128733, 0.53652537, 8.667644500732422, 3.987579822540283, -1.8274955749511719, -0.3195187747478485, -15.881542205810547, -5.259944915771484, 
399, 1220086523, 0.31636375, 0.77534413, -0.112827435, 0.5348137, 8.62618350982666, 3.947274684906006, -1.972204327583313, 0.5500268936157227, -15.894949913024902, -4.508377552032471, 
400, 1220103190, 0.31625074, 0.77651095, -0.11280586, 0.5331897, 8.693655014038086, 4.2198100090026855, -2.094372510910034, 2.364226818084717, -15.948427200317383, -3.057544231414795, 
401, 1220119857, 0.31633914, 0.77750045, -0.11324406, 0.5315999, 8.621463775634766, 4.364220142364502, -2.0428977012634277, -0.7591993808746338, -15.958476066589355, -1.1207996606826782, 
402, 1220136524, 0.31705302, 0.7781605, -0.11443962, 0.52995044, 8.569234848022461, 4.271662712097168, -1.9802175760269165, -7.632425785064697, -16.23060417175293, 0.7788380980491638, 
403, 1220153191, 0.31849173, 0.7783752, -0.11653586, 0.5283129, 8.648852348327637, 4.207836151123047, -1.8718079328536987, -15.742271423339844, -15.936443328857422, 3.337923765182495, 
404, 1220169858, 0.3207835, 0.7780797, -0.11963547, 0.52666646, 8.651391983032227, 4.156011581420898, -1.6685588359832764, -25.07801055908203, -15.65052318572998, 6.003244400024414, 
405, 1220186525, 0.32396883, 0.77722573, -0.12366349, 0.5250444, 8.664861679077148, 3.99565052986145, -1.547580361366272, -34.421085357666016, -14.818315505981445, 8.246133804321289, 
406, 1220203192, 0.32770103, 0.77592784, -0.12840542, 0.52350754, 8.784431457519531, 3.8276805877685547, -1.5028437376022339, -40.82882308959961, -13.895357131958008, 10.648123741149902, 
407, 1220219859, 0.3313153, 0.7744315, -0.13337488, 0.5222043, 8.929404258728027, 3.750023365020752, -1.4869234561920166, -41.265296936035156, -12.5691499710083, 12.980960845947266, 
408, 1220236526, 0.33431146, 0.7730026, -0.13830954, 0.5211272, 9.03857421875, 3.6000115871429443, -1.544714331626892, -37.4749755859375, -12.10385799407959, 15.455101013183594, 
409, 1220253193, 0.33664027, 0.7718246, -0.14303115, 0.52009827, 9.013507843017578, 3.2504055500030518, -1.590576410293579, -32.54719161987305, -12.905769348144531, 16.57308578491211, 
410, 1220269860, 0.33844423, 0.7708809, -0.14719364, 0.51916504, 9.02734088897705, 2.9979023933410645, -1.6852344274520874, -27.130231857299805, -12.468913078308105, 15.45584774017334, 
411, 1220286527, 0.33926952, 0.7704136, -0.15055242, 0.5183565, 8.99593734741211, 2.77919340133667, -2.0789756774902344, -17.832901000976562, -12.632163047790527, 14.473396301269531, 
412, 1220303194, 0.33883932, 0.7705811, -0.15359065, 0.5174966, 9.06484317779541, 2.939316749572754, -2.018798589706421, -8.623571395874023, -15.720071792602539, 16.452423095703125, 
413, 1220319861, 0.33850303, 0.77065665, -0.15791355, 0.5163018, 9.074199676513672, 3.0109055042266846, -1.1435316801071167, -14.2745361328125, -20.06425666809082, 22.22352409362793, 
414, 1220336528, 0.33847567, 0.77044845, -0.16350473, 0.51488835, 9.091233253479004, 2.7924904823303223, -0.6231392025947571, -21.317617416381836, -22.85077667236328, 27.6282958984375, 
415, 1220353195, 0.3375344, 0.7698368, -0.16852887, 0.5148008, 9.495271682739258, 2.2733800411224365, -0.5688332915306091, -13.903242111206055, -14.130376815795898, 31.374177932739258, 
416, 1220369862, 0.3337068, 0.7697821, -0.17097184, 0.5165695, 9.484336853027344, 1.875483751296997, -1.1580318212509155, 13.960433006286621, -3.659557819366455, 31.558916091918945, 
417, 1220386529, 0.3275036, 0.7705173, -0.1719057, 0.5191274, 9.641515731811523, 3.181438684463501, -2.257596492767334, 34.61860275268555, -1.637650728225708, 32.866920471191406, 
418, 1220403196, 0.3209374, 0.7713281, -0.17236753, 0.5218636, 9.636178970336914, 5.906745433807373, -2.4534945487976074, 38.60957336425781, -0.32665443420410156, 31.971433639526367, 
419, 1220419863, 0.3180299, 0.7716563, -0.17461258, 0.52241206, 9.35977840423584, 7.376535892486572, -1.8554842472076416, 9.15152645111084, -9.795693397521973, 24.09644889831543, 
420, 1220436530, 0.32108518, 0.7702361, -0.18036655, 0.5206809, 9.609052658081055, 4.413712024688721, -1.6849943399429321, -41.633323669433594, -16.13542938232422, 18.48001480102539, 
421, 1220453197, 0.32551193, 0.76809675, -0.18668291, 0.5188632, 9.66376781463623, 0.8467661738395691, -1.7028154134750366, -52.59947967529297, -13.575102806091309, 17.257244110107422, 
422, 1220469864, 0.32574213, 0.7668438, -0.19043472, 0.5192086, 9.70939826965332, 0.7023091912269592, -2.0938494205474854, -16.523731231689453, -4.965945243835449, 22.330181121826172, 
423, 1220486531, 0.32198754, 0.76637024, -0.19262502, 0.52143687, 9.338239669799805, 2.4588539600372314, -2.438204288482666, 14.245308876037598, 0.45232847332954407, 31.47423553466797, 
424, 1220503198, 0.31815392, 0.76593685, -0.19573781, 0.5232645, 9.194951057434082, 2.949281930923462, -2.244969367980957, 10.898493766784668, -3.94509220123291, 35.67079544067383, 
425, 1220519865, 0.31554663, 0.7653596, -0.20018993, 0.52400315, 9.445127487182617, 2.618698835372925, -2.456667423248291, -2.1618762016296387, -10.440224647521973, 36.12324905395508, 
426, 1220536532, 0.31332505, 0.7646177, -0.20477252, 0.5246483, 9.515336036682129, 2.5708224773406982, -2.7074012756347656, -5.157219409942627, -10.088981628417969, 35.43875503540039, 
427, 1220553199, 0.31110248, 0.7639019, -0.20971633, 0.5250606, 9.240346908569336, 2.8119049072265625, -2.563497543334961, -6.7347540855407715, -12.178365707397461, 36.79548263549805, 
428, 1220569866, 0.309632, 0.76307154, -0.21554852, 0.52477515, 9.260425567626953, 2.5815515518188477, -2.5539517402648926, -15.149446487426758, -16.240633010864258, 37.419944763183594, 
429, 1220586533, 0.308679, 0.76199406, -0.22197267, 0.524224, 9.515645027160645, 1.847319483757019, -2.5576627254486084, -20.92795181274414, -17.231473922729492, 38.4547233581543, 
430, 1220603200, 0.30739596, 0.7609662, -0.22835167, 0.5237311, 9.610371589660645, 1.419127345085144, -2.1873531341552734, -18.847875595092773, -17.509475708007812, 39.436744689941406, 
431, 1220619867, 0.3056442, 0.7600221, -0.23412065, 0.52357996, 9.4506254196167, 1.173579454421997, -2.0910017490386963, -13.49630355834961, -15.472888946533203, 38.503055572509766, 
432, 1220636534, 0.30333915, 0.7594709, -0.23910518, 0.5234678, 9.479828834533691, 0.9611710906028748, -1.6746726036071777, -6.900880336761475, -15.929444313049316, 35.820743560791016, 
433, 1220653201, 0.30051297, 0.75919926, -0.24286053, 0.5237628, 9.783124923706055, 0.7707353234291077, -1.6761645078659058, 1.4890581369400024, -13.114678382873535, 31.643232345581055, 
434, 1220669868, 0.2971408, 0.7590534, -0.24526314, 0.52477777, 9.826557159423828, 0.9739786386489868, -1.9261103868484497, 10.666219711303711, -7.939283847808838, 27.803096771240234, 
435, 1220686535, 0.29355225, 0.7590449, -0.24665013, 0.52615774, 9.53916072845459, 1.1631460189819336, -2.3340234756469727, 16.35289192199707, -4.829826831817627, 23.779096603393555, 
436, 1220703202, 0.28998357, 0.7592167, -0.24719858, 0.52762955, 9.121603012084961, 1.2631949186325073, -2.6945714950561523, 19.7919921875, -3.278242349624634, 19.202552795410156, 
437, 1220719869, 0.28657392, 0.759573, -0.2470893, 0.5290292, 9.101704597473145, 1.3557078838348389, -3.0485923290252686, 21.592485427856445, -2.7341878414154053, 14.729740142822266, 
438, 1220736536, 0.28304535, 0.7603998, -0.24630056, 0.53010756, 9.141728401184082, 1.5122404098510742, -3.1780283451080322, 25.058731079101562, -4.975190162658691, 10.181196212768555, 
439, 1220753203, 0.28007445, 0.7612062, -0.24549617, 0.5309009, 9.159632682800293, 1.573934555053711, -3.497953176498413, 21.674732208251953, -5.400448322296143, 7.549044609069824, 
440, 1220769870, 0.27748522, 0.76196635, -0.24504822, 0.53137654, 8.971624374389648, 1.4622035026550293, -3.4381930828094482, 17.7458553314209, -6.917219161987305, 7.491245746612549, 
441, 1220786537, 0.27500242, 0.7628464, -0.2448703, 0.5314867, 9.345458984375, 1.5744671821594238, -3.2922468185424805, 15.809608459472656, -9.585680961608887, 7.62098503112793, 
442, 1220803204, 0.27325824, 0.7634399, -0.24536492, 0.5313062, 9.50021743774414, 1.5480618476867676, -3.267388343811035, 8.442957878112793, -10.077466011047363, 8.384035110473633, 
443, 1220819871, 0.27160886, 0.7639292, -0.24619573, 0.5310642, 9.526193618774414, 1.3343843221664429, -3.0570971965789795, 6.4155073165893555, -10.478165626525879, 9.863082885742188, 
444, 1220836538, 0.2699228, 0.7643528, -0.24713668, 0.5308773, 9.474663734436035, 1.1486173868179321, -2.8972513675689697, 6.174336910247803, -10.209281921386719, 10.786971092224121, 
445, 1220853205, 0.26782826, 0.76503515, -0.2478586, 0.5306185, 9.619122505187988, 0.9734510183334351, -2.5714080333709717, 9.474501609802246, -11.813142776489258, 10.548750877380371, 
446, 1220869872, 0.2652702, 0.7657782, -0.24812831, 0.5307058, 9.96721363067627, 0.7900404930114746, -2.4017035961151123, 14.264148712158203, -10.17261028289795, 10.386495590209961, 
447, 1220886539, 0.26213503, 0.766463, -0.24790874, 0.53137743, 10.059510231018066, 0.584321141242981, -2.2947189807891846, 19.977083206176758, -6.981433868408203, 11.071732521057129, 
448, 1220903206, 0.2585856, 0.76696676, -0.24719241, 0.53272164, 10.0017728805542, 0.7882603406906128, -2.3386921882629395, 24.792945861816406, -2.5952649116516113, 11.475436210632324, 
449, 1220919873, 0.25520056, 0.76734996, -0.24643683, 0.53415036, 9.683856964111328, 0.9742712378501892, -2.359570026397705, 23.996414184570312, -1.3685283660888672, 11.014942169189453, 
450, 1220936540, 0.2520167, 0.76755434, -0.24559759, 0.5357526, 9.630709648132324, 1.1254489421844482, -2.569840431213379, 23.227304458618164, 0.6855190396308899, 10.440367698669434, 
451, 1220953207, 0.2488786, 0.7676972, -0.24461024, 0.5374637, 9.432756423950195, 1.3786647319793701, -2.4797556400299072, 23.609996795654297, 1.8173850774765015, 9.783720016479492, 
452, 1220969874, 0.2461161, 0.76783884, -0.24328159, 0.5391341, 9.281715393066406, 1.7422059774398804, -2.372359275817871, 22.819982528686523, 2.82136607170105, 6.5341644287109375, 
453, 1220986541, 0.24391402, 0.76795703, -0.2418272, 0.540619, 9.081245422363281, 1.589065670967102, -2.7109224796295166, 19.985715866088867, 3.0746750831604004, 3.53110671043396, 
454, 1221003208, 0.24180861, 0.7680802, -0.24012224, 0.5421475, 9.011476516723633, 1.5191521644592285, -3.0474441051483154, 20.48978614807129, 3.870795488357544, 1.9261868000030518, 
455, 1221019875, 0.24008566, 0.76826876, -0.2385219, 0.543351, 8.77072811126709, 1.8100954294204712, -2.958238363265991, 17.6544246673584, 2.3773927688598633, 0.41512468457221985, 
456, 1221036542, 0.23904611, 0.76854557, -0.237155, 0.54401606, 8.448848724365234, 1.881901741027832, -2.924342632293701, 12.438960075378418, -0.05136629566550255, -1.9217602014541626, 
457, 1221053209, 0.23834254, 0.7690573, -0.23586926, 0.54416066, 8.584282875061035, 1.8546485900878906, -2.9504241943359375, 9.904632568359375, -3.255323648452759, -3.97279953956604, 
458, 1221069876, 0.23793748, 0.7695289, -0.23470357, 0.5441751, 8.762224197387695, 2.1000049114227295, -3.265535831451416, 7.599514484405518, -3.495647430419922, -4.586684703826904, 
459, 1221086543, 0.23785895, 0.7700141, -0.2338191, 0.54390395, 8.74876880645752, 2.192126989364624, -3.130629301071167, 4.388449192047119, -4.977060317993164, -4.791163921356201, 
460, 1221103210, 0.23837954, 0.7703689, -0.23357394, 0.54327846, 8.936320304870605, 2.2721309661865234, -3.2539191246032715, -1.9477183818817139, -6.434014320373535, -4.000128746032715, 
461, 1221119877, 0.23969479, 0.7705365, -0.23437761, 0.5421148, 8.808260917663574, 2.2355735301971436, -3.2706573009490967, -11.250053405761719, -9.016573905944824, -1.9746382236480713, 
462, 1221136544, 0.2415884, 0.77050185, -0.23612544, 0.5405628, 9.008713722229004, 2.42225980758667, -3.2724032402038574, -18.78281021118164, -10.931735038757324, 0.5706838965415955, 
463, 1221153211, 0.24342139, 0.7704485, -0.23807961, 0.5389572, 9.418643951416016, 2.7875797748565674, -2.8942177295684814, -19.341285705566406, -11.575474739074707, 1.8469672203063965, 
464, 1221169878, 0.24459267, 0.77065563, -0.23884343, 0.53779143, 9.529134750366211, 3.2016308307647705, -1.990113615989685, -10.264488220214844, -9.299798011779785, -1.6744953393936157, 
465, 1221186545, 0.24593677, 0.77119774, -0.23826803, 0.5366556, 8.951821327209473, 2.5169408321380615, -1.7375882863998413, -5.593073844909668, -7.854779243469238, -9.884394645690918, 
466, 1221203212, 0.24599206, 0.7723896, -0.23563835, 0.5360771, 8.540606498718262, 1.6321452856063843, -2.0278754234313965, 10.8525972366333, -5.945100784301758, -16.12748146057129, 
467, 1221219879, 0.2459551, 0.77373576, -0.23190135, 0.5357823, 8.653138160705566, 1.161578893661499, -1.6442148685455322, 16.14252471923828, -3.2894468307495117, -21.4285831451416, 
468, 1221236546, 0.24648876, 0.77466834, -0.22806157, 0.5358374, 9.051372528076172, 1.1128898859024048, -2.637894630432129, 13.366409301757812, 1.1723920106887817, -22.830303192138672, 
469, 1221253213, 0.24662156, 0.77553326, -0.2236463, 0.5363859, 8.559467315673828, 2.0833797454833984, -2.5572288036346436, 18.2706298828125, 4.398412704467773, -23.476329803466797, 
470, 1221269880, 0.24720897, 0.7764376, -0.21908453, 0.53668976, 8.143945693969727, 2.4514400959014893, -2.0756614208221436, 16.08548927307129, 3.9001550674438477, -26.394269943237305, 
471, 1221286547, 0.24693237, 0.77755576, -0.21348691, 0.5374537, 8.234444618225098, 1.9241443872451782, -2.735347032546997, 25.589353561401367, 6.027090549468994, -28.258678436279297, 
472, 1221303214, 0.24626829, 0.7786542, -0.20748803, 0.53851604, 8.501484870910645, 1.5003999471664429, -2.655242443084717, 29.562137603759766, 7.818050384521484, -28.427406311035156, 
473, 1221319881, 0.24610889, 0.7792621, -0.20221484, 0.53971446, 8.554038047790527, 1.3750531673431396, -3.07763409614563, 23.534765243530273, 9.862619400024414, -25.47590446472168, 
474, 1221336548, 0.2459787, 0.77953774, -0.19730671, 0.54118997, 8.166597366333008, 1.5739338397979736, -2.2188122272491455, 21.847389221191406, 12.015559196472168, -22.696693420410156, 
475, 1221353215, 0.24622957, 0.779578, -0.19315286, 0.54251504, 8.119400024414062, 1.8939638137817383, -2.5607290267944336, 16.40530776977539, 11.33072566986084, -20.006174087524414, 
476, 1221369882, 0.24666268, 0.77938575, -0.18961997, 0.5438393, 8.26063346862793, 2.475682020187378, -2.446308135986328, 12.719145774841309, 11.391802787780762, -17.042879104614258, 
477, 1221386549, 0.24738567, 0.77892804, -0.18679798, 0.5451416, 8.462138175964355, 2.7291622161865234, -2.5721359252929688, 8.040484428405762, 11.444007873535156, -13.996835708618164, 
478, 1221403216, 0.24845071, 0.7782295, -0.18453956, 0.5464225, 8.63022518157959, 3.0502474308013916, -2.4665956497192383, 3.662626266479492, 11.720287322998047, -11.972297668457031, 
479, 1221419883, 0.2501064, 0.777387, -0.1822781, 0.5476242, 8.206334114074707, 2.911470651626587, -2.357614278793335, 0.16820518672466278, 12.59386157989502, -14.138839721679688, 
480, 1221436550, 0.25207043, 0.7765038, -0.17944202, 0.5489117, 7.659104824066162, 2.5637078285217285, -2.579943895339966, 0.7280231714248657, 14.585583686828613, -18.156455993652344, 
481, 1221453217, 0.25355342, 0.77575284, -0.17535755, 0.55060804, 7.481698036193848, 2.534721851348877, -2.3695132732391357, 8.7437105178833, 17.851743698120117, -22.446029663085938, 
482, 1221469884, 0.25469816, 0.77515733, -0.17000411, 0.55259365, 7.94627571105957, 2.3703627586364746, -2.184391736984253, 15.973372459411621, 20.620473861694336, -27.602590560913086, 
483, 1221486551, 0.25587794, 0.7743659, -0.16417313, 0.55491656, 8.275910377502441, 2.3622758388519287, -2.4932045936584473, 17.656267166137695, 24.048723220825195, -29.450458526611328, 
484, 1221503218, 0.25710598, 0.77327687, -0.15828943, 0.5575707, 8.136124610900879, 2.206524133682251, -2.6953415870666504, 17.452369689941406, 27.10606575012207, -28.988040924072266, 
485, 1221519885, 0.25780746, 0.7721676, -0.15221342, 0.5604682, 8.25841236114502, 2.5001723766326904, -2.8592581748962402, 21.215797424316406, 28.25895118713379, -27.53266716003418, 
486, 1221536552, 0.2583406, 0.7711295, -0.14617774, 0.5632517, 8.977202415466309, 3.504066228866577, -2.8750271797180176, 21.955005645751953, 27.150859832763672, -26.93662452697754, 
487, 1221553219, 0.25969535, 0.76976186, -0.14057522, 0.56591946, 9.592618942260742, 4.491514682769775, -3.02058482170105, 15.218539237976074, 27.884878158569336, -27.675125122070312, 
488, 1221569886, 0.26259178, 0.768045, -0.13506114, 0.56825334, 9.71716022491455, 5.23141622543335, -3.3189852237701416, 5.77238130569458, 28.825727462768555, -33.434898376464844, 
489, 1221586553, 0.26709637, 0.766591, -0.1290705, 0.569508, 10.914040565490723, 6.201019287109375, -3.117985725402832, -1.3856852054595947, 24.474931716918945, -44.38856506347656, 
490, 1221603220, 0.27290905, 0.7654112, -0.12195639, 0.56990695, 12.445085525512695, 6.319201469421387, -2.7852554321289062, -4.132164478302002, 22.13022232055664, -57.20423889160156, 
491, 1221619887, 0.2800098, 0.7644584, -0.11365698, 0.56945664, 12.457809448242188, 6.08506965637207, -1.8492220640182495, -6.536228656768799, 20.086519241333008, -70.23899841308594, 
492, 1221636554, 0.28923717, 0.76359, -0.10510204, 0.5676502, 12.049643516540527, 4.828411102294922, -1.2390758991241455, -17.59181785583496, 14.782295227050781, -82.55968475341797, 
493, 1221653221, 0.2989849, 0.7631046, -0.09616456, 0.5648295, 11.832879066467285, 2.845299482345581, -1.334575891494751, -18.781742095947266, 9.094535827636719, -88.88972473144531, 
494, 1221669888, 0.30823544, 0.7630572, -0.08670221, 0.5614429, 11.305091857910156, 1.312142252922058, -1.637839674949646, -13.599997520446777, 5.172685146331787, -91.19188690185547, 
495, 1221686555, 0.31598547, 0.7637869, -0.07689205, 0.55755836, 11.050821304321289, 0.40809357166290283, -2.5433290004730225, -3.038621425628662, -0.5939750075340271, -88.78926849365234, 
496, 1221703222, 0.32031262, 0.76607114, -0.0667918, 0.55323994, 11.713768005371094, 1.427531123161316, -3.678861141204834, 19.18378448486328, -9.994453430175781, -79.01378631591797, 
497, 1221719889, 0.32150632, 0.76939577, -0.057518892, 0.54895943, 12.809083938598633, 4.323151588439941, -3.6184303760528564, 34.82353973388672, -16.986888885498047, -63.18234634399414, 
498, 1221736556, 0.32499522, 0.77104884, -0.052051295, 0.54511756, 12.926069259643555, 6.036993026733398, -1.6419146060943604, 4.782456874847412, -15.843096733093262, -50.109169006347656, 
499, 1221753223, 0.33398488, 0.7703067, -0.052331135, 0.5406883, 11.871274948120117, 5.362005710601807, -0.6325497031211853, -51.465728759765625, -20.86056137084961, -40.72502899169922, 
500, 1221769890, 0.3467737, 0.76825464, -0.056347635, 0.5351248, 10.91500186920166, 3.521406888961792, -0.9061291217803955, -88.87239074707031, -29.231542587280273, -37.21495819091797, 
501, 1221786557, 0.35816777, 0.76662517, -0.059707865, 0.5295635, 10.644929885864258, 1.7164084911346436, -1.8786641359329224, -78.07228088378906, -29.764127731323242, -35.74911880493164, 
502, 1221803224, 0.36480084, 0.76652384, -0.060548183, 0.52506787, 10.100937843322754, 1.0358974933624268, -2.302891969680786, -39.611717224121094, -25.46257972717285, -29.758636474609375, 
503, 1221819891, 0.3678756, 0.76745564, -0.059533566, 0.5216664, 9.317952156066895, 1.5285203456878662, -1.3215553760528564, -11.134844779968262, -20.251285552978516, -24.43685531616211, 
504, 1221836558, 0.3702486, 0.76837575, -0.058243375, 0.51877075, 8.522231101989746, 2.0836970806121826, -0.42150384187698364, -6.267343521118164, -17.131336212158203, -22.14061737060547, 
505, 1221853225, 0.37312207, 0.76911694, -0.057797708, 0.5156541, 7.957112789154053, 2.865384340286255, 0.020735258236527443, -12.463127136230469, -19.618122100830078, -19.995193481445312, 
506, 1221869892, 0.37613535, 0.7697834, -0.058282103, 0.51240575, 7.863567352294922, 3.442798137664795, 0.010968364775180817, -16.728239059448242, -22.39362144470215, -15.908987998962402, 
507, 1221886559, 0.37878478, 0.7704579, -0.059145167, 0.50933236, 8.02656078338623, 3.846329689025879, -0.34690847992897034, -16.025930404663086, -22.629764556884766, -12.196961402893066, 
508, 1221903226, 0.38143674, 0.770496, -0.06063794, 0.5071154, 8.07343578338623, 3.562147855758667, -0.7791779041290283, -19.539079666137695, -17.511470794677734, -6.400603771209717, 
509, 1221919893, 0.38414267, 0.7698591, -0.0627564, 0.50578046, 8.029454231262207, 3.0241847038269043, -0.7778556942939758, -23.40572166442871, -12.11215877532959, -0.7003424763679504, 
510, 1221936560, 0.3862302, 0.7691525, -0.0646461, 0.5050273, 8.002764701843262, 2.965641736984253, -0.6742337942123413, -19.258460998535156, -8.453521728515625, 1.7764675617218018, 
511, 1221953227, 0.3868652, 0.768891, -0.06571809, 0.5048008, 8.212199211120605, 3.0637035369873047, -0.969336211681366, -7.317538738250732, -5.6959333419799805, 3.6703460216522217, 
512, 1221969894, 0.38571468, 0.7691416, -0.06594922, 0.5052693, 8.542947769165039, 3.162747621536255, -1.2076683044433594, 6.708858013153076, -2.379228353500366, 7.01676082611084, 
513, 1221986561, 0.38292688, 0.7698497, -0.06549607, 0.50636876, 8.709463119506836, 3.273216962814331, -1.3085579872131348, 19.251976013183594, 0.43776655197143555, 10.525946617126465, 
514, 1222003228, 0.3787188, 0.77115124, -0.06446238, 0.507684, 8.835076332092285, 3.396050214767456, -1.4194635152816772, 30.438650131225586, 0.3920742869377136, 12.678481101989746, 
515, 1222019895, 0.3739282, 0.7726493, -0.06328785, 0.50910324, 8.853453636169434, 3.67039155960083, -1.405038833618164, 34.59696960449219, 0.37299320101737976, 14.124648094177246, 
516, 1222036562, 0.3691123, 0.7740002, -0.062303122, 0.51068485, 8.657516479492188, 4.076632022857666, -1.543036937713623, 33.7625732421875, 1.2462111711502075, 15.684836387634277, 
517, 1222053229, 0.364266, 0.77534986, -0.061841927, 0.51217115, 8.657648086547852, 4.362618923187256, -1.8856942653656006, 32.017940521240234, -0.6180373430252075, 18.333343505859375, 
518, 1222069896, 0.3593664, 0.77654624, -0.06180955, 0.51382077, 8.81214714050293, 4.651919841766357, -1.7658491134643555, 30.47493553161621, -0.3071233630180359, 21.275657653808594, 
519, 1222086563, 0.35512727, 0.7770485, -0.062476072, 0.51592433, 8.711965560913086, 4.916464805603027, -1.3744988441467285, 22.967927932739258, 3.121272087097168, 24.086170196533203, 
520, 1222103230, 0.35156077, 0.77715313, -0.063939124, 0.5180257, 8.518755912780762, 4.871011257171631, -1.4926222562789917, 15.560004234313965, 2.84552264213562, 26.127721786499023, 
521, 1222119897, 0.34819585, 0.77727115, -0.06604188, 0.5198544, 8.640079498291016, 4.5414018630981445, -1.4397557973861694, 12.185556411743164, -0.09242372214794159, 28.151103973388672, 
522, 1222136564, 0.3447748, 0.7773971, -0.06840056, 0.5216381, 8.82943344116211, 4.288830757141113, -1.3602235317230225, 11.5446138381958, -1.0195683240890503, 29.612749099731445, 
523, 1222153231, 0.34089744, 0.77772516, -0.07037478, 0.5234319, 8.95574951171875, 4.174267768859863, -1.5226160287857056, 15.857873916625977, -1.000781536102295, 29.117656707763672, 
524, 1222169898, 0.33684197, 0.77815986, -0.07196067, 0.5251925, 8.680159568786621, 4.173123836517334, -1.6917808055877686, 18.44847869873047, -0.7440645098686218, 27.547760009765625, 
525, 1222186565, 0.33265927, 0.7786595, -0.07353639, 0.52689683, 8.429181098937988, 4.220421314239502, -1.7080729007720947, 19.25250816345215, -1.3398313522338867, 27.797054290771484, 
526, 1222203232, 0.3284406, 0.77918106, -0.07548228, 0.52849495, 8.469108581542969, 4.388330936431885, -1.8660228252410889, 18.109760284423828, -2.854508876800537, 29.65469741821289, 
527, 1222219899, 0.32418507, 0.77975607, -0.077522896, 0.5299768, 8.504633903503418, 4.4701361656188965, -1.9431846141815186, 18.02106285095215, -3.909334421157837, 30.011585235595703, 
528, 1222236566, 0.3196179, 0.780619, -0.0791363, 0.5312408, 8.397956848144531, 4.480136871337891, -1.8366706371307373, 21.78792953491211, -5.338875770568848, 28.220205307006836, 
529, 1222253233, 0.31481978, 0.7815579, -0.080367, 0.5325389, 8.521939277648926, 4.598818302154541, -1.8941850662231445, 24.608373641967773, -4.723529815673828, 27.053728103637695, 
530, 1222269900, 0.3098433, 0.7824958, -0.08143026, 0.533917, 8.53541374206543, 4.9692535400390625, -1.8962827920913696, 26.226003646850586, -4.03011417388916, 26.98914909362793, 
531, 1222286567, 0.30591074, 0.7830323, -0.083122365, 0.5351359, 8.138558387756348, 5.041975021362305, -1.7441588640213013, 17.37249755859375, -4.168597221374512, 26.437992095947266, 
532, 1222303234, 0.30308905, 0.783326, -0.085102946, 0.53599966, 7.9506964683532715, 4.974860191345215, -1.6565806865692139, 9.646269798278809, -5.155425548553467, 23.307832717895508, 
533, 1222319901, 0.30163068, 0.78329307, -0.08739099, 0.53650206, 7.935365200042725, 4.940471172332764, -1.8647319078445435, 0.30422165989875793, -5.737802982330322, 19.389318466186523, 
534, 1222336568, 0.3009367, 0.78323793, -0.08978839, 0.53657633, 7.978070259094238, 4.754449367523193, -2.0513956546783447, -4.517316818237305, -7.731881141662598, 16.301328659057617, 
535, 1222353235, 0.30065998, 0.7833777, -0.0922503, 0.5361095, 8.119016647338867, 4.477508068084717, -2.103945732116699, -6.961668491363525, -11.250892639160156, 13.892428398132324, 
536, 1222369902, 0.30089897, 0.7835725, -0.09441878, 0.5353128, 8.149270057678223, 4.002756595611572, -1.8660963773727417, -8.794987678527832, -12.310770988464355, 9.715925216674805, 
537, 1222386569, 0.30199182, 0.78367203, -0.09649165, 0.53418094, 8.355424880981445, 3.454637289047241, -2.0791003704071045, -13.410981178283691, -12.99946117401123, 5.420711040496826, 
538, 1222403236, 0.30246985, 0.78403175, -0.0977922, 0.5331451, 8.631354331970215, 2.9932384490966797, -2.722256660461426, -6.65988302230835, -12.240228652954102, 3.5408623218536377, 
539, 1222419903, 0.300742, 0.7852154, -0.09804868, 0.5323328, 8.748068809509277, 2.772956609725952, -2.1867668628692627, 10.905342102050781, -13.365283966064453, 5.906647205352783, 
540, 1222436570, 0.29665646, 0.78699964, -0.096983686, 0.53218555, 8.604815483093262, 2.528371572494507, -1.7558379173278809, 30.1877498626709, -10.818257331848145, 8.354094505310059, 
541, 1222453237, 0.29155084, 0.7888476, -0.095799, 0.5324858, 8.3755521774292, 2.6302645206451416, -1.40469491481781, 36.549415588378906, -9.081904411315918, 12.307976722717285, 
542, 1222469904, 0.28655264, 0.790102, -0.09546824, 0.5333976, 8.022225379943848, 2.9695017337799072, -1.3911333084106445, 32.10468292236328, -5.2271928787231445, 18.143016815185547, 
543, 1222486571, 0.28177088, 0.79117024, -0.09603091, 0.5342602, 7.778388977050781, 3.2028582096099854, -1.6588481664657593, 27.241268157958984, -6.445887565612793, 22.232669830322266, 
544, 1222503238, 0.27674997, 0.7920821, -0.09653482, 0.5354415, 7.908746242523193, 3.598015785217285, -1.71195650100708, 28.683027267456055, -4.183931350708008, 23.512563705444336, 
545, 1222519905, 0.2717594, 0.7927327, -0.09705938, 0.5369378, 7.7903032302856445, 3.8788857460021973, -1.5964021682739258, 28.153888702392578, -1.5372815132141113, 24.295854568481445, 
546, 1222536572, 0.26768214, 0.793021, -0.09835595, 0.53832215, 7.741766452789307, 4.370036602020264, -1.3650338649749756, 19.554800033569336, -1.6570708751678467, 25.18511962890625, 
547, 1222553239, 0.26512918, 0.7927066, -0.10075124, 0.5396041, 7.498926639556885, 4.44834041595459, -1.2250434160232544, 6.0706658363342285, -0.9711591005325317, 25.754776000976562, 
548, 1222569906, 0.2639783, 0.7919869, -0.104024895, 0.5406031, 7.211863040924072, 3.9874908924102783, -1.252432942390442, -5.767762660980225, -1.652983546257019, 25.12689208984375, 
549, 1222586573, 0.26326013, 0.7911201, -0.10757879, 0.5415262, 7.3028740882873535, 3.469712018966675, -1.6129990816116333, -9.421182632446289, -1.714787483215332, 25.011154174804688, 
550, 1222603240, 0.26196408, 0.7902426, -0.11130171, 0.54268247, 7.509854793548584, 3.2755544185638428, -1.7996746301651, -6.765396595001221, -1.1513071060180664, 28.52570915222168, 
551, 1222619907, 0.25950968, 0.7896556, -0.11467784, 0.54401135, 8.094487190246582, 3.528407573699951, -1.9768623113632202, 1.4895565509796143, -1.5618165731430054, 31.057355880737305, 
552, 1222636574, 0.25572684, 0.78896844, -0.11685386, 0.54633176, 8.45376968383789, 4.13046932220459, -2.220949649810791, 13.785074234008789, 5.280778408050537, 31.371889114379883, 
553, 1222653241, 0.25151768, 0.7884006, -0.11860373, 0.548723, 7.9172139167785645, 3.9762275218963623, -2.1386213302612305, 17.956279754638672, 5.615346431732178, 30.71406364440918, 
554, 1222669908, 0.24708213, 0.7881665, -0.12041788, 0.55067617, 8.062938690185547, 3.778080463409424, -2.0185787677764893, 19.1651554107666, 1.6842797994613647, 30.905864715576172, 
555, 1222686575, 0.24250518, 0.78798753, -0.12235733, 0.55253637, 8.343050003051758, 3.83101749420166, -1.818359136581421, 19.516569137573242, 0.642849862575531, 31.923982620239258, 
556, 1222703242, 0.23755826, 0.7879382, -0.12337057, 0.5545266, 8.797320365905762, 3.8549304008483887, -1.8239167928695679, 25.35189437866211, 2.075260639190674, 28.443233489990234, 
557, 1222719909, 0.23284155, 0.788245, -0.1242394, 0.55589557, 10.761202812194824, 3.717005729675293, -1.9148108959197998, 24.72774314880371, -2.2238194942474365, 25.481464385986328, 
558, 1222736576, 0.22858135, 0.78876704, -0.12574644, 0.5565838, 13.13516616821289, 3.196399211883545, -3.136030673980713, 19.598974227905273, -7.377447128295898, 25.928075790405273, 
559, 1222753243, 0.22534494, 0.7890504, -0.12810475, 0.5569641, 13.214248657226562, 1.921867847442627, -2.7772340774536133, 10.149389266967773, -8.597223281860352, 26.348779678344727, 
560, 1222769910, 0.21936065, 0.79045194, -0.12760705, 0.55748, 11.59834098815918, 1.0532737970352173, -3.258228063583374, 37.845680236816406, -10.149857521057129, 20.588647842407227, 
561, 1222786577, 0.21075602, 0.79407376, -0.12403158, 0.55645823, 9.76971435546875, 4.341116428375244, -4.061659336090088, 65.87459564208984, -24.674198150634766, 9.625006675720215, 
562, 1222803244, 0.20917338, 0.79644054, -0.12441489, 0.5535797, 9.458888053894043, 4.627844333648682, -2.5323939323425293, 9.00273323059082, -29.742769241333008, 2.772257089614868, 
563, 1222819911, 0.21120442, 0.7978298, -0.12660487, 0.55030185, 10.84182071685791, 0.7110071778297424, -2.0907278060913086, -19.391338348388672, -27.716060638427734, -0.8076613545417786, 
564, 1222836578, 0.21248445, 0.7985906, -0.12796669, 0.54838747, 11.006322860717773, -0.5115513801574707, -1.5408738851547241, -11.857276916503906, -17.319793701171875, -0.01015545055270195, 
565, 1222853245, 0.2127291, 0.7986204, -0.13004941, 0.54775876, 10.817754745483398, 0.3584127724170685, -1.8731480836868286, -8.82446575164795, -9.485787391662598, 10.335149765014648, 
566, 1222869912, 0.21190402, 0.79895425, -0.13379383, 0.54668885, 14.266316413879395, 3.2449874877929688, -3.401587963104248, -9.149191856384277, -16.4543399810791, 22.539838790893555, 
567, 1222886579, 0.21229455, 0.79876983, -0.13723664, 0.545953, 16.417306900024414, 6.6112494468688965, -3.7220029830932617, -15.12763786315918, -11.125746726989746, 17.27054786682129, 
568, 1222903246, 0.22065748, 0.79656875, -0.14427842, 0.5440344, 10.64478588104248, 3.735888719558716, -2.340773582458496, -76.43761444091797, -7.795413494110107, 7.301148891448975, 
569, 1222919913, 0.23085055, 0.793577, -0.15361187, 0.5416159, 10.094075202941895, -1.2050248384475708, -3.5305542945861816, -96.70399475097656, -9.245152473449707, 13.026925086975098, 
570, 1222936580, 0.23618524, 0.79107785, -0.16193141, 0.5405471, 10.328391075134277, -2.3345556259155273, -4.5440192222595215, -64.24063110351562, -7.23189640045166, 27.16480827331543, 
571, 1222953247, 0.23918739, 0.78853166, -0.16841172, 0.54096717, 8.79896068572998, -1.1362595558166504, -4.548117637634277, -43.178627014160156, 1.4443968534469604, 28.251026153564453, 
572, 1222969914, 0.23949677, 0.78742236, -0.17224942, 0.54123765, 8.091434478759766, 0.3696456551551819, -3.6460819244384766, -16.606718063354492, -3.466829299926758, 22.003026962280273, 
573, 1222986581, 0.23644178, 0.78796977, -0.17302716, 0.5415358, 9.385207176208496, 1.2387794256210327, -2.8140718936920166, 15.735251426696777, -8.416400909423828, 16.030017852783203, 
574, 1223003248, 0.23168409, 0.7888508, -0.17187841, 0.5426743, 9.953319549560547, 0.6164073348045349, -2.3415307998657227, 33.653934478759766, -4.004397869110107, 12.902950286865234, 
575, 1223019915, 0.22676942, 0.789424, -0.17054705, 0.5443345, 9.695734024047852, -0.13232460618019104, -2.641105890274048, 35.33625793457031, 0.0737457424402237, 13.675745010375977, 
576, 1223036582, 0.22252859, 0.7897069, -0.16997665, 0.5458505, 9.581620216369629, 0.09076090902090073, -2.507611036300659, 28.197628021240234, -0.02429373376071453, 15.386162757873535, 
577, 1223053249, 0.21917117, 0.7895552, -0.170028, 0.5474105, 9.256672859191895, 0.6716547012329102, -2.8693227767944336, 20.446914672851562, 1.9203996658325195, 16.009708404541016, 
578, 1223069916, 0.21610527, 0.7892788, -0.17017096, 0.54898095, 8.92063045501709, 1.7303134202957153, -2.4736111164093018, 18.337749481201172, 2.6482369899749756, 15.566771507263184, 
579, 1223086583, 0.21331082, 0.7891187, -0.16985303, 0.5504008, 9.263813972473145, 2.8933560848236084, -2.5064780712127686, 18.60693359375, 2.392172336578369, 11.685602188110352, 
580, 1223103250, 0.21099186, 0.78913975, -0.1689057, 0.5515546, 9.340283393859863, 3.4955360889434814, -2.8062798976898193, 18.3743953704834, 1.7372093200683594, 5.886471748352051, 
581, 1223119917, 0.21005225, 0.78913087, -0.16847073, 0.55205864, 8.70344066619873, 2.925147771835327, -2.7079691886901855, 8.17093276977539, -0.8157774806022644, 2.546652317047119, 
582, 1223136584, 0.21057494, 0.7889665, -0.16926697, 0.5518511, 8.824910163879395, 2.0499205589294434, -3.0669970512390137, -5.474485397338867, -4.169018745422363, 2.8433241844177246, 
583, 1223153251, 0.21152392, 0.7886481, -0.17126782, 0.5513255, 9.121264457702637, 1.3572863340377808, -3.4074385166168213, -12.944939613342285, -6.549109935760498, 7.4826483726501465, 
584, 1223169918, 0.21213941, 0.7883856, -0.17378145, 0.5506777, 9.33825397491455, 1.0884844064712524, -3.0733768939971924, -13.159553527832031, -8.554755210876465, 11.28576946258545, 
585, 1223186585, 0.21279722, 0.78807026, -0.17694649, 0.5498665, 9.338776588439941, 1.101744294166565, -3.3438282012939453, -16.129465103149414, -10.13697624206543, 14.472607612609863, 
586, 1223203252, 0.21310449, 0.7878036, -0.18049821, 0.5489745, 9.05663013458252, 1.3491946458816528, -2.989799737930298, -15.723292350769043, -11.744540214538574, 17.711257934570312, 
587, 1223219919, 0.2128579, 0.7876603, -0.18356068, 0.54826003, 9.606147766113281, 2.251420021057129, -2.410627603530884, -10.48437213897705, -11.217537879943848, 17.255760192871094, 
588, 1223236586, 0.21358888, 0.78728634, -0.18710469, 0.54731417, 9.484553337097168, 2.0188663005828857, -2.3667187690734863, -18.216989517211914, -11.078468322753906, 16.135700225830078, 
589, 1223253253, 0.21482435, 0.78681475, -0.19074982, 0.5462493, 8.864185333251953, 1.6418052911758423, -2.4827687740325928, -21.608083724975586, -10.858148574829102, 14.733135223388672, 
590, 1223269920, 0.21607259, 0.7865472, -0.19379483, 0.5450694, 8.911622047424316, 2.094926357269287, -2.4513399600982666, -19.267295837402344, -11.344990730285645, 10.99831485748291, 
591, 1223286587, 0.21784286, 0.78639966, -0.19669275, 0.54353744, 9.218913078308105, 2.0729055404663086, -2.464313507080078, -21.824968338012695, -12.786774635314941, 7.567706108093262, 
592, 1223303254, 0.21965921, 0.78631675, -0.19936027, 0.54195213, 9.20302963256836, 1.6529754400253296, -2.381383180618286, -21.17207908630371, -12.909750938415527, 5.980174541473389, 
593, 1223319921, 0.22107784, 0.7862608, -0.20141338, 0.54069567, 9.683395385742188, 1.6721936464309692, -2.5491180419921875, -16.24028968811035, -10.853984832763672, 4.6002068519592285, 
594, 1223336588, 0.22217089, 0.7860953, -0.2030775, 0.5398653, 9.943119049072266, 1.487656593322754, -2.3113067150115967, -12.587564468383789, -8.003898620605469, 4.50075101852417, 
595, 1223353255, 0.22260927, 0.785933, -0.20408234, 0.5395423, 9.840996742248535, 1.0712852478027344, -2.305109739303589, -5.87546443939209, -5.186213493347168, 4.132884979248047, 
596, 1223369922, 0.22280551, 0.78576237, -0.204657, 0.5394916, 9.903298377990723, 1.145826816558838, -2.640040874481201, -2.606079578399658, -3.3719892501831055, 3.1318254470825195, 
597, 1223386589, 0.22318056, 0.7853701, -0.20523159, 0.5396896, 9.551249504089355, 1.325073480606079, -2.8437259197235107, -3.5292766094207764, -0.9564294815063477, 3.14843487739563, 
598, 1223403256, 0.2231055, 0.78511095, -0.20535715, 0.5400498, 9.075711250305176, 1.5559128522872925, -2.4769856929779053, 0.9657716751098633, -0.5219612717628479, 2.467316150665283, 
599, 1223419923, 0.2226379, 0.7851412, -0.20467481, 0.5404578, 9.324790000915527, 1.5345845222473145, -2.56796932220459, 6.640355110168457, -0.6530342102050781, -0.7809696793556213, 
600, 1223436590, 0.2224487, 0.7849123, -0.20415202, 0.5410658, 9.274469375610352, 1.2533645629882812, -3.034994602203369, 4.428852558135986, 1.5353726148605347, -0.2779874801635742, 
601, 1223453257, 0.22222663, 0.78467613, -0.20366812, 0.5416817, 9.176043510437012, 1.506703495979309, -2.876044511795044, 4.455105781555176, 1.5010772943496704, 0.07952103018760681, 
602, 1223469924, 0.22168168, 0.7846315, -0.2028378, 0.54228055, 8.871428489685059, 1.9579218626022339, -2.824122190475464, 7.771630764007568, 0.775700032711029, -0.8810898065567017, 
603, 1223486591, 0.22179331, 0.78475434, -0.20228648, 0.542263, 8.69392204284668, 1.752256989479065, -2.565905809402466, 2.5717265605926514, -2.681201696395874, -2.9850964546203613, 
604, 1223503258, 0.22219247, 0.7847498, -0.20191817, 0.5422434, 8.819225311279297, 1.1549423933029175, -3.20589017868042, 0.1850709766149521, -2.0925447940826416, -2.9004080295562744, 
605, 1223519925, 0.22251484, 0.78469527, -0.2017359, 0.54225826, 9.075016975402832, 1.485839605331421, -3.476771831512451, -0.12511803209781647, -2.1038269996643066, -1.4896728992462158, 
606, 1223536592, 0.22272427, 0.7847848, -0.20143753, 0.54215366, 8.795191764831543, 2.0228230953216553, -3.1696951389312744, 0.9465751051902771, -3.257128953933716, -2.0677647590637207, 
607, 1223553259, 0.22358973, 0.78500044, -0.201359, 0.5415139, 8.336077690124512, 2.6253082752227783, -2.9516077041625977, -3.9783828258514404, -6.03717041015625, -4.306750774383545, 
608, 1223569926, 0.22557232, 0.785448, -0.20196232, 0.5398152, 8.220490455627441, 2.230255365371704, -2.237708330154419, -13.685420989990234, -12.113337516784668, -6.713263988494873, 
609, 1223586593, 0.22850032, 0.785575, -0.20324214, 0.5379154, 8.713221549987793, 1.4651002883911133, -2.88582444190979, -22.023479461669922, -11.74169635772705, -6.446412086486816, 
610, 1223603260, 0.23075205, 0.785695, -0.2045191, 0.53629255, 9.31448745727539, 1.3383769989013672, -2.3538079261779785, -17.927165985107422, -11.151314735412598, -3.535621166229248, 
611, 1223619927, 0.23216192, 0.7857584, -0.205382, 0.5352604, 9.798709869384766, 1.3080226182937622, -2.79066801071167, -11.191232681274414, -8.285867691040039, -1.6310689449310303, 
612, 1223636594, 0.23184572, 0.7860134, -0.20513162, 0.5351192, 9.827792167663574, 1.5151118040084839, -2.7475602626800537, 3.8430895805358887, -4.835882663726807, -0.1617826223373413, 
613, 1223653261, 0.23043217, 0.78637797, -0.20405075, 0.5356069, 9.549681663513184, 1.5885556936264038, -2.1999666690826416, 13.89468765258789, -2.066075325012207, 0.2365526705980301, 
614, 1223669928, 0.22896661, 0.786399, -0.20267777, 0.5367249, 9.405406951904297, 1.7087438106536865, -2.047618865966797, 15.558070182800293, 2.9863088130950928, 0.34285831451416016, 
615, 1223686595, 0.228324, 0.786035, -0.20160694, 0.5379338, 9.209227561950684, 1.9026082754135132, -2.262080669403076, 9.588521003723145, 5.568324565887451, -0.3968433141708374, 
616, 1223703262, 0.22818734, 0.78540874, -0.20056982, 0.5392922, 9.171856880187988, 1.9501457214355469, -2.471013307571411, 6.536447048187256, 7.989315032958984, -1.4836547374725342, 
617, 1223719929, 0.22737409, 0.7849005, -0.19847609, 0.5411471, 8.981321334838867, 1.8002867698669434, -1.7752748727798462, 14.967934608459473, 10.954996109008789, -4.050474643707275, 
618, 1223736596, 0.2254748, 0.7845788, -0.19461805, 0.54380316, 8.872106552124023, 1.536536455154419, -2.1970627307891846, 28.799448013305664, 15.855700492858887, -8.528525352478027, 
619, 1223753263, 0.22263479, 0.7845713, -0.18918379, 0.54689306, 8.48244857788086, 1.4975637197494507, -2.064359426498413, 40.65446472167969, 18.188655853271484, -13.196005821228027, 
620, 1223769930, 0.22014633, 0.7846879, -0.1836166, 0.54962367, 8.424981117248535, 0.9990627765655518, -3.111576795578003, 39.31526184082031, 16.46893882751465, -16.033422470092773, 
621, 1223786597, 0.21760875, 0.78468037, -0.17857611, 0.55229956, 8.567448616027832, 1.017720341682434, -3.5513134002685547, 37.22264099121094, 15.786724090576172, -12.892696380615234, 
622, 1223803264, 0.21550198, 0.7843448, -0.17499822, 0.55474186, 8.556478500366211, 1.9649574756622314, -3.536419153213501, 28.50640869140625, 14.1199312210083, -6.561742305755615, 
623, 1223819931, 0.21414478, 0.78365654, -0.17268057, 0.5569619, 8.317448616027832, 3.3736395835876465, -3.24821400642395, 18.908414840698242, 13.31718921661377, -2.529323101043701, 
624, 1223836598, 0.21312699, 0.7831049, -0.17037472, 0.5588353, 7.826910018920898, 3.85585880279541, -2.618847608566284, 16.735904693603516, 11.313690185546875, -4.387205600738525, 
625, 1223853265, 0.21211989, 0.7827619, -0.16711996, 0.5606788, 7.4818115234375, 3.455268621444702, -2.535458564758301, 20.68741798400879, 11.76805591583252, -9.819457054138184, 
626, 1223869932, 0.21202797, 0.7823796, -0.16361676, 0.56227815, 7.6105122566223145, 3.0224955081939697, -2.113492012023926, 16.29230499267578, 12.020519256591797, -14.94321060180664, 
627, 1223886599, 0.21354698, 0.78161144, -0.1607389, 0.5636, 8.346243858337402, 2.5260848999023438, -2.539673089981079, 4.322182655334473, 12.922135353088379, -17.752819061279297, 
628, 1223903266, 0.21611032, 0.7803822, -0.15875725, 0.5648866, 8.692634582519531, 2.211538553237915, -2.77453351020813, -5.369852542877197, 14.37417221069336, -16.538698196411133, 
629, 1223919933, 0.21827143, 0.77905583, -0.15696265, 0.5663859, 8.280027389526367, 1.9773410558700562, -2.9021482467651367, -3.8947110176086426, 15.182378768920898, -13.529401779174805, 
630, 1223936600, 0.21912101, 0.77801394, -0.15432234, 0.5682127, 7.774937152862549, 1.9467617273330688, -2.569485902786255, 7.272373199462891, 15.701205253601074, -12.775175094604492, 
631, 1223953267, 0.21887538, 0.7772307, -0.15031472, 0.57044935, 8.274637222290039, 2.304687976837158, -2.461503505706787, 19.258079528808594, 17.787944793701172, -15.448477745056152, 
632, 1223969934, 0.21761602, 0.7763971, -0.14476652, 0.5734931, 9.044697761535645, 2.487326145172119, -2.2923290729522705, 31.67434310913086, 23.599489212036133, -18.469619750976562, 
633, 1223986601, 0.21617648, 0.77518564, -0.13852221, 0.57720643, 9.531981468200684, 3.097141981124878, -2.3065249919891357, 35.52040100097656, 29.537641525268555, -20.08757972717285, 
634, 1224003268, 0.2155661, 0.7734881, -0.13210492, 0.5812024, 9.919758796691895, 3.8687326908111572, -2.44451642036438, 31.16227149963379, 34.00675582885742, -23.354097366333008, 
635, 1224019935, 0.21656524, 0.77130175, -0.12576924, 0.58512896, 10.378669738769531, 4.608310699462891, -2.6792922019958496, 21.487380981445312, 36.94192123413086, -28.981630325317383, 
636, 1224036602, 0.21914464, 0.7688134, -0.11929158, 0.58878857, 11.1661958694458, 5.2643656730651855, -2.676117181777954, 13.016490936279297, 38.33389663696289, -36.19700241088867, 
637, 1224053269, 0.2233863, 0.7662905, -0.112757444, 0.59176356, 11.462677001953125, 6.056461811065674, -2.3109114170074463, 3.811373710632324, 36.31073760986328, -44.18333435058594, 
638, 1224069936, 0.22943765, 0.76390195, -0.105768055, 0.59382343, 11.108683586120605, 5.972055435180664, -1.6617649793624878, -4.231715679168701, 33.07962417602539, -55.43760299682617, 
639, 1224086603, 0.23763165, 0.7617502, -0.09834412, 0.59464014, 11.482137680053711, 5.430195331573486, -1.6826635599136353, -14.397557258605957, 27.812047958374023, -68.53761291503906, 
640, 1224103270, 0.2477586, 0.75961024, -0.09063342, 0.59446955, 11.832032203674316, 3.9782063961029053, -1.6639372110366821, -23.96770477294922, 24.385194778442383, -79.53988647460938, 
641, 1224119937, 0.25883552, 0.75781685, -0.08286171, 0.5931715, 11.360079765319824, 1.8994691371917725, -2.049290895462036, -28.68851661682129, 17.81496238708496, -85.88526916503906, 
642, 1224136604, 0.26923096, 0.7570121, -0.07459636, 0.5906635, 10.50016975402832, 0.19752061367034912, -2.37764048576355, -22.217559814453125, 7.954790115356445, -88.38549041748047, 
643, 1224153271, 0.27673042, 0.75814927, -0.065369174, 0.58682007, 10.120539665222168, 0.6138504147529602, -3.081618547439575, -0.20568805932998657, -6.523337364196777, -85.14714813232422, 
