sep=,
DeviceTag:,Pelvis - 7,,,,,,,,,,,,,,,,,
FirmwareVersion:,3.0.0,,,,,,,,,,,,,,,,,
AppVersion:,2023.6.1,,,,,,,,,,,,,,,,,
StartTime:,2024-05-25 15:19:41.000 +0200,,,,,,,,,,,,,,,,,
 2024,,,,,,,,,,,,,,,,,,,

PacketCounter,SampleTimeFine,Quat_W,Quat_X,Quat_Y,Quat_Z,Acc_X,Acc_Y,Acc_Z,Gyr_X,Gyr_Y,Gyr_Z,
0, 1213600725, 0.3028414, -0.5605935, -0.13539155, -0.7587431, 0.0, 0.0, 0.0, 0.0, 0.0, 0.0, 
1, 1213617392, 0.30240458, -0.560771, -0.1360054, -0.75867647, 9.352778434753418, -1.112180471420288, 3.377119302749634, 1.1674716472625732, -2.9549241065979004, 3.7071757316589355, 
2, 1213634059, 0.3019301, -0.5602147, -0.13809267, -0.75889933, 9.415704727172852, -1.0437285900115967, 3.3348400592803955, 2.6317243576049805, -2.1734812259674072, 3.0278377532958984, 
3, 1213650726, 0.30089164, -0.5596703, -0.140499, -0.7592716, 9.401962280273438, -1.004319429397583, 3.3868768215179443, 3.684675455093384, -0.644902229309082, 1.9667673110961914, 
4, 1213667393, 0.30035573, -0.55900025, -0.14295055, -0.7595199, 9.334632873535156, -0.9961355924606323, 3.365605354309082, 4.429146766662598, -1.1767371892929077, 1.189306616783142, 
5, 1213684060, 0.29990986, -0.55857193, -0.14478666, -0.7596633, 9.281046867370605, -0.9659031629562378, 3.346837043762207, 4.181330680847168, -2.160226345062256, 1.3717073202133179, 
6, 1213700727, 0.30000162, -0.558199, -0.14635895, -0.75959986, 9.320679664611816, -1.0139169692993164, 3.3204703330993652, 3.2422287464141846, -1.9481533765792847, 2.0630838871002197, 
7, 1213717394, 0.30012524, -0.5580083, -0.14740059, -0.7594897, 9.347267150878906, -1.0693200826644897, 3.3587465286254883, 3.30161190032959, -1.7325842380523682, 2.7172327041625977, 
8, 1213734061, 0.3005761, -0.55780184, -0.14819284, -0.759309, 9.358304023742676, -1.1254791021347046, 3.3453023433685303, 3.6515703201293945, -1.0755540132522583, 3.2084836959838867, 
9, 1213750728, 0.30098328, -0.5576277, -0.14860463, -0.75919515, 9.312057495117188, -1.1386080980300903, 3.338486433029175, 4.7654290199279785, -0.47476986050605774, 3.6345131397247314, 
10, 1213767395, 0.30181265, -0.5574829, -0.14921017, -0.75885326, 9.313028335571289, -1.0525233745574951, 3.2729833126068115, 5.805267333984375, -1.2031570672988892, 3.7391669750213623, 
11, 1213784062, 0.302444, -0.5575137, -0.14973518, -0.7584758, 9.385973930358887, -0.9764880537986755, 3.3146567344665527, 5.960305690765381, -2.138314723968506, 3.583127021789551, 
12, 1213800729, 0.30289552, -0.5575106, -0.15021388, -0.75820327, 9.38694953918457, -0.9294079542160034, 3.385634660720825, 5.675211429595947, -1.6118329763412476, 2.9939072132110596, 
13, 1213817396, 0.30343044, -0.557319, -0.15076107, -0.75802165, 9.304749488830566, -0.9173113703727722, 3.356374979019165, 5.338257312774658, -0.37685251235961914, 2.5765676498413086, 
14, 1213834063, 0.3037685, -0.55719674, -0.15115489, -0.7578976, 9.256776809692383, -0.9245885014533997, 3.340261697769165, 4.757283687591553, -0.6597703099250793, 2.638152837753296, 
15, 1213850730, 0.3040019, -0.5572751, -0.15151545, -0.7576745, 9.300691604614258, -0.9794521927833557, 3.333559513092041, 4.249294281005859, -2.241405725479126, 2.7738616466522217, 
16, 1213867397, 0.30425212, -0.5573825, -0.15176307, -0.7574453, 9.334136962890625, -1.0059165954589844, 3.3857030868530273, 3.687544107437134, -2.158395290374756, 3.1883909702301025, 
17, 1213884064, 0.30462176, -0.55736214, -0.15193519, -0.7572772, 9.3211030960083, -1.033459186553955, 3.3262276649475098, 3.1790807247161865, -0.961846649646759, 3.3838796615600586, 
18, 1213900731, 0.30495426, -0.55737585, -0.15207607, -0.757105, 9.319153785705566, -1.0343109369277954, 3.300487756729126, 2.782864809036255, -1.0857350826263428, 3.149138927459717, 
19, 1213917398, 0.30514443, -0.55747205, -0.15214336, -0.7569441, 9.327651023864746, -0.9986525177955627, 3.3132734298706055, 2.6793315410614014, -1.5148247480392456, 2.953310966491699, 
20, 1213934065, 0.30543378, -0.5575655, -0.152329, -0.75672126, 9.344862937927246, -0.9666416049003601, 3.338982105255127, 2.2883734703063965, -1.678080439567566, 2.5560903549194336, 
21, 1213950732, 0.30558214, -0.557639, -0.15241891, -0.7565889, 9.302122116088867, -0.9457792639732361, 3.3316867351531982, 2.058678150177002, -1.2743085622787476, 2.2707130908966064, 
22, 1213967399, 0.30555, -0.55780727, -0.15236776, -0.756488, 9.254027366638184, -0.9295871257781982, 3.3456904888153076, 1.435278058052063, -1.6725218296051025, 2.2752208709716797, 
23, 1213984066, 0.30545077, -0.55813473, -0.15228477, -0.75630337, 9.291670799255371, -0.965599536895752, 3.345720052719116, 0.2575165033340454, -2.8093931674957275, 2.2177846431732178, 
24, 1214000733, 0.30535457, -0.55844283, -0.15220888, -0.7561303, 9.309327125549316, -1.022291898727417, 3.356003761291504, -0.4540106952190399, -2.604926824569702, 1.8530595302581787, 
25, 1214017400, 0.30513358, -0.5587709, -0.1520449, -0.75601, 9.365331649780273, -1.0447814464569092, 3.371263265609741, -0.4661383330821991, -2.598036766052246, 1.7317641973495483, 
26, 1214034067, 0.3048391, -0.55907696, -0.15183552, -0.75594443, 9.436666488647461, -1.0508416891098022, 3.344865560531616, -0.5888102650642395, -2.321342945098877, 1.449819564819336, 
27, 1214050734, 0.30460364, -0.55929136, -0.15164258, -0.7559194, 9.423513412475586, -1.0349018573760986, 3.3175036907196045, -0.7191405892372131, -1.5747967958450317, 1.2379770278930664, 
28, 1214067401, 0.30439436, -0.55949557, -0.15140842, -0.7558996, 9.427066802978516, -1.0266917943954468, 3.3441054821014404, -0.8669387102127075, -1.35441255569458, 1.443871259689331, 
29, 1214084068, 0.30431083, -0.55965054, -0.1511064, -0.75587904, 9.400020599365234, -1.0309088230133057, 3.32904314994812, -1.286116123199463, -0.7453295588493347, 2.0482730865478516, 
30, 1214100735, 0.30425236, -0.55972815, -0.15069015, -0.7559283, 9.331881523132324, -1.0432676076889038, 3.2768876552581787, -1.46378493309021, 0.1693255603313446, 2.4394304752349854, 
31, 1214117402, 0.3040845, -0.5597517, -0.1501968, -0.7560765, 9.249378204345703, -1.0972448587417603, 3.2378313541412354, -1.2951319217681885, 0.7820709943771362, 2.209338903427124, 
32, 1214134069, 0.3040163, -0.5597994, -0.14989692, -0.7561283, 9.235140800476074, -1.126141905784607, 3.255885362625122, -0.5876385569572449, 0.09786611050367355, 1.886132001876831, 
33, 1214150736, 0.30391827, -0.55990106, -0.1496383, -0.75614357, 9.289064407348633, -1.0954322814941406, 3.211430549621582, -2.497238456271589E-4, -0.49611160159111023, 1.8316537141799927, 
34, 1214167403, 0.30390683, -0.5600714, -0.14947711, -0.7560537, 9.296202659606934, -1.1273678541183472, 3.2279298305511475, 0.2040948122739792, -1.259017825126648, 1.9440549612045288, 
35, 1214184070, 0.30382523, -0.56032395, -0.14928569, -0.75593734, 9.29041576385498, -1.1536955833435059, 3.2491090297698975, 0.5513837933540344, -1.883954644203186, 2.1071503162384033, 
36, 1214200737, 0.30371678, -0.5606145, -0.14912479, -0.75579727, 9.370606422424316, -1.1313990354537964, 3.3233964443206787, 0.8295634388923645, -2.2849602699279785, 1.9798041582107544, 
37, 1214217404, 0.30374864, -0.5607661, -0.14910488, -0.7556759, 9.390600204467773, -1.186213731765747, 3.3165340423583984, 1.6535749435424805, -1.56051766872406, 1.7012659311294556, 
38, 1214234071, 0.30387378, -0.5608913, -0.14917581, -0.7555186, 9.318391799926758, -1.2118862867355347, 3.3045899868011475, 2.696268320083618, -1.6720739603042603, 1.8774685859680176, 
39, 1214250738, 0.30410394, -0.5609935, -0.14927295, -0.75533104, 9.3095064163208, -1.1421618461608887, 3.2548601627349854, 3.4074177742004395, -1.6349354982376099, 2.3398802280426025, 
40, 1214267405, 0.3041903, -0.5611847, -0.14927363, -0.75515395, 9.319602966308594, -1.1321759223937988, 3.2778732776641846, 2.9675769805908203, -2.096482753753662, 2.2936043739318848, 
41, 1214284072, 0.3044314, -0.5612691, -0.14944483, -0.75496024, 9.320830345153809, -1.1505180597305298, 3.3062479496002197, 3.8640220165252686, -1.7026939392089844, 2.060042381286621, 
42, 1214300739, 0.30478993, -0.5612752, -0.14958826, -0.75478274, 9.308730125427246, -1.089229702949524, 3.3079679012298584, 3.913806915283203, -1.0131489038467407, 2.503174304962158, 
43, 1214317406, 0.30505508, -0.56142336, -0.14953358, -0.75457597, 9.303943634033203, -1.0649908781051636, 3.2764101028442383, 2.727003335952759, -1.613279938697815, 3.1539156436920166, 
44, 1214334073, 0.30528426, -0.5617387, -0.14957865, -0.7542396, 9.271345138549805, -1.1567704677581787, 3.269193172454834, 2.714792251586914, -3.210219144821167, 2.9731223583221436, 
45, 1214350740, 0.30550894, -0.5620393, -0.14972115, -0.75389636, 9.275080680847168, -1.1679861545562744, 3.348586320877075, 3.4042224884033203, -3.3931002616882324, 2.6113173961639404, 
46, 1214367407, 0.30569312, -0.5623038, -0.14986362, -0.75359637, 9.26685905456543, -1.0871480703353882, 3.355074167251587, 3.53275990486145, -3.1361024379730225, 2.3421921730041504, 
47, 1214384074, 0.30584982, -0.56261015, -0.15002818, -0.7532712, 9.306705474853516, -1.0242735147476196, 3.316829204559326, 3.1532115936279297, -3.510528087615967, 2.1030139923095703, 
48, 1214400741, 0.30588683, -0.5629358, -0.15015344, -0.7529879, 9.366423606872559, -0.9966221451759338, 3.3038806915283203, 2.6041650772094727, -3.5278806686401367, 1.6547276973724365, 
49, 1214417408, 0.30589, -0.5631492, -0.15023106, -0.75281155, 9.405492782592773, -0.9563171863555908, 3.2741963863372803, 2.0386106967926025, -2.4350759983062744, 1.241313099861145, 
50, 1214434075, 0.3058326, -0.5632451, -0.1501727, -0.7527745, 9.337607383728027, -0.8417781591415405, 3.3006467819213867, 1.6312217712402344, -1.1180263757705688, 1.2197281122207642, 
51, 1214450742, 0.30569053, -0.5634701, -0.14999135, -0.7527, 9.30383014678955, -0.7948543429374695, 3.296093463897705, 0.19790934026241302, -1.7413625717163086, 1.4419053792953491, 
52, 1214467409, 0.30552787, -0.5637856, -0.14974238, -0.7525796, 9.346635818481445, -0.8699262142181396, 3.2189369201660156, -0.22198526561260223, -2.2984580993652344, 1.8953717947006226, 
53, 1214484076, 0.30543384, -0.56410563, -0.14957377, -0.7524116, 9.42424488067627, -0.962286651134491, 3.219245433807373, 0.355145663022995, -2.583085298538208, 2.031906843185425, 
54, 1214500743, 0.30529067, -0.56452894, -0.14940827, -0.752185, 9.445775985717773, -0.97361159324646, 3.323577642440796, -0.023525267839431763, -3.3875491619110107, 1.9973876476287842, 
55, 1214517410, 0.30518174, -0.56483364, -0.14918296, -0.7520449, 9.474282264709473, -0.9716177582740784, 3.329357862472534, -0.05264690890908241, -2.286330461502075, 2.1145524978637695, 
56, 1214534077, 0.30506724, -0.5649749, -0.14891851, -0.7520377, 9.440561294555664, -1.0126441717147827, 3.3153815269470215, 0.1340184360742569, -0.8852132558822632, 1.877538800239563, 
57, 1214550744, 0.3049571, -0.56500846, -0.14874268, -0.752092, 9.360918045043945, -1.0927743911743164, 3.291408061981201, 0.5858136415481567, -0.25581324100494385, 1.262578010559082, 
58, 1214567411, 0.30492398, -0.5650659, -0.14869717, -0.75207126, 9.255990028381348, -1.0659700632095337, 3.2620842456817627, 1.3982739448547363, -0.8506168127059937, 1.2681231498718262, 
59, 1214584078, 0.30495125, -0.5652259, -0.14867115, -0.7519452, 9.237077713012695, -1.0566552877426147, 3.291353940963745, 1.8404898643493652, -1.804689884185791, 1.8986948728561401, 
60, 1214600745, 0.30504623, -0.5654101, -0.14863905, -0.75177443, 9.308090209960938, -1.0841033458709717, 3.29463529586792, 1.9413526058197021, -2.018709659576416, 2.3461873531341553, 
61, 1214617412, 0.30522078, -0.5655157, -0.14861001, -0.7516298, 9.293447494506836, -1.1090474128723145, 3.3201863765716553, 2.400672197341919, -1.4470921754837036, 2.6053946018218994, 
62, 1214634079, 0.30546242, -0.5655497, -0.14859758, -0.7515085, 9.30642318725586, -1.0730602741241455, 3.3451600074768066, 2.8320541381835938, -0.9615905284881592, 2.744945526123047, 
63, 1214650746, 0.30565956, -0.56568706, -0.1485607, -0.7513322, 9.3916597366333, -1.0665292739868164, 3.281421184539795, 2.391784191131592, -1.7222235202789307, 2.8372914791107178, 
64, 1214667413, 0.30586964, -0.5658007, -0.14853665, -0.751166, 9.451519012451172, -1.0497864484786987, 3.320783853530884, 2.5807480812072754, -1.5831527709960938, 2.8218789100646973, 
65, 1214684080, 0.3060916, -0.5657552, -0.1485124, -0.7511147, 9.449782371520996, -0.9828296899795532, 3.3905797004699707, 2.7879104614257812, -0.30044981837272644, 2.468404769897461, 
66, 1214700747, 0.30626932, -0.5655846, -0.14842848, -0.7511873, 9.336113929748535, -0.9406020045280457, 3.26851749420166, 2.4553420543670654, 0.8914178609848022, 2.1044352054595947, 
67, 1214717414, 0.3064109, -0.56553084, -0.14839716, -0.75117624, 9.251965522766113, -0.9118673205375671, 3.287222385406494, 2.4435153007507324, -0.19305571913719177, 2.035236358642578, 
68, 1214734081, 0.30649546, -0.5656423, -0.1483863, -0.75106007, 9.282052040100098, -0.947432279586792, 3.4058034420013428, 2.0762228965759277, -1.5625540018081665, 2.0673227310180664, 
69, 1214750748, 0.30658484, -0.56572855, -0.14830816, -0.75097394, 9.265847206115723, -0.9762598872184753, 3.4253063201904297, 1.7562370300292969, -1.1899338960647583, 2.27650785446167, 
70, 1214767415, 0.30673882, -0.56573623, -0.14814574, -0.7509372, 9.204920768737793, -1.0017220973968506, 3.4119794368743896, 1.6376761198043823, -0.36453914642333984, 2.750112295150757, 
71, 1214784082, 0.3068285, -0.5659356, -0.14798665, -0.75078183, 9.232043266296387, -1.0012835264205933, 3.405304193496704, 1.2522945404052734, -1.9308323860168457, 2.9027254581451416, 
72, 1214800749, 0.30692026, -0.566223, -0.14789324, -0.7505459, 9.327563285827637, -1.0322397947311401, 3.4237167835235596, 1.4415020942687988, -2.848273277282715, 2.9059720039367676, 
73, 1214817416, 0.3070289, -0.56643593, -0.14777747, -0.7503635, 9.38211727142334, -1.0263185501098633, 3.444195508956909, 1.542736291885376, -2.217471122741699, 2.91534686088562, 
74, 1214834083, 0.30711937, -0.56656206, -0.14763024, -0.75026035, 9.36412525177002, -1.0195177793502808, 3.401247978210449, 1.425225019454956, -1.432607889175415, 2.70031476020813, 
75, 1214850750, 0.30720615, -0.56662726, -0.14751688, -0.75019807, 9.322861671447754, -1.0196971893310547, 3.4042930603027344, 1.52390456199646, -1.0300467014312744, 2.3616831302642822, 
76, 1214867417, 0.3072346, -0.5666892, -0.14745438, -0.7501515, 9.32358455657959, -1.0098685026168823, 3.412921905517578, 1.7057034969329834, -1.1560356616973877, 1.8871564865112305, 
77, 1214884084, 0.30720332, -0.56674373, -0.14734395, -0.750145, 9.315089225769043, -0.9783133864402771, 3.4159677028656006, 1.0701626539230347, -0.9200530648231506, 1.640800952911377, 
78, 1214900751, 0.30715573, -0.5668045, -0.14718205, -0.7501504, 9.311230659484863, -0.9627741575241089, 3.3928492069244385, 0.6692726612091064, -0.8243895173072815, 1.737040400505066, 
79, 1214917418, 0.30701435, -0.56689835, -0.14688675, -0.7501952, 9.315936088562012, -0.953007161617279, 3.4156017303466797, -0.4172500669956207, -0.6789478659629822, 1.7635879516601562, 
80, 1214934085, 0.30684248, -0.5670015, -0.14650509, -0.7502621, 9.314058303833008, -0.9988842010498047, 3.3964157104492188, -1.1399701833724976, -0.49096983671188354, 1.8826680183410645, 
81, 1214950752, 0.30663294, -0.5671106, -0.14614864, -0.750335, 9.321379661560059, -1.0874601602554321, 3.3943333625793457, -1.031551480293274, -0.6231825947761536, 1.6432850360870361, 
82, 1214967419, 0.30641356, -0.56716895, -0.14592129, -0.7504246, 9.358855247497559, -1.1642117500305176, 3.395143508911133, -0.4490482807159424, -0.5732570290565491, 0.9603481888771057, 
83, 1214984086, 0.30624756, -0.56715494, -0.14582336, -0.7505221, 9.352889060974121, -1.1827694177627563, 3.39809513092041, 0.5273910760879517, -0.3929179906845093, 0.6238484978675842, 
84, 1215000753, 0.3061856, -0.567076, -0.14573826, -0.7506235, 9.293129920959473, -1.1370019912719727, 3.427840232849121, 1.2063581943511963, 0.013651569373905659, 1.0556402206420898, 
85, 1215017420, 0.30619377, -0.5670297, -0.14556058, -0.7506896, 9.243109703063965, -1.1249949932098389, 3.4294209480285645, 0.9283258318901062, -0.036549318581819534, 1.872422695159912, 
86, 1215034087, 0.306209, -0.5670194, -0.14531258, -0.7507393, 9.187610626220703, -1.1205652952194214, 3.443985939025879, 0.6627799272537231, -0.16713567078113556, 2.2971131801605225, 
87, 1215050754, 0.30622402, -0.5671182, -0.14511228, -0.75069714, 9.198729515075684, -1.0857090950012207, 3.3822851181030273, 0.8132928609848022, -1.214394211769104, 2.427110433578491, 
88, 1215067421, 0.30627355, -0.5672692, -0.14494699, -0.75059485, 9.236884117126465, -1.0258610248565674, 3.370727777481079, 0.8690388798713684, -1.7424575090408325, 2.5808379650115967, 
89, 1215084088, 0.30623987, -0.567507, -0.14475605, -0.7504656, 9.266599655151367, -0.9896406531333923, 3.346731185913086, 0.34808939695358276, -2.348217010498047, 2.435818910598755, 
90, 1215100755, 0.30609956, -0.5677381, -0.14451349, -0.75039476, 9.308048248291016, -1.0155565738677979, 3.359132766723633, -0.4468775987625122, -2.0831832885742188, 1.947448968887329, 
91, 1215117422, 0.3059156, -0.5678691, -0.14428686, -0.7504142, 9.349059104919434, -1.0628739595413208, 3.4058284759521484, -0.45697537064552307, -1.2954967021942139, 1.3677308559417725, 
92, 1215134089, 0.30572665, -0.56800735, -0.14407589, -0.75042725, 9.324322700500488, -1.076148271560669, 3.347602367401123, -0.36704912781715393, -1.4124442338943481, 1.323472023010254, 
93, 1215150756, 0.30554536, -0.56820095, -0.14383243, -0.75040126, 9.23226547241211, -1.1010600328445435, 3.367642879486084, -0.6304694414138794, -1.7759588956832886, 1.6176916360855103, 
94, 1215167423, 0.3053404, -0.5684764, -0.14362364, -0.7503162, 9.239158630371094, -1.0999637842178345, 3.3662397861480713, -0.6029229760169983, -2.5445706844329834, 1.5861880779266357, 
95, 1215184090, 0.30516, -0.5687156, -0.14346395, -0.75023884, 9.26913070678711, -1.1253355741500854, 3.381171941757202, -0.1895531713962555, -2.4187800884246826, 1.4729735851287842, 
96, 1215200757, 0.30501968, -0.5689109, -0.1433057, -0.75017786, 9.27476978302002, -1.0810489654541016, 3.3747332096099854, 0.05425409600138664, -2.105184555053711, 1.600172519683838, 
97, 1215217424, 0.30483145, -0.5692568, -0.14312312, -0.75002694, 9.251675605773926, -1.0622215270996094, 3.3877346515655518, -0.42976826429367065, -3.250328302383423, 1.810510516166687, 
98, 1215234091, 0.30461314, -0.5696976, -0.14293374, -0.7498172, 9.252126693725586, -1.063762903213501, 3.4200785160064697, -0.7367684841156006, -3.999211549758911, 1.9015378952026367, 
99, 1215250758, 0.3044002, -0.57016474, -0.14280668, -0.74957275, 9.322134971618652, -1.127367377281189, 3.4160845279693604, -0.6043893694877625, -4.385554313659668, 1.7292671203613281, 
100, 1215267425, 0.30421433, -0.5705714, -0.14270936, -0.74935704, 9.350934028625488, -1.1747232675552368, 3.4346938133239746, -0.1800893098115921, -4.024184226989746, 1.6588321924209595, 
101, 1215284092, 0.30408153, -0.57090336, -0.14263746, -0.7491718, 9.341468811035156, -1.1499533653259277, 3.4254870414733887, 0.3495621383190155, -3.546097755432129, 1.7167553901672363, 
102, 1215300759, 0.30395177, -0.57121825, -0.1425328, -0.7490044, 9.279787063598633, -1.1255813837051392, 3.334909200668335, 0.31401175260543823, -3.348489761352539, 1.8445500135421753, 
103, 1215317426, 0.3038073, -0.57163763, -0.14244992, -0.74875885, 9.23466968536377, -1.1795545816421509, 3.3082427978515625, 0.1346331685781479, -4.253354549407959, 1.9219516515731812, 
104, 1215334093, 0.30368403, -0.572147, -0.14246689, -0.7484165, 9.258127212524414, -1.2820501327514648, 3.3563268184661865, 0.6371031999588013, -5.29716157913208, 1.9285980463027954, 
105, 1215350760, 0.30365342, -0.5725542, -0.14256337, -0.748099, 9.293755531311035, -1.374674916267395, 3.3214361667633057, 1.6398659944534302, -4.768182277679443, 1.9444652795791626, 
106, 1215367427, 0.30378237, -0.5728018, -0.14274873, -0.74782175, 9.291348457336426, -1.3589472770690918, 3.316671133041382, 2.940645456314087, -3.8195388317108154, 2.1362786293029785, 
107, 1215384094, 0.30404216, -0.57302547, -0.14298637, -0.74749935, 9.24077320098877, -1.2925658226013184, 3.286499261856079, 3.835892677307129, -3.8687472343444824, 2.6667497158050537, 
108, 1215400761, 0.30433202, -0.57336974, -0.14319725, -0.7470768, 9.23643970489502, -1.2395495176315308, 3.2198524475097656, 3.7533178329467773, -4.823974132537842, 3.2780232429504395, 
109, 1215417428, 0.30470487, -0.57385415, -0.14341928, -0.7465101, 9.280496597290039, -1.19623863697052, 3.206453800201416, 3.873288154602051, -6.045213222503662, 4.060542583465576, 
110, 1215434095, 0.30512142, -0.57441306, -0.14359741, -0.7458756, 9.400912284851074, -1.121288776397705, 3.2318029403686523, 3.740460157394409, -6.569569110870361, 4.677116394042969, 
111, 1215450762, 0.3055133, -0.5749364, -0.14371592, -0.745289, 9.463327407836914, -1.0704742670059204, 3.23370361328125, 3.2434136867523193, -6.086436748504639, 4.621338844299316, 
112, 1215467429, 0.3057497, -0.57535267, -0.14376561, -0.74486107, 9.454259872436523, -1.0912704467773438, 3.218100070953369, 2.534492254257202, -4.956909656524658, 3.7313990592956543, 
113, 1215484096, 0.30593202, -0.57564765, -0.14380956, -0.74454975, 9.427275657653809, -1.0891165733337402, 3.2009527683258057, 2.276841163635254, -3.901787519454956, 3.0758676528930664, 
114, 1215500763, 0.3060885, -0.5758567, -0.14382982, -0.74431974, 9.477263450622559, -1.084875464439392, 3.1910083293914795, 2.251497507095337, -3.137600898742676, 2.826528310775757, 
115, 1215517430, 0.306196, -0.57600105, -0.14377487, -0.7441746, 9.461652755737305, -1.0668575763702393, 3.158252000808716, 1.7445452213287354, -2.3711535930633545, 2.6520161628723145, 
116, 1215534097, 0.3062703, -0.5761255, -0.1436325, -0.7440752, 9.411378860473633, -1.0526440143585205, 3.1854615211486816, 1.052970051765442, -1.9256268739700317, 2.694411277770996, 
117, 1215550764, 0.30630463, -0.5762378, -0.14343254, -0.7440127, 9.337827682495117, -1.0833866596221924, 3.1856696605682373, 0.5901870131492615, -1.643899917602539, 2.644991397857666, 
118, 1215567431, 0.30629447, -0.57638854, -0.14324336, -0.7439364, 9.301807403564453, -1.1579951047897339, 3.1935887336730957, 0.4289870858192444, -1.9767752885818481, 2.464351177215576, 
119, 1215584098, 0.30629182, -0.57654786, -0.14310354, -0.74384093, 9.333399772644043, -1.2052583694458008, 3.184391975402832, 0.8358832001686096, -2.2236883640289307, 2.4029834270477295, 
120, 1215600765, 0.30631894, -0.57668835, -0.14299946, -0.74374086, 9.399261474609375, -1.2025961875915527, 3.185628652572632, 1.0861386060714722, -2.1883745193481445, 2.3802073001861572, 
121, 1215617432, 0.30638146, -0.576783, -0.1428776, -0.74366516, 9.435572624206543, -1.167269229888916, 3.175729274749756, 1.2293903827667236, -1.7969996929168701, 2.549046277999878, 
122, 1215634099, 0.30643284, -0.5768601, -0.14271937, -0.74361455, 9.415387153625488, -1.1373686790466309, 3.173041343688965, 1.0468230247497559, -1.5545755624771118, 2.586543083190918, 
123, 1215650766, 0.3065023, -0.57689494, -0.14255272, -0.74359083, 9.379291534423828, -1.124925136566162, 3.204282760620117, 1.08696448802948, -1.1975795030593872, 2.610408067703247, 
124, 1215667433, 0.30659106, -0.57684815, -0.14241053, -0.74361795, 9.357120513916016, -1.1504981517791748, 3.172893762588501, 1.2722469568252563, -0.6020969748497009, 2.3955559730529785, 
125, 1215684100, 0.3066273, -0.5768213, -0.14231998, -0.743641, 9.329141616821289, -1.1550137996673584, 3.1402201652526855, 1.504387378692627, -0.9220634698867798, 2.0276803970336914, 
126, 1215700767, 0.3066578, -0.57683784, -0.14230308, -0.74361885, 9.31175708770752, -1.1655501127243042, 3.167775869369507, 1.805234432220459, -1.4907423257827759, 1.854231595993042, 
127, 1215717434, 0.30671772, -0.57681763, -0.1423205, -0.7436065, 9.345688819885254, -1.1725703477859497, 3.209066867828369, 2.0828568935394287, -1.3030718564987183, 1.7944066524505615, 
128, 1215734101, 0.30683503, -0.57673705, -0.1423504, -0.7436148, 9.332118034362793, -1.1880298852920532, 3.2077810764312744, 2.5471251010894775, -0.9055112600326538, 1.9678682088851929, 
129, 1215750768, 0.307033, -0.5766463, -0.14238589, -0.743597, 9.34079647064209, -1.1654279232025146, 3.191304922103882, 2.818479299545288, -0.8813458681106567, 2.372856855392456, 
130, 1215767435, 0.30719736, -0.5766701, -0.1423847, -0.74351066, 9.310943603515625, -1.1376004219055176, 3.177198886871338, 2.213942527770996, -1.6876335144042969, 2.5796148777008057, 
131, 1215784102, 0.3073084, -0.57674456, -0.14241524, -0.7434013, 9.326542854309082, -1.1665788888931274, 3.2143394947052, 2.28861665725708, -2.1979668140411377, 2.3559653759002686, 
132, 1215800769, 0.30747578, -0.5767591, -0.14252792, -0.74329907, 9.374979972839355, -1.166632056236267, 3.2589287757873535, 2.974428415298462, -1.9815200567245483, 2.2302000522613525, 
133, 1215817436, 0.30768538, -0.57669026, -0.1426773, -0.7432371, 9.416707992553711, -1.177353858947754, 3.218613386154175, 3.5086066722869873, -1.4522464275360107, 2.1583821773529053, 
134, 1215834103, 0.30786446, -0.57659334, -0.1427945, -0.74321574, 9.442741394042969, -1.1423767805099487, 3.1779251098632812, 3.2954204082489014, -1.126958966255188, 2.0436761379241943, 
135, 1215850770, 0.30804747, -0.5764419, -0.14290987, -0.74323523, 9.460097312927246, -1.1398612260818481, 3.216322660446167, 3.305466651916504, -0.6738702654838562, 1.9220092296600342, 
136, 1215867437, 0.3082864, -0.57613087, -0.14298305, -0.7433632, 9.396474838256836, -1.1244841814041138, 3.2038795948028564, 3.569974660873413, 0.7036192417144775, 2.010788917541504, 
137, 1215884104, 0.3084967, -0.57585543, -0.14303523, -0.7434793, 9.291403770446777, -1.126530647277832, 3.2111809253692627, 3.2638139724731445, 0.48601385951042175, 2.0166032314300537, 
138, 1215900771, 0.30865034, -0.5757032, -0.14310186, -0.7435205, 9.272047996520996, -1.1488415002822876, 3.2589967250823975, 3.077634811401367, -0.5613855719566345, 2.0105202198028564, 
139, 1215917438, 0.3088265, -0.57556176, -0.14325643, -0.7435272, 9.325218200683594, -1.2035877704620361, 3.2840192317962646, 3.4901535511016846, -0.9103716015815735, 1.8294258117675781, 
140, 1215934105, 0.30907336, -0.5753472, -0.1434461, -0.74355406, 9.337159156799316, -1.2086174488067627, 3.300264835357666, 4.0693464279174805, -0.47184357047080994, 1.9394066333770752, 
141, 1215950772, 0.30936116, -0.57509655, -0.14362317, -0.743594, 9.312080383300781, -1.1717908382415771, 3.2910141944885254, 4.181709289550781, -0.17558147013187408, 2.128607749938965, 
142, 1215967439, 0.30964747, -0.5748774, -0.14378066, -0.74361396, 9.287918090820312, -1.1446497440338135, 3.307177782058716, 3.975219249725342, -0.3804958760738373, 2.2647392749786377, 
143, 1215984106, 0.30991507, -0.5746445, -0.14393075, -0.74365336, 9.328642845153809, -1.1571626663208008, 3.3547792434692383, 4.005135536193848, -0.2694648504257202, 2.1964428424835205, 
144, 1216000773, 0.31020954, -0.5743471, -0.1440981, -0.74372804, 9.334794044494629, -1.164503812789917, 3.305238962173462, 4.279550075531006, 0.17584402859210968, 2.131053924560547, 
145, 1216017440, 0.31050867, -0.5740139, -0.14428554, -0.7438242, 9.32953929901123, -1.1209933757781982, 3.2760653495788574, 4.441370010375977, 0.39558812975883484, 2.0001213550567627, 
146, 1216034107, 0.31075272, -0.57377434, -0.14444087, -0.74387676, 9.298399925231934, -1.0754504203796387, 3.276601791381836, 4.0097198486328125, -0.26764634251594543, 2.0781633853912354, 
147, 1216050774, 0.31095946, -0.5735766, -0.1445169, -0.7439281, 9.28510856628418, -1.0513274669647217, 3.3035991191864014, 3.1967978477478027, -0.3390801250934601, 2.2056632041931152, 
148, 1216067441, 0.31107277, -0.57345504, -0.1445038, -0.74397695, 9.30148983001709, -1.0719637870788574, 3.3140716552734375, 2.545095443725586, -0.7019223570823669, 2.2826292514801025, 
149, 1216084108, 0.31116468, -0.5733353, -0.14450958, -0.7440297, 9.336959838867188, -1.126053810119629, 3.2881128787994385, 2.3268368244171143, -0.7379721999168396, 2.0352492332458496, 
150, 1216100775, 0.31124875, -0.5731602, -0.14454411, -0.74412274, 9.353569030761719, -1.1300761699676514, 3.3155927658081055, 2.4802441596984863, -0.3678944408893585, 1.7393457889556885, 
151, 1216117442, 0.3113042, -0.57297313, -0.14457399, -0.7442378, 9.314470291137695, -1.1061005592346191, 3.32773756980896, 2.453709363937378, -0.2654436230659485, 1.598219633102417, 
152, 1216134109, 0.3112995, -0.5728253, -0.14452964, -0.74436224, 9.296489715576172, -1.0914840698242188, 3.312945604324341, 1.5965805053710938, -0.3207414448261261, 1.565986156463623, 
153, 1216150776, 0.3112919, -0.5726748, -0.14446671, -0.7444933, 9.315407752990723, -1.117595911026001, 3.31758975982666, 1.472883939743042, -0.25251561403274536, 1.6148680448532104, 
154, 1216167443, 0.31128708, -0.5725129, -0.14443193, -0.74462676, 9.29316520690918, -1.145348310470581, 3.292572498321533, 1.8381080627441406, -0.28100332617759705, 1.5732473134994507, 
155, 1216184110, 0.31132063, -0.57236665, -0.14445111, -0.7447214, 9.306259155273438, -1.112537145614624, 3.3085153102874756, 2.1412858963012695, -0.5804542303085327, 1.6233328580856323, 
156, 1216200777, 0.31131136, -0.57229084, -0.14444731, -0.74478424, 9.312643051147461, -1.0922671556472778, 3.3322396278381348, 1.8256733417510986, -1.0834619998931885, 1.6721123456954956, 
157, 1216217444, 0.31127164, -0.57219803, -0.14443585, -0.7448744, 9.317328453063965, -1.1244206428527832, 3.3551840782165527, 1.7279865741729736, -0.9196496605873108, 1.4997389316558838, 
158, 1216234111, 0.31127095, -0.57207316, -0.14444858, -0.7449682, 9.31624984741211, -1.1029988527297974, 3.3498001098632812, 2.0015811920166016, -0.755696177482605, 1.5521296262741089, 
159, 1216250778, 0.31126744, -0.57199955, -0.14442678, -0.7450303, 9.303971290588379, -1.0843126773834229, 3.408026933670044, 1.6305557489395142, -1.0675820112228394, 1.7697478532791138, 
160, 1216267445, 0.3112131, -0.5719289, -0.14436549, -0.745119, 9.257451057434082, -1.095210075378418, 3.368833065032959, 1.4029868841171265, -0.9893224835395813, 1.6890552043914795, 
161, 1216284112, 0.31119797, -0.57184833, -0.14436081, -0.7451882, 9.22858715057373, -1.1379529237747192, 3.3647677898406982, 1.6899645328521729, -1.081886887550354, 1.6456159353256226, 
162, 1216300779, 0.31118488, -0.5718138, -0.14443241, -0.74520624, 9.231986045837402, -1.1619166135787964, 3.3909683227539062, 2.1673851013183594, -1.7101280689239502, 1.559403657913208, 
163, 1216317446, 0.31123182, -0.5717741, -0.14454274, -0.7451956, 9.232868194580078, -1.1684147119522095, 3.3892343044281006, 2.740610361099243, -1.8488720655441284, 1.8091660737991333, 
164, 1216334113, 0.3113653, -0.5717308, -0.14465259, -0.74515194, 9.22754192352295, -1.1079427003860474, 3.3416810035705566, 3.0237197875976562, -1.8706426620483398, 2.2955636978149414, 
165, 1216350780, 0.31146228, -0.5718212, -0.14476372, -0.7450204, 9.21845531463623, -1.1001553535461426, 3.3369762897491455, 2.7167906761169434, -2.9562244415283203, 2.442427158355713, 
166, 1216367447, 0.3114954, -0.57207155, -0.1449493, -0.74477816, 9.260564804077148, -1.1347521543502808, 3.3668174743652344, 2.6819252967834473, -4.453139781951904, 2.248648166656494, 
167, 1216384114, 0.31155002, -0.57230437, -0.14517845, -0.74453187, 9.367006301879883, -1.1351280212402344, 3.4017574787139893, 2.793673515319824, -4.427117347717285, 2.1074068546295166, 
168, 1216400781, 0.31164587, -0.57241243, -0.1453362, -0.7443779, 9.383089065551758, -1.0733990669250488, 3.4179084300994873, 2.917581081390381, -3.265049457550049, 2.332458972930908, 
169, 1216417448, 0.31170434, -0.5725056, -0.14541908, -0.7442655, 9.331551551818848, -1.0363337993621826, 3.4290032386779785, 2.3830952644348145, -2.916166067123413, 2.3458290100097656, 
170, 1216434115, 0.31175184, -0.57253194, -0.14550988, -0.74420774, 9.255455017089844, -1.0525164604187012, 3.435399055480957, 2.3860795497894287, -2.3892874717712402, 2.06070876121521, 
171, 1216450782, 0.3117033, -0.5726151, -0.14564751, -0.74413705, 9.232932090759277, -1.0622516870498657, 3.431837320327759, 2.4126136302948, -2.983808994293213, 1.569251537322998, 
172, 1216467449, 0.31164253, -0.5728041, -0.14586753, -0.743974, 9.229225158691406, -1.068878412246704, 3.4491260051727295, 2.398149013519287, -4.055629730224609, 1.4140194654464722, 
173, 1216484116, 0.31157148, -0.5730226, -0.14607039, -0.74379545, 9.272953987121582, -1.0369641780853271, 3.4281885623931885, 2.4754676818847656, -4.294847011566162, 1.581750750541687, 
174, 1216500783, 0.31150106, -0.57321316, -0.14617783, -0.7436572, 9.34508228302002, -1.064941644668579, 3.421931266784668, 1.853091835975647, -3.7812607288360596, 1.806527853012085, 
175, 1216517450, 0.31141716, -0.5733206, -0.14624605, -0.7435962, 9.372929573059082, -1.1124745607376099, 3.4203715324401855, 1.772552728652954, -3.0056443214416504, 1.676774024963379, 
176, 1216534117, 0.3114057, -0.573364, -0.14632288, -0.7435523, 9.322473526000977, -1.1219054460525513, 3.3925833702087402, 2.107182502746582, -2.5523502826690674, 1.8823670148849487, 
177, 1216550784, 0.31139767, -0.57342947, -0.14644063, -0.74348193, 9.286097526550293, -1.1098573207855225, 3.3909904956817627, 2.4844446182250977, -2.891641616821289, 1.8791524171829224, 
178, 1216567451, 0.3113736, -0.57352674, -0.14663275, -0.7433792, 9.295848846435547, -1.1016123294830322, 3.419517755508423, 2.622382402420044, -3.3494949340820312, 1.5654228925704956, 
179, 1216584118, 0.31135777, -0.5735639, -0.14682098, -0.7433199, 9.34300708770752, -1.0934876203536987, 3.452876329421997, 2.955244779586792, -2.9020535945892334, 1.550836205482483, 
180, 1216600785, 0.31138146, -0.5735249, -0.14692457, -0.74331963, 9.329611778259277, -1.0540030002593994, 3.4271442890167236, 2.7805793285369873, -2.07361102104187, 1.8915109634399414, 
181, 1216617452, 0.3113875, -0.5735554, -0.1469295, -0.7432926, 9.299368858337402, -1.0251785516738892, 3.3951425552368164, 2.0434324741363525, -2.348896026611328, 2.313467264175415, 
182, 1216634119, 0.31130448, -0.5736501, -0.14689042, -0.74326205, 9.28066349029541, -1.0579888820648193, 3.3855602741241455, 1.5583536624908447, -2.7321197986602783, 2.1859545707702637, 
183, 1216650786, 0.3112002, -0.57374704, -0.14694747, -0.7432197, 9.280841827392578, -1.1195447444915771, 3.371910333633423, 1.828439712524414, -3.0087242126464844, 1.6882998943328857, 
184, 1216667453, 0.31113124, -0.57387644, -0.14711182, -0.74311596, 9.298013687133789, -1.1079455614089966, 3.361841917037964, 2.4154186248779297, -3.6084136962890625, 1.5834286212921143, 
185, 1216684120, 0.31106502, -0.5740356, -0.14724068, -0.7429953, 9.304841041564941, -1.0629078149795532, 3.3492584228515625, 2.1474459171295166, -3.7515757083892822, 1.7918903827667236, 
186, 1216700787, 0.31096968, -0.5742283, -0.1472677, -0.74288094, 9.313911437988281, -1.0633314847946167, 3.3314731121063232, 1.59508216381073, -3.7429697513580322, 2.123805284500122, 
187, 1216717454, 0.31086907, -0.57439697, -0.14723541, -0.74279904, 9.341041564941406, -1.0794283151626587, 3.3104705810546875, 1.2099055051803589, -3.3678393363952637, 2.218571901321411, 
188, 1216734121, 0.31082144, -0.57453847, -0.14720623, -0.7427153, 9.37640380859375, -1.0698596239089966, 3.3082664012908936, 1.517462968826294, -3.200620651245117, 2.46513295173645, 
189, 1216750788, 0.31080818, -0.5746237, -0.14718755, -0.7426586, 9.375234603881836, -1.0659778118133545, 3.254563331604004, 1.6713312864303589, -2.7825703620910645, 2.451852798461914, 
190, 1216767455, 0.3107494, -0.574688, -0.1471931, -0.74263227, 9.336262702941895, -1.0640407800674438, 3.2385385036468506, 1.8289391994476318, -2.6877009868621826, 2.1078360080718994, 
191, 1216784122, 0.310659, -0.5747734, -0.14726163, -0.74259055, 9.301468849182129, -1.0444759130477905, 3.2323787212371826, 1.873274803161621, -3.007577896118164, 1.719175934791565, 
192, 1216800789, 0.31050897, -0.5749245, -0.1473125, -0.7425262, 9.302517890930176, -1.0240074396133423, 3.2163991928100586, 1.5078195333480835, -3.470930337905884, 1.6315417289733887, 
193, 1216817456, 0.31030992, -0.5751547, -0.14730622, -0.7424324, 9.31818675994873, -1.043498158454895, 3.2337725162506104, 1.0154091119766235, -3.9408087730407715, 1.7992091178894043, 
194, 1216834123, 0.31011978, -0.5753669, -0.14731136, -0.74234635, 9.373334884643555, -1.0834957361221313, 3.261012315750122, 1.2426769733428955, -3.8534624576568604, 1.8030441999435425, 
195, 1216850790, 0.3099849, -0.5754679, -0.14737977, -0.74231076, 9.395469665527344, -1.1382921934127808, 3.2345046997070312, 1.723581314086914, -3.1331827640533447, 1.5413469076156616, 
196, 1216867457, 0.30990383, -0.57548666, -0.14749813, -0.74230653, 9.379936218261719, -1.1390098333358765, 3.1977906227111816, 2.471011161804199, -2.664752244949341, 1.5129809379577637, 
197, 1216884124, 0.30987197, -0.57555944, -0.1476544, -0.74223244, 9.325725555419922, -1.0660123825073242, 3.1959846019744873, 2.7078776359558105, -3.2330212593078613, 1.786447525024414, 
198, 1216900791, 0.30977473, -0.5757533, -0.14773542, -0.7421067, 9.336607933044434, -1.0374950170516968, 3.2419660091400146, 2.1547324657440186, -4.006165981292725, 2.080737352371216, 
199, 1216917458, 0.30969605, -0.57592326, -0.14782125, -0.7419904, 9.373320579528809, -1.0383925437927246, 3.257460355758667, 2.054049491882324, -3.8077452182769775, 2.0426902770996094, 
200, 1216934125, 0.30962867, -0.5760234, -0.14790389, -0.7419243, 9.419150352478027, -1.0779082775115967, 3.270045757293701, 2.218085289001465, -3.245673179626465, 1.9544665813446045, 
201, 1216950792, 0.30962652, -0.5760606, -0.14800069, -0.74187696, 9.390143394470215, -1.0678788423538208, 3.2491371631622314, 2.777921676635742, -2.8360049724578857, 2.1673786640167236, 
202, 1216967459, 0.30959547, -0.57610524, -0.14805904, -0.74184364, 9.380436897277832, -1.021222710609436, 3.260672092437744, 2.5543224811553955, -2.7868540287017822, 2.190878391265869, 
203, 1216984126, 0.30954784, -0.5761242, -0.14808671, -0.7418432, 9.314298629760742, -0.9872979521751404, 3.2495386600494385, 2.267902374267578, -2.469813823699951, 2.1138803958892822, 
204, 1217000793, 0.3094238, -0.57619846, -0.14807566, -0.74183947, 9.313170433044434, -0.9960183501243591, 3.221557855606079, 1.8546411991119385, -2.7960681915283203, 2.0126333236694336, 
205, 1217017460, 0.30930108, -0.5763173, -0.14808728, -0.74179614, 9.345088005065918, -1.0098589658737183, 3.259652614593506, 1.7008880376815796, -3.200057029724121, 1.9972397089004517, 
206, 1217034127, 0.3091427, -0.57648075, -0.14810643, -0.7417312, 9.359655380249023, -1.0333534479141235, 3.2236077785491943, 1.699825406074524, -3.5966572761535645, 1.9379466772079468, 
207, 1217050794, 0.30903143, -0.5766123, -0.1481637, -0.741664, 9.38614559173584, -1.033188819885254, 3.2232871055603027, 1.8031213283538818, -3.430392265319824, 1.8967615365982056, 
208, 1217067461, 0.30889592, -0.5767163, -0.14817771, -0.74163675, 9.391047477722168, -1.0471128225326538, 3.2083897590637207, 1.7224349975585938, -3.098407030105591, 1.9046951532363892, 
209, 1217084128, 0.30878505, -0.5767659, -0.14815773, -0.7416482, 9.398177146911621, -1.0752933025360107, 3.226369619369507, 1.9009236097335815, -2.598376750946045, 2.0881142616271973, 
210, 1217100795, 0.30869067, -0.57682204, -0.1481416, -0.7416472, 9.35806655883789, -1.0698637962341309, 3.2314810752868652, 1.9023065567016602, -2.664841651916504, 2.167090654373169, 
211, 1217117462, 0.3085729, -0.57690334, -0.14812407, -0.74163634, 9.329163551330566, -1.0873610973358154, 3.183617353439331, 1.9452075958251953, -2.885007858276367, 2.16113543510437, 
212, 1217134129, 0.3084467, -0.57703286, -0.14814739, -0.7415836, 9.341744422912598, -1.093024492263794, 3.179330348968506, 2.074103832244873, -3.3961353302001953, 2.100407838821411, 
213, 1217150796, 0.3083312, -0.5771261, -0.148207, -0.7415471, 9.400629997253418, -1.0654881000518799, 3.1932647228240967, 2.288386106491089, -3.2039053440093994, 1.9174116849899292, 
214, 1217167463, 0.30823034, -0.5771734, -0.14820422, -0.7415527, 9.422126770019531, -1.036919355392456, 3.2011191844940186, 1.9616190195083618, -2.641117572784424, 2.0701019763946533, 
215, 1217184130, 0.30809933, -0.5772034, -0.14811699, -0.7416014, 9.391188621520996, -1.037810206413269, 3.1599371433258057, 1.5501638650894165, -2.2564406394958496, 2.192645788192749, 
216, 1217200797, 0.30791143, -0.57728374, -0.14796719, -0.74164677, 9.385738372802734, -1.0966652631759644, 3.1536054611206055, 1.1657301187515259, -2.4899003505706787, 2.2940847873687744, 
217, 1217217464, 0.30777094, -0.57733727, -0.1478582, -0.74168515, 9.396174430847168, -1.123612880706787, 3.1465466022491455, 1.4978179931640625, -2.4019908905029297, 2.323699712753296, 
218, 1217234131, 0.30764076, -0.57736003, -0.14777336, -0.7417383, 9.401388168334961, -1.1536288261413574, 3.1645092964172363, 1.8367763757705688, -2.244652271270752, 2.256901741027832, 
219, 1217250798, 0.30759025, -0.5772843, -0.14775592, -0.7418217, 9.394700050354004, -1.1643494367599487, 3.1433160305023193, 2.397054433822632, -1.6459810733795166, 2.145319700241089, 
220, 1217267465, 0.3075892, -0.5771598, -0.14775585, -0.7419189, 9.368154525756836, -1.1306214332580566, 3.1850695610046387, 2.8172051906585693, -1.3355423212051392, 2.262331485748291, 
221, 1217284132, 0.30758354, -0.5771403, -0.14776371, -0.7419349, 9.329355239868164, -1.082566261291504, 3.1751224994659424, 2.6532323360443115, -2.2095627784729004, 2.472560405731201, 
222, 1217300799, 0.30754185, -0.5772321, -0.14776294, -0.74188083, 9.347082138061523, -1.0561041831970215, 3.193544626235962, 2.4091947078704834, -3.091844081878662, 2.618898868560791, 
223, 1217317466, 0.3075022, -0.57726586, -0.14771205, -0.7418812, 9.37790298461914, -1.0573234558105469, 3.228818655014038, 2.325991630554199, -2.487088918685913, 2.6872847080230713, 
224, 1217334133, 0.3074672, -0.57724637, -0.1476587, -0.7419215, 9.360833168029785, -1.0948330163955688, 3.2342581748962402, 2.346219778060913, -2.0440473556518555, 2.5682177543640137, 
225, 1217350800, 0.3074287, -0.5772118, -0.147632, -0.7419696, 9.365084648132324, -1.0970356464385986, 3.2149276733398438, 2.603703498840332, -2.0147974491119385, 2.448721170425415, 
226, 1217367467, 0.30737108, -0.5772391, -0.14762264, -0.7419741, 9.329629898071289, -1.0820229053497314, 3.205065965652466, 2.4293644428253174, -2.5489182472229004, 2.4080162048339844, 
227, 1217384134, 0.3072704, -0.5773246, -0.1475987, -0.7419542, 9.312475204467773, -1.0927367210388184, 3.1812503337860107, 2.187490940093994, -2.973538637161255, 2.3906896114349365, 
228, 1217400801, 0.30715495, -0.5774296, -0.14758098, -0.74192375, 9.297755241394043, -1.106091022491455, 3.199643611907959, 2.13173246383667, -3.145143508911133, 2.3322925567626953, 
229, 1217417468, 0.30699235, -0.57758766, -0.14755139, -0.7418739, 9.32221508026123, -1.107448697090149, 3.2073042392730713, 1.9680289030075073, -3.544074535369873, 2.2886617183685303, 
230, 1217434135, 0.30687794, -0.5777457, -0.14752685, -0.74180305, 9.337372779846191, -1.100522756576538, 3.173583745956421, 2.0173909664154053, -3.566364049911499, 2.4990761280059814, 
231, 1217450802, 0.30673492, -0.57794464, -0.1474894, -0.74171466, 9.397327423095703, -1.112136960029602, 3.1738569736480713, 1.8790627717971802, -3.863297939300537, 2.515960931777954, 
232, 1217467469, 0.30657595, -0.5780989, -0.14743295, -0.74167144, 9.422396659851074, -1.0953590869903564, 3.1817965507507324, 1.8152104616165161, -3.440714120864868, 2.3839147090911865, 
233, 1217484136, 0.3064032, -0.5782003, -0.14734024, -0.7416823, 9.417977333068848, -1.0895594358444214, 3.1957225799560547, 1.9059306383132935, -2.932955026626587, 2.3755905628204346, 
234, 1217500803, 0.3062723, -0.57825905, -0.14726998, -0.7417043, 9.399626731872559, -1.0852956771850586, 3.1396052837371826, 1.9427491426467896, -2.6338632106781006, 2.3351612091064453, 
235, 1217517470, 0.306093, -0.5783683, -0.14719582, -0.74170804, 9.402499198913574, -1.095400333404541, 3.1534552574157715, 1.768812894821167, -3.0225865840911865, 2.2332351207733154, 
236, 1217534137, 0.3059475, -0.5784578, -0.14713854, -0.7417097, 9.402660369873047, -1.0828958749771118, 3.1393063068389893, 2.0265917778015137, -2.930457592010498, 2.3211121559143066, 
237, 1217550804, 0.30581614, -0.57852143, -0.14708908, -0.7417239, 9.38503646850586, -1.062027096748352, 3.145298480987549, 2.137443780899048, -2.747774839401245, 2.302696704864502, 
238, 1217567471, 0.30563873, -0.57863355, -0.1470471, -0.74171793, 9.37771224975586, -1.052396297454834, 3.134589433670044, 1.863938570022583, -3.1329259872436523, 2.1182854175567627, 
239, 1217584138, 0.30540234, -0.578762, -0.14698876, -0.7417266, 9.39430046081543, -1.0621886253356934, 3.163404941558838, 1.711811900138855, -3.2124216556549072, 1.9358845949172974, 
240, 1217600805, 0.3052214, -0.5788357, -0.14694884, -0.7417515, 9.389925003051758, -1.1093281507492065, 3.1592774391174316, 2.053011894226074, -2.8419408798217773, 2.034493923187256, 
241, 1217617472, 0.30502275, -0.57890713, -0.14689189, -0.74178886, 9.353414535522461, -1.1090649366378784, 3.1606359481811523, 1.8382619619369507, -2.7583281993865967, 1.9687973260879517, 
242, 1217634139, 0.30474678, -0.57907134, -0.14680977, -0.74179024, 9.309468269348145, -1.1232374906539917, 3.1698691844940186, 1.491184115409851, -3.4359500408172607, 1.9189931154251099, 
243, 1217650806, 0.3044577, -0.5793345, -0.146764, -0.7417125, 9.337584495544434, -1.1205137968063354, 3.165479898452759, 1.40169358253479, -4.334930419921875, 1.9415963888168335, 
244, 1217667473, 0.3041953, -0.5795824, -0.1467195, -0.7416354, 9.370841979980469, -1.1499016284942627, 3.1703314781188965, 1.4667752981185913, -4.22186279296875, 2.0282952785491943, 
245, 1217684140, 0.3039467, -0.5798054, -0.14666077, -0.7415745, 9.419390678405762, -1.1233044862747192, 3.1724302768707275, 1.4280362129211426, -3.981168270111084, 2.0751285552978516, 
246, 1217700807, 0.3037264, -0.5800127, -0.14654242, -0.7415261, 9.40650749206543, -1.1263365745544434, 3.129099130630493, 1.4168819189071655, -3.722191572189331, 2.46234130859375, 
247, 1217717474, 0.30352208, -0.5801722, -0.14640212, -0.74151284, 9.425024032592773, -1.102433443069458, 3.107102632522583, 1.545073390007019, -3.2937867641448975, 2.541778802871704, 
248, 1217734141, 0.30332062, -0.5803312, -0.14632657, -0.7414856, 9.460198402404785, -1.1204729080200195, 3.0945188999176025, 1.650520920753479, -3.444223165512085, 2.2500884532928467, 
249, 1217750808, 0.30310944, -0.5804692, -0.14627388, -0.7414744, 9.443103790283203, -1.1309782266616821, 3.094421625137329, 1.9142420291900635, -3.3508903980255127, 2.1008176803588867, 
250, 1217767475, 0.30291843, -0.58053684, -0.1462304, -0.74150807, 9.426284790039062, -1.1277165412902832, 3.077779531478882, 2.2105422019958496, -2.8211169242858887, 2.0229294300079346, 
251, 1217784142, 0.30275506, -0.5806122, -0.14615291, -0.74153113, 9.391477584838867, -1.1097623109817505, 3.0450222492218018, 2.1261355876922607, -2.800755262374878, 2.3235199451446533, 
252, 1217800809, 0.3026205, -0.5807437, -0.14606094, -0.7415011, 9.393795013427734, -1.130033016204834, 3.0713987350463867, 1.996401309967041, -3.2221548557281494, 2.6609230041503906, 
253, 1217817476, 0.3024985, -0.580874, -0.1459579, -0.74146914, 9.436365127563477, -1.1359977722167969, 3.0645947456359863, 2.2311415672302246, -3.221590995788574, 2.8424909114837646, 
254, 1217834143, 0.3023921, -0.5809163, -0.14587457, -0.7414957, 9.46969223022461, -1.1367236375808716, 3.069265842437744, 2.5364387035369873, -2.5648622512817383, 2.6369941234588623, 
255, 1217850810, 0.3023198, -0.5808648, -0.14589502, -0.7415617, 9.474629402160645, -1.1619938611984253, 3.0753796100616455, 3.1390669345855713, -2.078054666519165, 2.1538615226745605, 
256, 1217867477, 0.30224955, -0.58075327, -0.1459151, -0.74167365, 9.444599151611328, -1.1243525743484497, 3.055391550064087, 3.3605270385742188, -1.603297233581543, 2.051103353500366, 
257, 1217884144, 0.30220157, -0.5806384, -0.14589375, -0.74178725, 9.411240577697754, -1.1168862581253052, 3.039008140563965, 3.253261089324951, -1.4704315662384033, 2.325786590576172, 
258, 1217900811, 0.30215913, -0.580603, -0.14584689, -0.7418415, 9.379569053649902, -1.1065380573272705, 3.058689594268799, 2.9364960193634033, -2.0370099544525146, 2.6293485164642334, 
259, 1217917478, 0.30208832, -0.58061457, -0.14573908, -0.7418825, 9.392586708068848, -1.1353747844696045, 3.0680716037750244, 2.653411865234375, -2.260826587677002, 2.870415210723877, 
260, 1217934145, 0.3020908, -0.5805578, -0.14568539, -0.7419363, 9.389201164245605, -1.1514453887939453, 3.090902090072632, 3.1282970905303955, -1.8680559396743774, 2.8644349575042725, 
261, 1217950812, 0.30209798, -0.5804451, -0.14567028, -0.7420246, 9.383749008178711, -1.1515918970108032, 3.0915396213531494, 3.5724985599517822, -1.5422112941741943, 2.651388645172119, 
262, 1217967479, 0.30209023, -0.5803448, -0.14573447, -0.7420936, 9.373631477355957, -1.1412585973739624, 3.0872268676757812, 3.8362958431243896, -1.8502933979034424, 2.286522388458252, 
263, 1217984146, 0.30206266, -0.5802861, -0.14582014, -0.74213386, 9.408098220825195, -1.1287308931350708, 3.0982723236083984, 3.8695919513702393, -2.249070405960083, 2.2200446128845215, 
264, 1218000813, 0.30204505, -0.58018273, -0.14584816, -0.7422164, 9.404226303100586, -1.1196337938308716, 3.0604019165039062, 3.6716701984405518, -1.7221916913986206, 2.3685858249664307, 
265, 1218017480, 0.30201623, -0.5801013, -0.14580338, -0.7423005, 9.395392417907715, -1.110553503036499, 3.040792465209961, 3.27473783493042, -1.6959258317947388, 2.6416428089141846, 
266, 1218034147, 0.30198216, -0.5800943, -0.14577816, -0.74232477, 9.366745948791504, -1.1086487770080566, 3.0568315982818604, 3.1381194591522217, -2.339893341064453, 2.6991944313049316, 
267, 1218050814, 0.30191323, -0.580158, -0.14580607, -0.74229765, 9.409018516540527, -1.1104159355163574, 3.1027684211730957, 3.0901079177856445, -3.0385818481445312, 2.460880994796753, 
268, 1218067481, 0.30182675, -0.5801549, -0.14584318, -0.7423279, 9.418261528015137, -1.1361775398254395, 3.104685068130493, 3.3603355884552, -2.5334486961364746, 2.212373971939087, 
269, 1218084148, 0.30177388, -0.580061, -0.14587179, -0.7424172, 9.453015327453613, -1.1305346488952637, 3.099033832550049, 3.421485662460327, -1.760905146598816, 2.1554367542266846, 
270, 1218100815, 0.3017406, -0.5799452, -0.14587691, -0.7425201, 9.476408004760742, -1.1102631092071533, 3.0560953617095947, 3.480074167251587, -1.5345529317855835, 2.319037914276123, 
271, 1218117482, 0.30169356, -0.57977784, -0.1458155, -0.74268204, 9.495842933654785, -1.0718601942062378, 3.04695987701416, 3.129936456680298, -0.9078742861747742, 2.341193437576294, 
272, 1218134149, 0.30162862, -0.5795686, -0.14569834, -0.7428947, 9.431360244750977, -1.1103293895721436, 3.0207791328430176, 2.8557779788970947, -0.39710572361946106, 2.3410520553588867, 
273, 1218150816, 0.30152863, -0.5794277, -0.1455928, -0.74306583, 9.360118865966797, -1.1327284574508667, 3.051783800125122, 2.745579242706299, -0.9763368964195251, 2.2931435108184814, 
274, 1218167483, 0.3014529, -0.5793604, -0.14555772, -0.7431561, 9.339409828186035, -1.1648293733596802, 3.039344549179077, 2.954322576522827, -1.769600510597229, 2.3225722312927246, 
275, 1218184150, 0.30140007, -0.57931125, -0.14556058, -0.7432151, 9.385570526123047, -1.1553996801376343, 3.060429334640503, 3.266554355621338, -2.0438361167907715, 2.3789079189300537, 
276, 1218200817, 0.3013725, -0.57921183, -0.14556807, -0.74330246, 9.465776443481445, -1.1691962480545044, 3.0874006748199463, 3.3307394981384277, -1.637298345565796, 2.3369028568267822, 
277, 1218217484, 0.30134666, -0.5789904, -0.14552195, -0.74349433, 9.518545150756836, -1.1593772172927856, 3.091604709625244, 3.5150227546691895, -0.5247849822044373, 2.3128907680511475, 
278, 1218234151, 0.3013883, -0.5786336, -0.14545517, -0.74376833, 9.464961051940918, -1.155185580253601, 3.0904784202575684, 3.7529516220092773, 0.6249498128890991, 2.395824670791626, 
279, 1218250818, 0.30144164, -0.578281, -0.14538583, -0.7440344, 9.361288070678711, -1.1379075050354004, 3.0719258785247803, 3.814922332763672, 0.5870303511619568, 2.4975204467773438, 
280, 1218267485, 0.30147916, -0.57810307, -0.1453784, -0.74415874, 9.309120178222656, -1.1388710737228394, 3.0602972507476807, 3.711639165878296, -0.9928315281867981, 2.595860481262207, 
281, 1218284152, 0.301495, -0.57803905, -0.14543544, -0.744191, 9.346535682678223, -1.1552534103393555, 3.103203296661377, 3.917168140411377, -2.109391927719116, 2.565317153930664, 
282, 1218300819, 0.30156943, -0.57788557, -0.14550431, -0.74426657, 9.411942481994629, -1.161826252937317, 3.1304399967193604, 4.400557041168213, -1.449173092842102, 2.652310609817505, 
283, 1218317486, 0.30169988, -0.5776088, -0.14554352, -0.74442095, 9.405728340148926, -1.1463454961776733, 3.1087851524353027, 4.485206604003906, -0.36466720700263977, 2.717904806137085, 
284, 1218334153, 0.30183524, -0.57730067, -0.14559403, -0.7445952, 9.39317798614502, -1.1543811559677124, 3.0588879585266113, 4.56878137588501, -0.13558083772659302, 2.612393379211426, 
285, 1218350820, 0.30192304, -0.5770653, -0.14571248, -0.7447189, 9.35343074798584, -1.1231828927993774, 3.071531057357788, 4.826240062713623, -0.9198610782623291, 2.3403990268707275, 
286, 1218367487, 0.3020042, -0.5768786, -0.1458887, -0.7447961, 9.357769966125488, -1.1259962320327759, 3.1022820472717285, 5.098791122436523, -1.4852038621902466, 2.239926815032959, 
287, 1218384154, 0.30212152, -0.57669324, -0.1460914, -0.74485224, 9.35122299194336, -1.1287808418273926, 3.091966152191162, 5.187519550323486, -1.5625605583190918, 2.298419952392578, 
288, 1218400821, 0.30222076, -0.57656103, -0.14629458, -0.7448746, 9.389747619628906, -1.1241650581359863, 3.115469217300415, 4.959873199462891, -1.9735031127929688, 2.302440881729126, 
289, 1218417488, 0.30234277, -0.57639307, -0.14645877, -0.7449227, 9.4076566696167, -1.1050395965576172, 3.1384730339050293, 4.986037731170654, -1.5926811695098877, 2.5093533992767334, 
290, 1218434155, 0.3024621, -0.5761825, -0.14660831, -0.74500775, 9.414702415466309, -1.130795955657959, 3.1190781593322754, 4.933185577392578, -1.1954408884048462, 2.4293904304504395, 
291, 1218450822, 0.30255273, -0.57596743, -0.14677161, -0.7451051, 9.350478172302246, -1.1389408111572266, 3.100822687149048, 4.992786407470703, -1.1923032999038696, 2.2309303283691406, 
292, 1218467489, 0.3026248, -0.5758481, -0.14700186, -0.7451227, 9.31761360168457, -1.0706762075424194, 3.1219985485076904, 5.071059226989746, -2.14353346824646, 2.1081559658050537, 
293, 1218484156, 0.3026245, -0.575823, -0.14721093, -0.74510086, 9.39869499206543, -1.069813847541809, 3.1490731239318848, 4.39111852645874, -2.793327569961548, 1.9594486951828003, 
294, 1218500823, 0.3026205, -0.57575864, -0.14736222, -0.7451224, 9.434879302978516, -1.0974324941635132, 3.179964780807495, 4.057205677032471, -2.2920615673065186, 2.0189085006713867, 
295, 1218517490, 0.30265546, -0.57558644, -0.14742906, -0.7452281, 9.425419807434082, -1.0792715549468994, 3.137993335723877, 3.915926456451416, -1.1901391744613647, 2.2674286365509033, 
296, 1218534157, 0.30267057, -0.5754111, -0.14744577, -0.745354, 9.382427215576172, -1.075588345527649, 3.0943753719329834, 3.589261531829834, -1.0111573934555054, 2.327220916748047, 
297, 1218550824, 0.3026017, -0.57533383, -0.14748484, -0.74543375, 9.366515159606934, -1.087172508239746, 3.153181314468384, 3.388124465942383, -1.8470789194107056, 2.059030294418335, 
298, 1218567491, 0.30251595, -0.57525206, -0.14761555, -0.7455059, 9.370081901550293, -1.1000467538833618, 3.1610000133514404, 3.648029327392578, -2.03918719291687, 1.569430947303772, 
299, 1218584158, 0.30243066, -0.57510287, -0.1477364, -0.7456315, 9.362738609313965, -1.1052484512329102, 3.169308662414551, 3.6755378246307373, -1.4586623907089233, 1.4273189306259155, 
300, 1218600825, 0.3023535, -0.5749915, -0.1478725, -0.7457218, 9.355127334594727, -1.0463521480560303, 3.139188766479492, 3.572638511657715, -1.7923702001571655, 1.4650846719741821, 
301, 1218617492, 0.30225718, -0.57497895, -0.14804938, -0.7457354, 9.406064987182617, -1.0466043949127197, 3.1335742473602295, 3.4112019538879395, -2.6807985305786133, 1.4121308326721191, 
302, 1218634159, 0.30211908, -0.5749282, -0.1482045, -0.74579966, 9.45413589477539, -1.1224464178085327, 3.121645212173462, 3.4270689487457275, -2.3154969215393066, 1.224748134613037, 
303, 1218650826, 0.30205092, -0.57477397, -0.14835355, -0.7459166, 9.482492446899414, -1.1501615047454834, 3.110341787338257, 3.7114083766937256, -1.4713281393051147, 1.3509931564331055, 
304, 1218667493, 0.30201888, -0.57456297, -0.14845555, -0.7460718, 9.461397171020508, -1.1154279708862305, 3.1433582305908203, 3.915944814682007, -0.9198800921440125, 1.654317855834961, 
305, 1218684160, 0.30204844, -0.5742889, -0.14854336, -0.74625343, 9.383068084716797, -1.0648683309555054, 3.1227855682373047, 3.934450149536133, -0.3632521331310272, 1.8234385251998901, 
306, 1218700827, 0.3020727, -0.5740424, -0.14866386, -0.7464092, 9.288436889648438, -1.059117078781128, 3.0808181762695312, 3.8080320358276367, -0.6454528570175171, 1.6715998649597168, 
307, 1218717494, 0.3019752, -0.5739179, -0.14874701, -0.74652773, 9.267809867858887, -1.0494651794433594, 3.1269643306732178, 3.3437767028808594, -1.516240119934082, 1.5311530828475952, 
308, 1218734161, 0.30187163, -0.57387036, -0.148889, -0.74657786, 9.32016658782959, -1.0310174226760864, 3.153397798538208, 3.5337202548980713, -2.3078513145446777, 1.488661289215088, 
309, 1218750828, 0.30177966, -0.573817, -0.14900753, -0.7466324, 9.34959888458252, -1.0514304637908936, 3.135756731033325, 3.3485021591186523, -2.183168888092041, 1.5863994359970093, 
310, 1218767495, 0.3016504, -0.57375246, -0.14904985, -0.7467258, 9.362178802490234, -1.0492395162582397, 3.165212869644165, 2.8110451698303223, -1.8535592555999756, 1.6091179847717285, 
311, 1218784162, 0.30148444, -0.5736962, -0.14907414, -0.7468312, 9.387632369995117, -1.0439221858978271, 3.1319382190704346, 2.5171518325805664, -1.8430449962615967, 1.4657890796661377, 
312, 1218800829, 0.30131805, -0.5736838, -0.1491806, -0.7468867, 9.398591995239258, -1.0806981325149536, 3.150501012802124, 2.7581424713134766, -2.4154250621795654, 1.2415885925292969, 
313, 1218817496, 0.30120838, -0.5736414, -0.14935148, -0.74692917, 9.431053161621094, -1.107571005821228, 3.1758456230163574, 3.2525436878204346, -2.368835210800171, 1.2283720970153809, 
314, 1218834163, 0.30112344, -0.57351184, -0.14945081, -0.7470431, 9.425272941589355, -1.0722488164901733, 3.1605782508850098, 3.3151800632476807, -1.4917925596237183, 1.4707709550857544, 
315, 1218850830, 0.3010623, -0.5733231, -0.14953174, -0.74719644, 9.38397216796875, -1.042054533958435, 3.143934965133667, 3.4178617000579834, -0.9698697924613953, 1.5282331705093384, 
316, 1218867497, 0.3009616, -0.57320863, -0.14961253, -0.7473087, 9.354530334472656, -1.006972312927246, 3.174274444580078, 3.1646671295166016, -1.5538008213043213, 1.4912996292114258, 
317, 1218884164, 0.30084285, -0.57317287, -0.14973094, -0.74736017, 9.345734596252441, -0.9919498562812805, 3.189981460571289, 2.993151903152466, -2.2680113315582275, 1.3950341939926147, 
318, 1218900831, 0.30071768, -0.5731408, -0.14984904, -0.74741143, 9.37393856048584, -1.0142720937728882, 3.184087038040161, 2.9557571411132812, -2.292407274246216, 1.3664377927780151, 
319, 1218917498, 0.30062434, -0.57308495, -0.14993906, -0.7474737, 9.417848587036133, -0.9975438714027405, 3.1796696186065674, 2.6874001026153564, -1.9995900392532349, 1.499841332435608, 
320, 1218934165, 0.30047438, -0.5730179, -0.1499115, -0.747591, 9.380979537963867, -1.0381468534469604, 3.188497543334961, 2.198452949523926, -1.584676742553711, 1.6668487787246704, 
321, 1218950832, 0.3003433, -0.5729173, -0.14989653, -0.74772376, 9.361967086791992, -1.0523247718811035, 3.1563374996185303, 2.229726552963257, -1.336887001991272, 1.5949671268463135, 
322, 1218967499, 0.30013344, -0.5728242, -0.14985822, -0.747887, 9.314942359924316, -1.057856798171997, 3.140669584274292, 2.2476682662963867, -1.34907865524292, 1.3841487169265747, 
323, 1218984166, 0.29995102, -0.57278454, -0.14990112, -0.74798197, 9.343696594238281, -1.0711637735366821, 3.1693975925445557, 2.3550620079040527, -1.9837098121643066, 1.276882529258728, 
324, 1219000833, 0.29977986, -0.5727369, -0.14996889, -0.7480734, 9.4031982421875, -1.0477498769760132, 3.193213701248169, 2.7287259101867676, -2.0160205364227295, 1.291366696357727, 
325, 1219017500, 0.2996782, -0.57262015, -0.15002131, -0.748193, 9.416767120361328, -1.0322686433792114, 3.1890149116516113, 2.7369601726531982, -1.4086278676986694, 1.4811697006225586, 
326, 1219034167, 0.29955804, -0.5725074, -0.15000667, -0.7483304, 9.401546478271484, -1.0352100133895874, 3.1496458053588867, 2.3374533653259277, -1.243490219116211, 1.6308631896972656, 
327, 1219050834, 0.2994329, -0.57242656, -0.14997956, -0.7484478, 9.403642654418945, -1.0882068872451782, 3.172668933868408, 2.337017774581909, -1.479972004890442, 1.7684799432754517, 
328, 1219067501, 0.29934385, -0.5723085, -0.15000342, -0.7485688, 9.393011093139648, -1.1429104804992676, 3.1856701374053955, 2.6601734161376953, -1.3207124471664429, 1.6549646854400635, 
329, 1219084168, 0.2993513, -0.5721064, -0.15012133, -0.7486968, 9.3811674118042, -1.1365245580673218, 3.167492151260376, 3.6920063495635986, -0.9536760449409485, 1.6763510704040527, 
330, 1219100835, 0.2994202, -0.57185376, -0.1502933, -0.74882776, 9.355435371398926, -1.109302282333374, 3.1712331771850586, 4.162064075469971, -0.7093373537063599, 1.6689492464065552, 
331, 1219117502, 0.2994584, -0.57164305, -0.15049382, -0.748933, 9.325140953063965, -1.0611176490783691, 3.191713571548462, 4.169082164764404, -1.1192686557769775, 1.5051432847976685, 
332, 1219134169, 0.2994099, -0.57147896, -0.15062323, -0.7490515, 9.321483612060547, -1.0342700481414795, 3.199342966079712, 3.7673659324645996, -1.2995115518569946, 1.4905375242233276, 
333, 1219150836, 0.29938173, -0.5713502, -0.15076315, -0.7491329, 9.323837280273438, -1.052901029586792, 3.1798453330993652, 3.659510850906372, -1.601933479309082, 1.5986616611480713, 
334, 1219167503, 0.29936582, -0.57128227, -0.15096407, -0.74915063, 9.316640853881836, -1.0923449993133545, 3.1684608459472656, 3.724304437637329, -2.2470216751098633, 1.5356096029281616, 
335, 1219184170, 0.2993152, -0.57126456, -0.15121707, -0.7491333, 9.375689506530762, -1.1047966480255127, 3.211951732635498, 4.106074333190918, -2.8228464126586914, 1.3756839036941528, 
336, 1219200837, 0.29933992, -0.5711758, -0.15151282, -0.74913144, 9.392632484436035, -1.1243436336517334, 3.204226493835449, 4.4309210777282715, -2.3655447959899902, 1.3811137676239014, 
337, 1219217504, 0.2994323, -0.571052, -0.15182106, -0.74912643, 9.387299537658691, -1.0981024503707886, 3.1457293033599854, 4.7088704109191895, -2.1357600688934326, 1.6044822931289673, 
338, 1219234171, 0.2995196, -0.5709658, -0.15216349, -0.7490878, 9.371072769165039, -1.0879944562911987, 3.117868185043335, 4.73532772064209, -2.523164987564087, 1.5196017026901245, 
339, 1219250838, 0.29960033, -0.57095104, -0.15252623, -0.74899304, 9.362088203430176, -1.0806729793548584, 3.120231866836548, 4.884303092956543, -3.1745595932006836, 1.645334005355835, 
340, 1219267505, 0.29966074, -0.5709676, -0.15289292, -0.7488814, 9.370920181274414, -1.0852251052856445, 3.1334311962127686, 4.769033432006836, -3.4282143115997314, 1.5853745937347412, 
341, 1219284172, 0.29967406, -0.5710141, -0.15323694, -0.7487702, 9.364447593688965, -1.0515269041061401, 3.162269353866577, 4.572136402130127, -3.5987579822540283, 1.5123276710510254, 
342, 1219300839, 0.2996507, -0.5711336, -0.15357454, -0.7486193, 9.406845092773438, -1.0763062238693237, 3.1178603172302246, 4.090796947479248, -4.1305036544799805, 1.4400101900100708, 
343, 1219317506, 0.29957482, -0.5712913, -0.15385523, -0.7484717, 9.406245231628418, -1.0772188901901245, 3.139209508895874, 3.6252596378326416, -4.262523174285889, 1.4600136280059814, 
344, 1219334173, 0.29940838, -0.57146215, -0.1540698, -0.74836385, 9.357364654541016, -1.073475956916809, 3.1140639781951904, 2.879469633102417, -4.132846355438232, 1.1870718002319336, 
345, 1219350840, 0.29912177, -0.57170224, -0.15424941, -0.7482579, 9.33299446105957, -1.0563830137252808, 3.104877233505249, 2.1591379642486572, -4.543494701385498, 0.7948774099349976, 
346, 1219367507, 0.29880196, -0.5719872, -0.15446392, -0.7481237, 9.288629531860352, -1.0918952226638794, 3.0791640281677246, 1.8915622234344482, -4.960392951965332, 0.5051337480545044, 
347, 1219384174, 0.29840678, -0.5723812, -0.15465847, -0.74794006, 9.291194915771484, -1.1412664651870728, 3.062096118927002, 1.2125054597854614, -5.740082263946533, 0.3732539415359497, 
348, 1219400841, 0.2980018, -0.5728668, -0.15491408, -0.7476766, 9.280640602111816, -1.2023062705993652, 3.0719687938690186, 1.288421392440796, -6.646515369415283, 0.3039971590042114, 
349, 1219417508, 0.2975715, -0.5734823, -0.15522845, -0.74731094, 9.342291831970215, -1.195793867111206, 3.0689613819122314, 1.4817205667495728, -7.878589153289795, 0.32829079031944275, 
350, 1219434175, 0.2970676, -0.57423437, -0.15545622, -0.7468864, 9.407708168029785, -1.1325846910476685, 3.1195621490478516, 1.2916232347488403, -8.798407554626465, 0.7876163721084595, 
351, 1219450842, 0.2965943, -0.5750968, -0.1557261, -0.74635434, 9.385231971740723, -1.0736219882965088, 3.0780506134033203, 1.0040693283081055, -9.784111022949219, 0.9448143243789673, 
352, 1219467509, 0.29602826, -0.57614857, -0.15594809, -0.7457214, 9.355878829956055, -1.031450629234314, 3.096529483795166, -0.017307788133621216, -11.140164375305176, 1.0182971954345703, 
353, 1219484176, 0.29536408, -0.57740605, -0.15614648, -0.7449703, 9.302253723144531, -1.0450589656829834, 3.0690689086914062, -0.851795494556427, -12.717665672302246, 1.0530153512954712, 
354, 1219500843, 0.29459715, -0.5788802, -0.15643191, -0.74406946, 9.366447448730469, -1.0361964702606201, 3.1228373050689697, -0.6776805520057678, -14.756415367126465, 0.8348464965820312, 
355, 1219517510, 0.29380527, -0.58040196, -0.15687503, -0.74310315, 9.467259407043457, -1.0228893756866455, 3.228304147720337, -0.4596010744571686, -15.557007789611816, 0.11610247939825058, 
356, 1219534177, 0.29291448, -0.58178276, -0.15737925, -0.74226815, 9.551169395446777, -0.973290205001831, 3.2676498889923096, -0.22007088363170624, -14.568711280822754, -1.0052158832550049, 
357, 1219550844, 0.29205093, -0.5829317, -0.15791517, -0.7415927, 9.57320785522461, -0.9809749722480774, 3.278266668319702, 0.1801726222038269, -12.769927978515625, -1.6185376644134521, 
358, 1219567511, 0.29128954, -0.5839426, -0.15843424, -0.740986, 9.443185806274414, -1.027802586555481, 3.318570137023926, 1.0230869054794312, -11.686984062194824, -1.231900930404663, 
359, 1219584178, 0.29085362, -0.5848526, -0.159039, -0.74030954, 9.280641555786133, -0.9564661383628845, 3.346198558807373, 2.711028575897217, -11.244280815124512, 0.010065795853734016, 
360, 1219600845, 0.2907266, -0.5856606, -0.15946703, -0.73962843, 9.144365310668945, -0.8982445597648621, 3.3502988815307617, 3.385193109512329, -10.07792854309082, 2.2210702896118164, 
361, 1219617512, 0.2910219, -0.58633703, -0.15954094, -0.73896015, 8.909415245056152, -0.8244423270225525, 3.2552144527435303, 3.453784227371216, -8.191885948181152, 5.600679874420166, 
362, 1219634179, 0.29196152, -0.5868606, -0.15908425, -0.738272, 8.625075340270996, -0.7792355418205261, 2.932313919067383, 4.003791809082031, -5.777593612670898, 10.972933769226074, 
363, 1219650846, 0.29367983, -0.587723, -0.15830116, -0.7370715, 8.360045433044434, -0.7127127647399902, 2.603518486022949, 4.9787187576293945, -8.026654243469238, 17.535566329956055, 
364, 1219667513, 0.2958238, -0.58953255, -0.15737359, -0.7349648, 8.422303199768066, -0.6620172262191772, 2.3505523204803467, 4.706283092498779, -15.699048042297363, 23.046463012695312, 
365, 1219684180, 0.29776433, -0.5924518, -0.15644972, -0.7320252, 8.985551834106445, -0.6111094355583191, 2.1837663650512695, 2.88374662399292, -24.95102310180664, 24.992021560668945, 
366, 1219700847, 0.29907888, -0.5959465, -0.15574718, -0.7287953, 10.001723289489746, -0.7389811873435974, 1.9474129676818848, 0.7052620649337769, -30.166624069213867, 22.188610076904297, 
367, 1219717514, 0.29958308, -0.59922415, -0.1554245, -0.725964, 10.931021690368652, -0.7937789559364319, 1.8183085918426514, -0.9678051471710205, -29.043041229248047, 15.453346252441406, 
368, 1219734181, 0.29940194, -0.60169506, -0.1552069, -0.72403896, 11.207940101623535, -0.6643444895744324, 1.8327885866165161, -2.5007712841033936, -22.215635299682617, 8.894591331481934, 
369, 1219750848, 0.29874086, -0.60333, -0.15505739, -0.72298276, 10.947501182556152, -0.640781044960022, 1.9750782251358032, -3.158963918685913, -15.115620613098145, 3.6012377738952637, 
370, 1219767515, 0.29770672, -0.6042521, -0.15507337, -0.72263575, 10.56367015838623, -0.6743068099021912, 2.0661466121673584, -3.390777111053467, -9.318723678588867, -1.1900817155838013, 
371, 1219784182, 0.29646298, -0.6046442, -0.15531719, -0.7227668, 10.268465995788574, -0.8699197769165039, 2.066134214401245, -2.5101921558380127, -5.382631301879883, -4.698669910430908, 
372, 1219800849, 0.29523876, -0.6047142, -0.1558051, -0.72310436, 9.998015403747559, -1.0308122634887695, 2.109851121902466, -1.4098321199417114, -3.3003828525543213, -6.5192084312438965, 
373, 1219817516, 0.29404354, -0.6046109, -0.1562928, -0.72357225, 9.844072341918945, -0.9001521468162537, 2.1013009548187256, -0.9475356340408325, -1.8740496635437012, -6.79166316986084, 
374, 1219834183, 0.29284596, -0.6044671, -0.15643536, -0.72414714, 9.695141792297363, -0.6535325646400452, 2.0313549041748047, -1.7458064556121826, -0.6524259448051453, -5.401443004608154, 
375, 1219850850, 0.291695, -0.60442907, -0.15617026, -0.7247003, 9.513082504272461, -0.507861852645874, 1.9860177040100098, -4.402291774749756, -0.30598852038383484, -3.45308518409729, 
376, 1219867517, 0.2904063, -0.60470617, -0.15558599, -0.72511226, 9.35175609588623, -0.5763596296310425, 1.9529917240142822, -6.821272373199463, -1.990754246711731, -2.126232624053955, 
377, 1219884184, 0.2890738, -0.6054567, -0.15510671, -0.7251211, 9.334410667419434, -0.7029857635498047, 1.9421443939208984, -7.923976421356201, -6.155713081359863, -1.673143744468689, 
378, 1219900851, 0.28754523, -0.60653704, -0.15463044, -0.7249276, 9.564952850341797, -0.8064914345741272, 2.029226541519165, -8.138374328613281, -8.983440399169922, -1.6727790832519531, 
379, 1219917518, 0.2860297, -0.6074201, -0.15409257, -0.72490233, 9.887797355651855, -0.8454329967498779, 2.093709707260132, -7.908602714538574, -7.191408157348633, -1.8335752487182617, 
380, 1219934185, 0.28471935, -0.6077717, -0.15340589, -0.72526914, 10.013834953308105, -0.8929175734519958, 2.0900659561157227, -7.610289096832275, -2.332138776779175, -1.6202212572097778, 
381, 1219950852, 0.28363556, -0.60759246, -0.1525812, -0.7260174, 9.934135437011719, -0.9174959659576416, 2.0150279998779297, -6.868680953979492, 2.4432213306427, -1.250098466873169, 
382, 1219967519, 0.28270906, -0.6071765, -0.15173462, -0.72690374, 9.758646965026855, -0.9550961256027222, 2.008495569229126, -5.793164253234863, 4.389415740966797, -0.8411146998405457, 
383, 1219984186, 0.281783, -0.60680836, -0.15087448, -0.72774905, 9.649441719055176, -1.1106138229370117, 1.952148675918579, -5.528956890106201, 3.9649744033813477, -0.5661752223968506, 
384, 1220000853, 0.28092653, -0.6066851, -0.15010142, -0.72834265, 9.642548561096191, -1.1618943214416504, 1.9524484872817993, -5.459738254547119, 1.6567577123641968, 0.05998494476079941, 
385, 1220017520, 0.28028628, -0.60672283, -0.14927623, -0.72872764, 9.669965744018555, -1.0865323543548584, 1.9733574390411377, -4.82230806350708, 0.3003665506839752, 1.9444586038589478, 
386, 1220034187, 0.27993664, -0.6068794, -0.14848578, -0.7288931, 9.62636661529541, -0.8518813848495483, 2.0104825496673584, -3.3383214473724365, -0.985692024230957, 3.825289249420166, 
387, 1220050854, 0.27957523, -0.60706013, -0.14757569, -0.729066, 9.589153289794922, -0.6751681566238403, 2.0013580322265625, -4.266556739807129, -0.8223789930343628, 4.227670669555664, 
388, 1220067521, 0.27874768, -0.607317, -0.14640807, -0.7294042, 9.5800199508667, -0.49134695529937744, 1.96010422706604, -7.713361740112305, -0.5005811452865601, 2.757220506668091, 
389, 1220084188, 0.2774001, -0.6076923, -0.14521351, -0.7298442, 9.508983612060547, -0.35331299901008606, 1.8984593152999878, -10.519490242004395, -1.1141079664230347, 0.15909335017204285, 
390, 1220100855, 0.27556333, -0.60826194, -0.14412907, -0.7302804, 9.43624496459961, -0.3686002194881439, 1.910527229309082, -12.40377140045166, -2.793201208114624, -2.546307325363159, 
391, 1220117522, 0.2733501, -0.60889584, -0.14306343, -0.73079294, 9.431256294250488, -0.6254824995994568, 1.8125351667404175, -14.672203063964844, -3.12379789352417, -4.721480846405029, 
392, 1220134189, 0.2709057, -0.60951287, -0.14192072, -0.73141146, 9.515286445617676, -0.8711220026016235, 1.69046151638031, -15.317107200622559, -2.769087553024292, -5.593133926391602, 
393, 1220150856, 0.26871, -0.6101094, -0.14082634, -0.7319355, 9.782034873962402, -0.9808222651481628, 1.700982689857483, -14.240986824035645, -2.8556580543518066, -4.463893890380859, 
394, 1220167523, 0.26692316, -0.6105705, -0.13957237, -0.732445, 10.112035751342773, -0.9919446110725403, 1.6889814138412476, -12.789665222167969, -1.566864252090454, -1.7834967374801636, 
395, 1220184190, 0.2654703, -0.61083823, -0.1379351, -0.73305935, 10.272252082824707, -0.8613157868385315, 1.6401121616363525, -12.881294250488281, 0.8594475388526917, 1.170257806777954, 
396, 1220200857, 0.26413524, -0.6109051, -0.13587488, -0.7338703, 10.233319282531738, -0.7130772471427917, 1.5858769416809082, -14.096319198608398, 3.5648422241210938, 3.0500266551971436, 
397, 1220217524, 0.26283118, -0.6110495, -0.13361715, -0.73463255, 10.026809692382812, -0.6647737622261047, 1.653361201286316, -15.202776908874512, 3.386840581893921, 4.1753668785095215, 
398, 1220234191, 0.26141044, -0.6112508, -0.13122265, -0.7354031, 9.940999984741211, -0.6661083102226257, 1.7452800273895264, -16.760494232177734, 3.3202733993530273, 4.143185138702393, 
399, 1220250858, 0.2597553, -0.6113244, -0.12880737, -0.7363548, 9.87421989440918, -0.8140006065368652, 1.7810344696044922, -17.69150161743164, 4.5487565994262695, 2.634500026702881, 
400, 1220267525, 0.25795406, -0.6112175, -0.12653753, -0.73746955, 9.866662979125977, -0.9284561276435852, 1.7954356670379639, -17.372798919677734, 5.762620449066162, 0.8437216877937317, 
401, 1220284192, 0.25626263, -0.61087066, -0.1244768, -0.73869634, 9.867284774780273, -1.010252594947815, 1.8389800786972046, -15.13427734375, 7.131242752075195, 0.21004356443881989, 
402, 1220300859, 0.254867, -0.6103028, -0.122620754, -0.7399579, 9.882416725158691, -0.9936726093292236, 1.8957163095474243, -12.887142181396484, 8.352890968322754, 0.5115692019462585, 
403, 1220317526, 0.25372005, -0.60957515, -0.120830484, -0.7412452, 9.911282539367676, -1.0269697904586792, 1.8654589653015137, -11.444594383239746, 9.401269912719727, 1.2784907817840576, 
404, 1220334193, 0.25272787, -0.6087312, -0.11914351, -0.7425498, 9.971854209899902, -1.0994524955749512, 1.8664000034332275, -9.816701889038086, 9.9884033203125, 1.571244239807129, 
405, 1220350860, 0.25189742, -0.60777265, -0.11759956, -0.7438621, 10.086953163146973, -1.0547369718551636, 1.915717363357544, -7.929807186126709, 10.459607124328613, 1.7687630653381348, 
406, 1220367527, 0.25133672, -0.6065398, -0.11618052, -0.74527955, 10.127449035644531, -0.834915816783905, 1.9739114046096802, -6.002832889556885, 12.344841957092285, 2.170088768005371, 
407, 1220384194, 0.25101224, -0.6051281, -0.11484606, -0.74674183, 9.959748268127441, -0.6796438097953796, 2.171987533569336, -4.269979476928711, 13.493165016174316, 2.829770088195801, 
408, 1220400861, 0.25065768, -0.6037145, -0.11371847, -0.74817616, 9.789977073669434, -0.9504806995391846, 2.3615846633911133, -3.2507851123809814, 13.004446029663086, 1.8905388116836548, 
409, 1220417528, 0.2502276, -0.60235506, -0.11308142, -0.74951124, 9.672125816345215, -1.4601482152938843, 2.4869437217712402, -1.2015883922576904, 11.431644439697266, -0.35266783833503723, 
410, 1220434195, 0.2500188, -0.60102725, -0.113131315, -0.75063854, 9.536270141601562, -1.695847988128662, 2.463024139404297, 3.4165046215057373, 9.393217086791992, -1.6640255451202393, 
411, 1220450862, 0.2502741, -0.59963155, -0.11377862, -0.75157136, 9.499761581420898, -1.5156434774398804, 2.358883857727051, 8.823335647583008, 8.25870418548584, -1.4289652109146118, 
412, 1220467529, 0.25080597, -0.5981974, -0.11463553, -0.7524063, 9.621827125549316, -0.9406692385673523, 2.344388961791992, 10.982221603393555, 7.9440789222717285, -0.7883145809173584, 
413, 1220484196, 0.2509815, -0.5968901, -0.11517429, -0.75330305, 9.660326957702637, -0.2148483544588089, 2.3968617916107178, 7.981553554534912, 7.7675089836120605, -1.2180250883102417, 
414, 1220500863, 0.25048855, -0.5960046, -0.11526515, -0.7541541, 9.532191276550293, 0.17959213256835938, 2.610997438430786, 2.0061662197113037, 5.674853324890137, -2.4705309867858887, 
415, 1220517530, 0.2491883, -0.59554476, -0.11504336, -0.75498116, 9.223983764648438, -0.08852620422840118, 2.880955457687378, -3.642145872116089, 3.269423484802246, -4.972930908203125, 
416, 1220534197, 0.2471178, -0.59563804, -0.114981905, -0.7555974, 9.08975601196289, -0.6780635118484497, 3.1873281002044678, -6.7107157707214355, -1.358402132987976, -8.799789428710938, 
417, 1220550864, 0.24487175, -0.59558064, -0.11558374, -0.7562816, 9.180183410644531, -1.1192668676376343, 3.43965220451355, -3.7255420684814453, -1.5798242092132568, -12.64301872253418, 
418, 1220567531, 0.2428496, -0.5949276, -0.11667574, -0.7572793, 9.225074768066406, -1.2695175409317017, 3.3873305320739746, 0.43993687629699707, 2.1484973430633545, -14.506614685058594, 
419, 1220584198, 0.24119166, -0.59382474, -0.117963135, -0.75847447, 9.117034912109375, -1.1653321981430054, 3.3202250003814697, 3.476793050765991, 5.262115001678467, -14.125033378601074, 
420, 1220600865, 0.23947714, -0.5929203, -0.11915597, -0.7595381, 8.998879432678223, -0.9354685544967651, 3.3399078845977783, 2.7097227573394775, 3.771984338760376, -13.608195304870605, 
421, 1220617532, 0.23735377, -0.5926151, -0.120207205, -0.7602767, 8.955879211425781, -0.7528364062309265, 3.397372007369995, -0.5619494318962097, -0.7782360911369324, -14.184163093566895, 
422, 1220634199, 0.23481938, -0.592986, -0.120912425, -0.7606629, 8.895530700683594, -0.7350250482559204, 3.425966262817383, -4.780057430267334, -5.5416388511657715, -13.76918888092041, 
423, 1220650866, 0.23234957, -0.59356207, -0.12156746, -0.7608673, 8.910277366638184, -1.0744540691375732, 3.542231321334839, -4.973137855529785, -7.23185920715332, -12.769763946533203, 
424, 1220667533, 0.23019831, -0.5940288, -0.12251866, -0.76100445, 9.04993724822998, -1.4322013854980469, 3.6450209617614746, -1.8437312841415405, -7.160815715789795, -12.293667793273926, 
425, 1220684200, 0.22844453, -0.5941136, -0.12395829, -0.7612335, 9.120624542236328, -1.8224735260009766, 3.655397415161133, 2.96671462059021, -5.248852729797363, -12.663440704345703, 
426, 1220700867, 0.22717403, -0.5940088, -0.12590739, -0.7613756, 9.08700942993164, -1.966401219367981, 3.5530505180358887, 7.847623825073242, -5.001863479614258, -12.3038330078125, 
427, 1220717534, 0.22653417, -0.59400123, -0.12815586, -0.76119715, 9.079526901245117, -1.936798095703125, 3.43269944190979, 12.096747398376465, -6.7516865730285645, -9.673893928527832, 
428, 1220734201, 0.22657585, -0.5944285, -0.13049817, -0.760453, 9.128191947937012, -1.8147398233413696, 3.321044445037842, 15.244577407836914, -10.896501541137695, -5.240262508392334, 
429, 1220750868, 0.22755073, -0.5950488, -0.1328674, -0.7592655, 9.390987396240234, -1.7005773782730103, 3.3265280723571777, 19.364896774291992, -12.935373306274414, 0.38394153118133545, 
430, 1220767535, 0.22920002, -0.5959736, -0.13471118, -0.7577175, 9.565499305725098, -1.4754021167755127, 3.1651949882507324, 19.204029083251953, -14.568330764770508, 6.863341331481934, 
431, 1220784202, 0.2314029, -0.59703785, -0.13581873, -0.75601065, 9.866324424743652, -1.1564271450042725, 3.1126255989074707, 17.638656616210938, -14.286898612976074, 13.143335342407227, 
432, 1220800869, 0.23386072, -0.59807456, -0.13616185, -0.75437135, 10.120020866394043, -0.8924702405929565, 3.095486640930176, 14.69003677368164, -12.41995906829834, 17.458572387695312, 
433, 1220817536, 0.23624033, -0.5990242, -0.1359475, -0.75291365, 10.224803924560547, -0.7175582051277161, 3.0330820083618164, 11.386494636535645, -10.40257453918457, 18.94778823852539, 
434, 1220834203, 0.23824276, -0.5998243, -0.13534403, -0.7517535, 9.981167793273926, -0.5942677855491638, 2.9498207569122314, 7.822488307952881, -8.135917663574219, 17.984573364257812, 
435, 1220850870, 0.2397607, -0.600432, -0.13456139, -0.75092596, 9.648090362548828, -0.6730010509490967, 2.9146077632904053, 4.887919902801514, -5.935230255126953, 15.49263858795166, 
436, 1220867537, 0.24080232, -0.6009279, -0.13375668, -0.7503395, 9.433752059936523, -0.9110471606254578, 2.8318002223968506, 2.8189735412597656, -4.780196666717529, 12.635506629943848, 
437, 1220884204, 0.24142429, -0.60125196, -0.13315597, -0.74998665, 9.47969913482666, -1.1313776969909668, 2.727841854095459, 2.151697874069214, -3.6545815467834473, 9.065337181091309, 
438, 1220900871, 0.24164048, -0.60142, -0.1329903, -0.7498118, 9.482658386230469, -1.2836627960205078, 2.7310616970062256, 2.748422145843506, -3.206178665161133, 4.71091890335083, 
439, 1220917538, 0.24153876, -0.6013987, -0.13314839, -0.7498335, 9.482967376708984, -1.4256728887557983, 2.6583163738250732, 3.2900021076202393, -2.2550761699676514, 1.2387069463729858, 
440, 1220934205, 0.24151602, -0.6010885, -0.13366428, -0.74999774, 9.381882667541504, -1.480360984802246, 2.6111161708831787, 5.84845495223999, -0.702293872833252, -0.3379787802696228, 
441, 1220950872, 0.24174654, -0.60063463, -0.13443248, -0.75014985, 9.25715160369873, -1.5552109479904175, 2.5705747604370117, 8.420112609863281, -0.1958923637866974, -0.2049848586320877, 
442, 1220967539, 0.24225157, -0.60012937, -0.13539894, -0.7502174, 9.218974113464355, -1.569022536277771, 2.562697410583496, 10.761347770690918, -0.35562607645988464, 0.4774465560913086, 
443, 1220984206, 0.24306202, -0.59957755, -0.13649517, -0.7501979, 9.338603019714355, -1.369820237159729, 2.4809422492980957, 12.864075660705566, -0.4080169200897217, 1.608798623085022, 
444, 1221000873, 0.24425381, -0.59902376, -0.13773353, -0.750027, 9.342514991760254, -1.1153461933135986, 2.4252114295959473, 15.327101707458496, -0.9010875225067139, 3.235309362411499, 
445, 1221017540, 0.24565195, -0.5985948, -0.13901041, -0.7496771, 9.170805931091309, -0.96323561668396, 2.341665029525757, 16.315614700317383, -2.144585609436035, 4.548781871795654, 
446, 1221034207, 0.24717689, -0.5984128, -0.14012279, -0.7491137, 9.05914306640625, -0.9735724925994873, 2.196211576461792, 15.832559585571289, -3.8990836143493652, 6.488958835601807, 
447, 1221050874, 0.24903095, -0.59845537, -0.1411845, -0.74826574, 9.058348655700684, -1.0475387573242188, 2.0818872451782227, 16.722246170043945, -5.810331344604492, 9.062091827392578, 
448, 1221067541, 0.25123215, -0.59872854, -0.14234523, -0.74709064, 9.040940284729004, -1.048654556274414, 1.9308595657348633, 18.56809425354004, -8.167213439941406, 11.215200424194336, 
449, 1221084208, 0.25356305, -0.59921926, -0.14345409, -0.74569637, 9.016375541687012, -0.9568363428115845, 1.8001810312271118, 18.771211624145508, -9.971659660339355, 12.706109046936035, 
450, 1221100875, 0.25586286, -0.60001546, -0.1445746, -0.7440524, 9.087071418762207, -0.7967092394828796, 1.6992031335830688, 18.363876342773438, -12.603252410888672, 13.215364456176758, 
451, 1221117542, 0.25797403, -0.6009704, -0.14573234, -0.742325, 9.20523452758789, -0.6817706823348999, 1.6647731065750122, 17.610347747802734, -14.003680229187012, 12.406937599182129, 
452, 1221134209, 0.259736, -0.60205686, -0.14679605, -0.7406184, 9.303017616271973, -0.46204453706741333, 1.6890333890914917, 15.381775856018066, -14.75743293762207, 11.092998504638672, 
453, 1221150876, 0.2609564, -0.60331285, -0.14766306, -0.7389933, 9.377503395080566, -0.41672301292419434, 1.7149360179901123, 11.804821968078613, -15.47231674194336, 9.192361831665039, 
454, 1221167543, 0.2615361, -0.6046398, -0.1484823, -0.7375381, 9.506691932678223, -0.5157232880592346, 1.868172526359558, 8.598955154418945, -15.682583808898926, 5.902767181396484, 
455, 1221184210, 0.2615685, -0.60572934, -0.14949135, -0.73642814, 9.463351249694824, -0.8466559648513794, 1.7505604028701782, 7.3558831214904785, -13.932967185974121, 1.476598858833313, 
456, 1221200877, 0.26134974, -0.6065628, -0.1507636, -0.73555976, 9.092957496643066, -1.0960396528244019, 1.6336442232131958, 7.8223161697387695, -12.349678039550781, -1.5998663902282715, 
457, 1221217544, 0.2613405, -0.60718054, -0.15227075, -0.73474264, 8.650218963623047, -1.3321665525436401, 1.6222822666168213, 10.240887641906738, -11.240341186523438, -1.8393069505691528, 
458, 1221234211, 0.26152083, -0.6082124, -0.15375207, -0.73351556, 8.422037124633789, -1.266076683998108, 1.6284172534942627, 10.617461204528809, -14.792919158935547, 0.3899025619029999, 
459, 1221250878, 0.2618064, -0.60978115, -0.15502045, -0.7318422, 8.662457466125488, -1.135805606842041, 1.7631548643112183, 9.507563591003418, -18.867115020751953, 3.171689033508301, 
460, 1221267545, 0.26229343, -0.61142206, -0.15598886, -0.730091, 8.924850463867188, -1.2249364852905273, 1.7206531763076782, 8.723943710327148, -18.791461944580078, 5.631589412689209, 
461, 1221284212, 0.26297462, -0.6128158, -0.15677516, -0.72850734, 9.000205993652344, -1.3936299085617065, 1.5407862663269043, 8.95997428894043, -16.312618255615234, 6.80795431137085, 
462, 1221300879, 0.2639935, -0.613737, -0.15777873, -0.7271454, 8.977179527282715, -1.4267127513885498, 1.4260149002075195, 12.031925201416016, -13.028729438781738, 6.647477149963379, 
463, 1221317546, 0.2652224, -0.6142964, -0.15908527, -0.7259401, 8.89201545715332, -1.3482303619384766, 1.3492389917373657, 14.923168182373047, -10.873443603515625, 5.729747772216797, 
464, 1221334213, 0.26625106, -0.6145837, -0.1602533, -0.7250629, 8.95991039276123, -1.2915945053100586, 1.2903940677642822, 13.579877853393555, -8.092320442199707, 4.42121696472168, 
465, 1221350880, 0.26700327, -0.61465377, -0.16125134, -0.72450554, 8.887373924255371, -1.1773231029510498, 1.2074416875839233, 11.521225929260254, -5.633983612060547, 2.9089510440826416, 
466, 1221367547, 0.2674562, -0.61454636, -0.16209505, -0.72424114, 8.794683456420898, -0.9374261498451233, 1.3314013481140137, 9.571725845336914, -3.557509422302246, 1.3463449478149414, 
467, 1221384214, 0.26770267, -0.6142865, -0.16290691, -0.7241883, 8.770868301391602, -0.7774955034255981, 1.5556144714355469, 8.603653907775879, -2.0694234371185303, -0.10413485020399094, 
468, 1221400881, 0.26750717, -0.6140668, -0.16331181, -0.72435564, 8.79757022857666, -0.7322448492050171, 1.4981685876846313, 4.282917499542236, -1.0702332258224487, -0.9677056074142456, 
469, 1221417548, 0.26687312, -0.6138927, -0.16342367, -0.7247118, 8.73462963104248, -1.0474449396133423, 1.3998689651489258, 0.7676766514778137, -0.45707786083221436, -2.191096067428589, 
470, 1221434215, 0.26579493, -0.6139283, -0.16331144, -0.7251031, 8.8124418258667, -1.274672269821167, 1.452497959136963, -2.769879102706909, -1.4216394424438477, -3.31697940826416, 
471, 1221450882, 0.26464176, -0.6138684, -0.1628343, -0.72568274, 8.887491226196289, -1.3015278577804565, 1.4586799144744873, -4.872438430786133, 0.43150997161865234, -2.5960328578948975, 
472, 1221467549, 0.26390672, -0.61326396, -0.1621014, -0.7266249, 8.50235652923584, -1.3814051151275635, 1.2402045726776123, -3.9041123390197754, 5.627917766571045, -0.7294818162918091, 
473, 1221484216, 0.26333195, -0.6123272, -0.16124925, -0.7278122, 7.91290807723999, -1.4136847257614136, 1.1576374769210815, -3.4622809886932373, 8.720166206359863, -0.24205929040908813, 
474, 1221500883, 0.2623667, -0.611876, -0.16049275, -0.7287067, 7.5235443115234375, -1.4206146001815796, 1.3028087615966797, -5.1796770095825195, 4.460222244262695, -1.5409820079803467, 
475, 1221517550, 0.2607215, -0.6126104, -0.16002777, -0.7287826, 7.518809795379639, -1.2583304643630981, 1.4243087768554688, -7.791750907897949, -6.198282241821289, -3.395418882369995, 
476, 1221534217, 0.25853693, -0.61475074, -0.15991287, -0.7277831, 7.969494819641113, -0.9124655723571777, 1.4819231033325195, -9.59698486328125, -18.994783401489258, -4.100247383117676, 
477, 1221550884, 0.25533897, -0.6192055, -0.16001795, -0.72510755, 8.689538955688477, -1.0072064399719238, 2.6420938968658447, -15.12574577331543, -39.153953552246094, -4.6053266525268555, 
478, 1221567551, 0.25088164, -0.6256514, -0.15911554, -0.721319, 10.347655296325684, -0.5459924936294556, 3.2540273666381836, -27.80338478088379, -53.44877624511719, -2.4713947772979736, 
479, 1221584218, 0.24680848, -0.63252527, -0.15610136, -0.71737707, 12.561620712280273, 0.10856941342353821, 3.2578110694885254, -37.17938995361328, -52.193599700927734, 9.243779182434082, 
480, 1221600885, 0.24477091, -0.637897, -0.1512443, -0.71435285, 13.328314781188965, -0.2229965627193451, 3.1528472900390625, -35.842525482177734, -35.504371643066406, 24.13627815246582, 
481, 1221617552, 0.24380814, -0.6414055, -0.14627454, -0.71257293, 12.802109718322754, -1.199617862701416, 3.383699417114258, -29.850048065185547, -19.614295959472656, 25.88379669189453, 
482, 1221634219, 0.2424408, -0.64311886, -0.14215277, -0.7123295, 11.74787712097168, -1.8089512586593628, 3.1322238445281982, -25.987897872924805, -5.904387950897217, 15.782708168029785, 
483, 1221650886, 0.24035516, -0.64408207, -0.13887641, -0.7128122, 11.049752235412598, -1.2150064706802368, 2.7443416118621826, -24.51028060913086, -1.154328465461731, 6.569793224334717, 
484, 1221667553, 0.23783255, -0.6456563, -0.13651651, -0.71269, 10.632319450378418, -0.832027792930603, 2.668550491333008, -22.406309127807617, -8.77604866027832, 1.946927785873413, 
485, 1221684220, 0.23488662, -0.64860666, -0.13469611, -0.71133304, 10.947819709777832, -0.4311310946941376, 2.913506507873535, -22.601961135864258, -22.31485366821289, 0.8084292411804199, 
486, 1221700887, 0.23241664, -0.6523549, -0.13242523, -0.70913994, 12.19023609161377, -0.15032903850078583, 2.853863000869751, -23.36513328552246, -28.77873992919922, 7.214576244354248, 
487, 1221717554, 0.2317122, -0.6559889, -0.12989442, -0.7064812, 13.95716381072998, -0.19482530653476715, 2.478844404220581, -15.996591567993164, -28.324119567871094, 17.653465270996094, 
488, 1221734221, 0.23223987, -0.6581389, -0.12676552, -0.7048748, 14.664368629455566, -1.227150559425354, 2.2287025451660156, -11.927181243896484, -14.33314323425293, 23.348758697509766, 
489, 1221750888, 0.2326836, -0.6579053, -0.12285776, -0.70563805, 13.385828971862793, -2.195870876312256, 1.911728024482727, -14.482032775878906, 9.116549491882324, 20.595600128173828, 
490, 1221767555, 0.23279144, -0.65651506, -0.11987122, -0.70740867, 11.53878402709961, -2.862884044647217, 1.4578179121017456, -10.312856674194336, 17.486162185668945, 12.234448432922363, 
491, 1221784222, 0.23299184, -0.65562254, -0.12007845, -0.70813507, 10.027605056762695, -2.7001445293426514, 1.4623984098434448, 5.7269697189331055, 5.310955047607422, 0.3374282121658325, 
492, 1221800889, 0.23296651, -0.6556064, -0.122957274, -0.7076641, 9.685349464416504, -1.8822818994522095, 1.9005309343338013, 17.26081657409668, -8.81306266784668, -10.185277938842773, 
493, 1221817556, 0.23247026, -0.6550871, -0.12579475, -0.7078094, 9.855477333068848, -0.9144547581672668, 2.257373094558716, 15.252263069152832, -3.927879571914673, -13.706464767456055, 
494, 1221834223, 0.23207298, -0.65369093, -0.127624, -0.7089023, 9.904802322387695, 0.05778411403298378, 2.0535061359405518, 11.277788162231445, 6.309035301208496, -10.961080551147461, 
495, 1221850890, 0.23183277, -0.6518454, -0.12868248, -0.71048707, 9.705039024353027, 0.3372053802013397, 1.7512431144714355, 8.643609046936035, 12.052905082702637, -7.868343830108643, 
496, 1221867557, 0.23153925, -0.64997065, -0.12935434, -0.7121764, 9.702115058898926, 0.008560937829315662, 1.573213815689087, 6.382197380065918, 13.241592407226562, -6.573915004730225, 
497, 1221884224, 0.23114923, -0.6482042, -0.12961161, -0.71386427, 9.677638053894043, -0.41499680280685425, 1.5093340873718262, 3.7642693519592285, 13.276691436767578, -5.071190357208252, 
498, 1221900891, 0.23060267, -0.647085, -0.12912914, -0.7151427, 9.386320114135742, -0.69538813829422, 1.5926872491836548, -1.2170389890670776, 9.309432029724121, -1.3002419471740723, 
499, 1221917558, 0.22991349, -0.647021, -0.12773527, -0.7156727, 9.078827857971191, -0.9045643210411072, 1.797813892364502, -7.358083248138428, 2.110480785369873, 4.181421756744385, 
500, 1221934225, 0.22929668, -0.64744675, -0.12587577, -0.71581495, 9.033787727355957, -1.150100588798523, 1.8120481967926025, -9.679082870483398, -1.2432410717010498, 7.665558338165283, 
501, 1221950892, 0.22888272, -0.64774096, -0.12408005, -0.7159947, 9.03136920928955, -1.2694432735443115, 1.6330591440200806, -8.243388175964355, -0.3673759698867798, 8.212479591369629, 
502, 1221967559, 0.22871856, -0.6477829, -0.1228578, -0.71622, 9.228487014770508, -1.3064892292022705, 1.534907579421997, -3.9839024543762207, 0.3865789473056793, 6.59171724319458, 
503, 1221984226, 0.22873206, -0.64731497, -0.12230015, -0.71673405, 9.635469436645508, -1.304499626159668, 1.5757416486740112, 0.6494548320770264, 3.283682346343994, 3.621796131134033, 
504, 1222000893, 0.2286752, -0.646561, -0.12204833, -0.7174754, 9.854644775390625, -1.1909468173980713, 1.6239001750946045, 2.076824903488159, 5.167265892028809, 1.312772512435913, 
505, 1222017560, 0.22852853, -0.6457839, -0.12185557, -0.7182543, 9.941946983337402, -1.1498125791549683, 1.5879324674606323, 1.938542366027832, 5.283202648162842, 0.523939847946167, 
506, 1222034227, 0.22858761, -0.64510673, -0.12184902, -0.71884483, 10.025533676147461, -1.2561360597610474, 1.4454543590545654, 3.8515615463256836, 3.8238096237182617, 1.1098240613937378, 
507, 1222050894, 0.22918953, -0.64438725, -0.122143626, -0.7192485, 9.976777076721191, -1.4739344120025635, 1.484161138534546, 7.941681385040283, 3.1914455890655518, 2.7120015621185303, 
508, 1222067561, 0.23031634, -0.6435598, -0.12260408, -0.719551, 9.90739917755127, -1.6292229890823364, 1.6107900142669678, 11.30251407623291, 3.4643054008483887, 4.633692264556885, 
509, 1222084228, 0.23191278, -0.64263725, -0.12309437, -0.7197791, 9.871590614318848, -1.3462706804275513, 1.6555665731430054, 13.741063117980957, 3.9548792839050293, 6.859130859375, 
510, 1222100895, 0.23395689, -0.6416073, -0.1236173, -0.7199466, 9.7973051071167, -0.8960871696472168, 1.7110508680343628, 16.052715301513672, 4.55142068862915, 8.929367065429688, 
511, 1222117562, 0.23612538, -0.6404698, -0.12412923, -0.72016346, 9.825551986694336, -0.6434110403060913, 1.8485431671142578, 16.88260841369629, 5.395002365112305, 9.467414855957031, 
512, 1222134229, 0.23805963, -0.6394043, -0.12468152, -0.7203779, 9.788930892944336, -0.6025540828704834, 1.8400238752365112, 15.82856559753418, 4.773892879486084, 8.188339233398438, 
513, 1222150896, 0.23955353, -0.63849336, -0.12537207, -0.7205709, 9.687885284423828, -0.816834032535553, 1.782026767730713, 14.263833045959473, 3.3186726570129395, 5.5645623207092285, 
514, 1222167563, 0.24065708, -0.63760275, -0.12607345, -0.72086936, 9.719850540161133, -0.9568278193473816, 1.856550931930542, 12.522306442260742, 3.3202085494995117, 3.4442763328552246, 
515, 1222184230, 0.24182466, -0.63661367, -0.12667586, -0.72124714, 9.83511734008789, -0.8625569939613342, 1.7870069742202759, 12.440812110900879, 4.3699259757995605, 3.9905505180358887, 
516, 1222200897, 0.2433091, -0.635338, -0.12690297, -0.72183245, 9.991267204284668, -0.7236102819442749, 1.781614065170288, 12.260220527648926, 7.599833011627197, 6.619787216186523, 
517, 1222217564, 0.24485593, -0.6336333, -0.12652108, -0.7228741, 9.852782249450684, -0.7028618454933167, 1.716213583946228, 9.927404403686523, 12.781584739685059, 8.48189926147461, 
518, 1222234231, 0.24609819, -0.6319983, -0.12568653, -0.7240281, 9.637922286987305, -0.6573765873908997, 1.6871577501296997, 6.04734468460083, 13.43487548828125, 8.807140350341797, 
519, 1222250898, 0.2469278, -0.63081443, -0.12461702, -0.72496235, 9.382869720458984, -0.5715534687042236, 1.6044868230819702, 2.5309078693389893, 10.27314567565918, 8.551612854003906, 
520, 1222267565, 0.24738537, -0.6299386, -0.12343711, -0.72576934, 9.177897453308105, -0.6025534272193909, 1.7616651058197021, 0.04649987444281578, 8.041571617126465, 7.68811559677124, 
521, 1222284232, 0.24736838, -0.6291832, -0.12213037, -0.7266509, 9.007473945617676, -0.6599686145782471, 1.8106359243392944, -3.057318925857544, 7.598304748535156, 5.823049545288086, 
522, 1222300899, 0.24686228, -0.62851584, -0.12077458, -0.7276267, 8.843646049499512, -0.7636005878448486, 1.742205023765564, -5.5560431480407715, 7.222771644592285, 3.5342979431152344, 
523, 1222317566, 0.24614657, -0.62809515, -0.11940334, -0.7284582, 8.910896301269531, -0.9557690620422363, 1.6437959671020508, -6.842952728271484, 5.218652725219727, 3.007110834121704, 
524, 1222334233, 0.24581368, -0.6279743, -0.1180463, -0.72889584, 9.1355562210083, -1.2882214784622192, 1.6453572511672974, -5.387011528015137, 2.319986343383789, 5.761322021484375, 
525, 1222350900, 0.2461866, -0.62806386, -0.11674471, -0.72890234, 9.365038871765137, -1.6084812879562378, 1.6269865036010742, -1.990728497505188, -0.12650756537914276, 9.973652839660645, 
526, 1222367567, 0.24728249, -0.6281656, -0.115514465, -0.7286398, 9.45583438873291, -1.6323111057281494, 1.6340436935424805, 1.651495099067688, -0.8843238949775696, 13.742618560791016, 
527, 1222384234, 0.24874675, -0.6282592, -0.114117086, -0.7282807, 9.380677223205566, -1.325055480003357, 1.7058786153793335, 2.476378917694092, -0.6794862747192383, 16.459003448486328, 
528, 1222400901, 0.25033405, -0.6282451, -0.11248552, -0.7280028, 9.165146827697754, -0.8979034423828125, 1.5864230394363403, 1.9574334621429443, 0.7055345773696899, 17.86467742919922, 
529, 1222417568, 0.25170872, -0.6281945, -0.11076011, -0.727837, 8.87478256225586, -0.6612536311149597, 1.482628583908081, 0.5512178540229797, 1.3697876930236816, 16.992229461669922, 
530, 1222434235, 0.25273186, -0.6281957, -0.10926423, -0.7277075, 8.6143798828125, -0.6310799717903137, 1.28118097782135, 0.11404702067375183, 0.5927870869636536, 14.238729476928711, 
531, 1222450902, 0.25341544, -0.6284215, -0.108060636, -0.7274545, 8.622432708740234, -0.8946639895439148, 1.1729152202606201, -0.20030423998832703, -1.820359468460083, 11.667134284973145, 
532, 1222467569, 0.2541961, -0.62872845, -0.10728342, -0.72703195, 8.792614936828613, -1.2435390949249268, 1.220601201057434, 2.231321334838867, -3.6051809787750244, 10.647414207458496, 
533, 1222484236, 0.25507838, -0.62890106, -0.10669302, -0.72666025, 8.865763664245605, -1.4437916278839111, 1.2904318571090698, 3.8674490451812744, -2.971176862716675, 10.17632007598877, 
534, 1222500903, 0.25599977, -0.62903726, -0.10629848, -0.726276, 8.916322708129883, -1.2648903131484985, 1.4205067157745361, 5.1526689529418945, -3.164501428604126, 9.532505989074707, 
535, 1222517570, 0.2570085, -0.6288355, -0.10587575, -0.72615623, 8.905447959899902, -0.8632491827011108, 1.2352827787399292, 5.702823162078857, -0.19901716709136963, 9.361637115478516, 
536, 1222534237, 0.25800386, -0.6281215, -0.10503432, -0.7265433, 8.730849266052246, -0.7399608492851257, 1.1831459999084473, 4.113759994506836, 5.281866550445557, 9.85144329071045, 
537, 1222550904, 0.25897658, -0.626978, -0.103836395, -0.7273568, 8.463418006896973, -1.072731852531433, 1.0779908895492554, 2.726499080657959, 9.884087562561035, 10.230167388916016, 
538, 1222567571, 0.25985968, -0.62597257, -0.1028076, -0.7280535, 8.165746688842773, -1.4682008028030396, 1.0032793283462524, 2.995176315307617, 8.336042404174805, 9.36076831817627, 
539, 1222584238, 0.2607402, -0.62545747, -0.10203073, -0.7282907, 8.351727485656738, -1.3382444381713867, 1.1338053941726685, 3.748612403869629, 3.450352191925049, 9.44528865814209, 
540, 1222600905, 0.26204047, -0.6253009, -0.10150527, -0.72803193, 8.70883560180664, -1.0191627740859985, 1.3008924722671509, 6.459167957305908, -0.6156207919120789, 11.593966484069824, 
541, 1222617572, 0.2635605, -0.6251371, -0.10074092, -0.7277299, 9.042004585266113, -0.6713409423828125, 1.2790367603302002, 6.13402795791626, -0.1539004147052765, 13.7730073928833, 
542, 1222634239, 0.26493162, -0.6245911, -0.09939286, -0.7278862, 8.973884582519531, -0.8219914436340332, 1.1368926763534546, 3.0122735500335693, 4.6757941246032715, 14.46921443939209, 
543, 1222650906, 0.2660715, -0.623896, -0.09740525, -0.7283352, 8.73154354095459, -1.2004295587539673, 1.0434396266937256, -1.0963718891143799, 7.689631938934326, 15.43767261505127, 
544, 1222667573, 0.26745754, -0.623388, -0.095649384, -0.7284951, 8.593153953552246, -1.7206169366836548, 0.7435940504074097, 0.907446026802063, 5.273506164550781, 16.320491790771484, 
545, 1222684240, 0.2694701, -0.62315, -0.09482828, -0.72806436, 8.70404052734375, -1.8595553636550903, 0.4752020537853241, 8.140942573547363, 0.09964632987976074, 16.709335327148438, 
546, 1222700907, 0.27172822, -0.62360805, -0.0946611, -0.72685367, 9.243414878845215, -1.6649370193481445, 0.6598357558250427, 11.740933418273926, -7.77308988571167, 17.045461654663086, 
547, 1222717574, 0.274256, -0.6245912, -0.09487577, -0.7250298, 10.092487335205078, -1.2197165489196777, 1.3201881647109985, 14.232550621032715, -13.553037643432617, 18.244701385498047, 
548, 1222734241, 0.2767998, -0.62562084, -0.09572213, -0.7230615, 10.684795379638672, -0.9587315917015076, 2.2528069019317627, 17.34915542602539, -15.552515029907227, 15.894824028015137, 
549, 1222750908, 0.27791974, -0.62652886, -0.09750709, -0.7216057, 11.056544303894043, -1.2087081670761108, 3.0663459300994873, 15.784184455871582, -15.465754508972168, 3.736053705215454, 
550, 1222767575, 0.27698818, -0.62760246, -0.100646734, -0.72059906, 10.828158378601074, -1.782810926437378, 3.7989914417266846, 12.22753620147705, -18.141080856323242, -13.20998477935791, 
551, 1222784242, 0.27487272, -0.6280004, -0.10549022, -0.7203695, 10.6040678024292, -2.608598470687866, 3.89597487449646, 16.30670166015625, -15.521636009216309, -28.37040901184082, 
552, 1222800909, 0.27281192, -0.62792635, -0.11132766, -0.72033924, 10.091593742370605, -3.038416624069214, 3.7849771976470947, 22.21240234375, -14.181020736694336, -33.115238189697266, 
553, 1222817576, 0.27184823, -0.62787485, -0.117352776, -0.71979177, 9.905613899230957, -2.52851939201355, 3.2822535037994385, 28.233192443847656, -16.05683135986328, -27.518251419067383, 
554, 1222834243, 0.272158, -0.628073, -0.12276614, -0.71859795, 10.16254711151123, -1.8177199363708496, 3.0767784118652344, 30.761249542236328, -17.924806594848633, -17.172466278076172, 
555, 1222850910, 0.2730493, -0.6286073, -0.12704608, -0.717047, 10.204933166503906, -0.985676646232605, 2.9409117698669434, 27.34256362915039, -18.526094436645508, -8.454511642456055, 
556, 1222867577, 0.27321073, -0.630651, -0.13044342, -0.71457666, 10.339712142944336, -0.5068454742431641, 3.2471930980682373, 17.807289123535156, -28.93162727355957, -5.185395240783691, 
557, 1222884244, 0.27114555, -0.6345532, -0.13398547, -0.7112457, 11.841129302978516, -1.5990444421768188, 3.3890044689178467, 6.1410369873046875, -44.07427215576172, -13.455253601074219, 
558, 1222900911, 0.26583022, -0.63802415, -0.13818532, -0.7093408, 14.088604927062988, -3.5815372467041016, 2.7982828617095947, -5.327245712280273, -39.98115539550781, -35.2728157043457, 
559, 1222917578, 0.25997642, -0.6384705, -0.14276308, -0.7102017, 13.921586990356445, -3.6920554637908936, 2.5091280937194824, -2.9399726390838623, -14.305103302001953, -47.50276565551758, 
560, 1222934245, 0.2567459, -0.63695765, -0.14742349, -0.71178156, 12.522797584533691, -2.3503170013427734, 2.50056529045105, 11.77985954284668, 0.8401397466659546, -38.285728454589844, 
561, 1222950912, 0.25578424, -0.634963, -0.1513773, -0.7130788, 11.516563415527344, -1.0664700269699097, 2.3247013092041016, 19.398494720458984, 5.501293659210205, -24.086639404296875, 
562, 1222967579, 0.2548336, -0.633942, -0.1528606, -0.7140105, 10.87940788269043, -0.3422008454799652, 2.2097008228302, 6.002923488616943, 3.4842965602874756, -11.589742660522461, 
563, 1222984246, 0.25391656, -0.63383013, -0.1525541, -0.7145019, 10.312507629394531, -0.6811124682426453, 2.5220203399658203, -3.769261360168457, 0.26830580830574036, -1.8892501592636108, 
564, 1223000913, 0.25341535, -0.63383985, -0.15146822, -0.7149022, 9.993232727050781, -1.6945672035217285, 2.713984489440918, -5.903811931610107, 1.062965750694275, 3.839613199234009, 
565, 1223017580, 0.25387767, -0.63341165, -0.15082741, -0.71525323, 9.602189064025879, -2.5568065643310547, 2.666360378265381, 1.2958234548568726, 3.2161357402801514, 6.257118225097656, 
566, 1223034247, 0.25520012, -0.63210267, -0.15038723, -0.71603286, 9.158187866210938, -2.7058746814727783, 2.5262985229492188, 7.122986793518066, 9.944201469421387, 7.934103012084961, 
567, 1223050914, 0.256933, -0.6302887, -0.14996691, -0.7170994, 8.93991756439209, -2.3695175647735596, 2.111302137374878, 9.59440803527832, 14.057694435119629, 8.821773529052734, 
568, 1223067581, 0.25871858, -0.62855566, -0.1496948, -0.718035, 8.904208183288574, -1.7916613817214966, 1.9328458309173584, 10.545632362365723, 12.878414154052734, 8.738410949707031, 
569, 1223084248, 0.26036716, -0.62744284, -0.15011717, -0.718324, 8.80346965789795, -1.4080458879470825, 1.9336698055267334, 12.944823265075684, 5.643058776855469, 6.840312957763672, 
570, 1223100915, 0.26180205, -0.62708896, -0.15167375, -0.7177843, 8.834426879882812, -1.2086992263793945, 2.0567615032196045, 17.123620986938477, -3.933122158050537, 3.15519380569458, 
571, 1223117582, 0.26297054, -0.62707096, -0.15404955, -0.71686643, 9.183083534240723, -1.0626212358474731, 2.061729669570923, 19.80914878845215, -8.977898597717285, -0.6620957851409912, 
572, 1223134249, 0.26368535, -0.62724996, -0.15613094, -0.71599644, 9.593049049377441, -0.5470287203788757, 1.8813270330429077, 15.991385459899902, -9.691044807434082, -1.5082122087478638, 
573, 1223150916, 0.26408553, -0.62743706, -0.1570338, -0.71548724, 10.012770652770996, 0.010601179674267769, 1.7860645055770874, 8.428771018981934, -6.377417087554932, 1.3857243061065674, 
574, 1223167583, 0.2643451, -0.6273064, -0.15677957, -0.7155618, 10.140856742858887, 0.19112342596054077, 1.8070919513702393, 2.0744946002960205, -0.3447085916996002, 4.293181896209717, 
575, 1223184250, 0.2641764, -0.6270435, -0.15573242, -0.7160829, 9.871965408325195, -0.2608531713485718, 1.6692010164260864, -3.910207748413086, 3.2108852863311768, 4.66502046585083, 
576, 1223200917, 0.26387477, -0.62678504, -0.15489385, -0.71660215, 9.549298286437988, -0.8954746723175049, 1.620469570159912, -3.468606472015381, 2.663196086883545, 3.1258766651153564, 
577, 1223217584, 0.26357582, -0.62686545, -0.15450047, -0.71672684, 9.419963836669922, -1.2600488662719727, 1.6348389387130737, -1.4564341306686401, -1.5101054906845093, 2.2993290424346924, 
578, 1223234251, 0.26316386, -0.6271891, -0.15417086, -0.7166658, 9.698143005371094, -1.4508246183395386, 1.6248960494995117, -1.8700408935546875, -3.743328332901001, 2.0571224689483643, 
579, 1223250918, 0.26291254, -0.6272214, -0.15396649, -0.7167739, 9.943522453308105, -1.4011147022247314, 1.731471300125122, -0.2122972458600998, -1.632815957069397, 1.6895031929016113, 
580, 1223267585, 0.2628315, -0.6268073, -0.15372051, -0.7172185, 9.902068138122559, -1.1094963550567627, 1.7877283096313477, 0.7692838907241821, 2.275784492492676, 1.621661901473999, 
581, 1223284252, 0.26302686, -0.62610584, -0.15339175, -0.7178297, 9.619905471801758, -0.9435215592384338, 1.6793218851089478, 1.8919976949691772, 4.85305643081665, 2.735564947128296, 
582, 1223300919, 0.26329204, -0.62562346, -0.15301548, -0.7182331, 9.421283721923828, -0.9458903670310974, 1.603600025177002, 1.7858840227127075, 3.0386266708374023, 3.8917346000671387, 
583, 1223317586, 0.26348332, -0.6254032, -0.15274942, -0.7184115, 9.413572311401367, -0.9751721024513245, 1.4686771631240845, 1.7790323495864868, 0.5012788772583008, 3.736598014831543, 
584, 1223334253, 0.26337627, -0.62537277, -0.15243435, -0.7185442, 9.699774742126465, -0.9612918496131897, 1.4992655515670776, -0.05607260391116142, -0.8533576130867004, 2.7531862258911133, 
585, 1223350920, 0.26305485, -0.62525153, -0.1521, -0.7188382, 10.048945426940918, -0.8919499516487122, 1.588990569114685, -1.067287564277649, 0.10229713469743729, 1.3914357423782349, 
586, 1223367587, 0.26255703, -0.62481827, -0.1517227, -0.71947646, 10.191668510437012, -0.8945378065109253, 1.592820167541504, -1.826588749885559, 3.021286725997925, -0.24221289157867432, 
587, 1223384254, 0.26196763, -0.62393653, -0.15153858, -0.7204946, 9.958550453186035, -1.0785834789276123, 1.5971651077270508, -0.8575133681297302, 6.432137489318848, -2.679344892501831, 
588, 1223400921, 0.26130742, -0.6229925, -0.15162742, -0.7215317, 9.655542373657227, -1.3270729780197144, 1.5872266292572021, 0.28323811292648315, 6.2598090171813965, -4.30086612701416, 
589, 1223417588, 0.26089376, -0.62209713, -0.1521134, -0.7223512, 9.36527156829834, -1.5360267162322998, 1.5467830896377563, 3.4641690254211426, 4.632223129272461, -4.338375091552734, 
590, 1223434255, 0.26084954, -0.62125194, -0.15297766, -0.7229119, 9.316620826721191, -1.5124517679214478, 1.6472864151000977, 7.101224899291992, 2.9861724376678467, -3.612089157104492, 
591, 1223450922, 0.26115328, -0.6204125, -0.1541363, -0.723277, 9.301445960998535, -1.2069705724716187, 1.7070786952972412, 10.182269096374512, 1.971218228340149, -2.80395770072937, 
592, 1223467589, 0.26132706, -0.6197962, -0.15503038, -0.72355133, 9.422201156616211, -0.9523694515228271, 1.7336714267730713, 8.055209159851074, 0.808593213558197, -1.9147741794586182, 
593, 1223484256, 0.26134992, -0.6192988, -0.15562628, -0.723841, 9.492085456848145, -1.1061739921569824, 1.669172763824463, 5.673098564147949, 0.6622804403305054, -1.301464557647705, 
594, 1223500923, 0.26147282, -0.61875284, -0.15615743, -0.7241491, 9.516519546508789, -1.3373700380325317, 1.753816843032837, 5.887297630310059, 1.203169584274292, -0.6059004664421082, 
595, 1223517590, 0.26202226, -0.618027, -0.15689185, -0.72441167, 9.680103302001953, -1.3373819589614868, 1.9086394309997559, 9.089424133300781, 2.0006470680236816, 0.5372649431228638, 
596, 1223534257, 0.26300934, -0.617063, -0.15787725, -0.72466147, 9.628907203674316, -1.3541245460510254, 1.932289958000183, 12.633919715881348, 3.154282569885254, 1.4109915494918823, 
597, 1223550924, 0.2641451, -0.6160242, -0.15889457, -0.72490984, 9.415323257446289, -1.2997946739196777, 1.9811166524887085, 13.545270919799805, 3.627298355102539, 1.9299566745758057, 
598, 1223567591, 0.26546326, -0.61494994, -0.15982461, -0.725136, 9.13295841217041, -1.2448399066925049, 1.8436030149459839, 14.001256942749023, 4.065545082092285, 3.2124879360198975, 
599, 1223584258, 0.26710477, -0.61418146, -0.16062728, -0.7250069, 8.973793983459473, -0.9537058472633362, 1.6321306228637695, 14.515023231506348, 1.6336177587509155, 6.3312602043151855, 
600, 1223600925, 0.26891208, -0.613992, -0.16121352, -0.72436893, 9.206103324890137, -0.5903909802436829, 1.5362262725830078, 13.669615745544434, -2.8218376636505127, 9.653936386108398, 
601, 1223617592, 0.27051282, -0.61435735, -0.1613461, -0.723433, 9.786035537719727, -0.1303647756576538, 1.4530221223831177, 9.844597816467285, -6.227433681488037, 11.709485054016113, 
602, 1223634259, 0.27145588, -0.61491287, -0.16091134, -0.7227043, 10.268255233764648, -0.1016920953989029, 1.3663734197616577, 3.6594417095184326, -5.966794967651367, 10.667539596557617, 
603, 1223650926, 0.271613, -0.6152257, -0.1601311, -0.7225523, 10.183703422546387, -0.4240837097167969, 1.5550819635391235, -1.6014409065246582, -2.5348446369171143, 6.878625392913818, 
604, 1223667593, 0.27123475, -0.61509275, -0.15919714, -0.7230139, 9.764190673828125, -1.006784200668335, 1.6881985664367676, -4.4268412590026855, 1.9727027416229248, 3.2468578815460205, 
605, 1223684260, 0.27079388, -0.6146986, -0.15834136, -0.72370195, 9.358128547668457, -1.2271144390106201, 1.6171859502792358, -4.0592360496521, 4.0185441970825195, 1.8982086181640625, 
606, 1223700927, 0.27048162, -0.6143272, -0.15768161, -0.72427785, 9.1058349609375, -1.2803246974945068, 1.5931943655014038, -2.475832462310791, 3.2111411094665527, 1.9356542825698853, 
607, 1223717594, 0.2700414, -0.61418563, -0.15701602, -0.7247066, 9.0159330368042, -1.3129807710647583, 1.683395266532898, -3.29874324798584, 1.319182276725769, 1.8444219827651978, 
608, 1223734261, 0.26949564, -0.61411816, -0.1561869, -0.72514606, 8.987679481506348, -1.314479947090149, 1.7113208770751953, -4.6396708488464355, 1.1795289516448975, 2.081697940826416, 
609, 1223750928, 0.26892102, -0.6137398, -0.1553813, -0.7258524, 8.865375518798828, -1.4043476581573486, 1.678839087486267, -4.434096813201904, 3.7916083335876465, 0.9860056638717651, 
610, 1223767595, 0.26846096, -0.6128714, -0.15495528, -0.7268469, 8.597222328186035, -1.4322452545166016, 1.5403025150299072, -1.4622355699539185, 6.876716613769531, -1.1071538925170898, 
611, 1223784262, 0.26806316, -0.61181486, -0.154973, -0.7278792, 8.41102409362793, -1.4966472387313843, 1.369475245475769, 1.361353874206543, 7.223615646362305, -2.933340072631836, 
612, 1223800929, 0.26780292, -0.6106464, -0.15555687, -0.728831, 8.428604125976562, -1.4726020097732544, 1.2855288982391357, 5.031130313873291, 6.556072235107422, -4.614097595214844, 
613, 1223817596, 0.26741487, -0.6094892, -0.15646796, -0.7297465, 8.598062515258789, -1.4290027618408203, 1.18345046043396, 6.163160800933838, 5.612974166870117, -6.55205774307251, 
614, 1223834263, 0.26668277, -0.6084299, -0.15748183, -0.73067975, 8.695389747619629, -1.3041541576385498, 1.161072015762329, 5.036893367767334, 4.645441055297852, -8.642911911010742, 
615, 1223850930, 0.26582134, -0.6074601, -0.15849589, -0.73158073, 8.620428085327148, -1.0917860269546509, 1.330995798110962, 4.382142543792725, 3.9251091480255127, -9.139273643493652, 
616, 1223867597, 0.26491052, -0.6066957, -0.15903975, -0.73242694, 8.90645694732666, -1.01457679271698, 1.3925013542175293, 1.4644960165023804, 3.4782819747924805, -7.11182165145874, 
617, 1223884264, 0.26422143, -0.60597575, -0.15927066, -0.7332213, 8.808450698852539, -1.1225579977035522, 1.1500440835952759, 0.8187357187271118, 3.8552627563476562, -4.541561126708984, 
618, 1223900931, 0.2633454, -0.6055681, -0.15899783, -0.733932, 8.517936706542969, -1.1123017072677612, 1.1632258892059326, -2.987356662750244, 2.6511194705963135, -2.8988773822784424, 
619, 1223917598, 0.26242867, -0.6053538, -0.15851778, -0.73454094, 8.537243843078613, -1.1673598289489746, 1.1845260858535767, -4.426304340362549, 1.588781476020813, -1.845747470855713, 
620, 1223934265, 0.26135883, -0.6050973, -0.15773372, -0.73530203, 8.860617637634277, -1.3283921480178833, 1.026890516281128, -6.684500694274902, 2.8245182037353516, -1.6792011260986328, 
621, 1223950932, 0.2600956, -0.6048495, -0.15686259, -0.7361396, 8.974106788635254, -1.4110591411590576, 1.0043495893478394, -8.043164253234863, 3.055711507797241, -2.4329826831817627, 
622, 1223967599, 0.2585622, -0.60485303, -0.15599972, -0.73685986, 9.065136909484863, -1.4680712223052979, 1.180678129196167, -9.430049896240234, 0.9993183612823486, -3.3567378520965576, 
623, 1223984266, 0.25680408, -0.6050029, -0.15540475, -0.7374772, 9.100942611694336, -1.476426124572754, 1.318564772605896, -9.214978218078613, -0.8736366629600525, -5.291841506958008, 
624, 1224000933, 0.2542299, -0.60631114, -0.15472119, -0.7374384, 8.943260192871094, -1.438298225402832, 2.1922223567962646, -14.330092430114746, -10.192523002624512, -6.654200077056885, 
625, 1224017600, 0.25101653, -0.6090804, -0.15320688, -0.73657274, 9.915840148925781, -1.247137188911438, 3.0339059829711914, -22.885419845581055, -20.274620056152344, -3.440770387649536, 
626, 1224034267, 0.24810335, -0.612337, -0.15063506, -0.7353893, 10.843783378601074, -0.5451686978340149, 3.1461920738220215, -27.501728057861328, -21.939342498779297, 3.5626587867736816, 
627, 1224050934, 0.24567352, -0.6157592, -0.1475065, -0.73398024, 11.126378059387207, -0.1549963355064392, 3.217599391937256, -28.37899398803711, -22.279146194458008, 8.897157669067383, 
628, 1224067601, 0.2429648, -0.6191933, -0.14365858, -0.732755, 10.783037185668945, -0.29612934589385986, 3.4161322116851807, -33.35499572753906, -20.6407527923584, 10.256415367126465, 
629, 1224084268, 0.23994601, -0.6226779, -0.13979332, -0.73154354, 10.447504997253418, -0.6030564308166504, 3.3679518699645996, -34.81591033935547, -21.130050659179688, 8.809965133666992, 
630, 1224100935, 0.23694228, -0.62627596, -0.13681465, -0.7300129, 9.826102256774902, -0.9041923880577087, 3.2434442043304443, -30.225975036621094, -24.522056579589844, 5.7162346839904785, 
631, 1224117602, 0.23360178, -0.6308691, -0.13562317, -0.72735196, 9.59683895111084, -1.3672354221343994, 3.3268256187438965, -23.254602432250977, -37.626625061035156, -0.8885042071342468, 
632, 1224134269, 0.23008654, -0.63562363, -0.13559285, -0.7243324, 10.600579261779785, -1.455775499343872, 3.371783494949341, -18.136125564575195, -42.029945373535156, -6.079072952270508, 
633, 1224150936, 0.22761004, -0.6393497, -0.13603988, -0.72174716, 12.010848045349121, -1.2144609689712524, 3.216543674468994, -10.014939308166504, -34.81004333496094, -4.645480155944824, 
634, 1224167603, 0.22701526, -0.6414638, -0.13666044, -0.7199391, 12.55842113494873, -0.8031660318374634, 3.035170555114746, 0.9093931913375854, -21.918033599853516, 1.2040549516677856, 
635, 1224184270, 0.22760883, -0.6421879, -0.13678072, -0.7190828, 12.258511543273926, -0.40122190117836, 3.0455102920532227, 4.978996276855469, -8.956439971923828, 6.511660575866699, 
636, 1224200937, 0.22839278, -0.6423329, -0.13622645, -0.7188101, 11.95615005493164, 0.0037279301322996616, 2.9483957290649414, 2.8382656574249268, -2.2918121814727783, 8.979898452758789, 
637, 1224217604, 0.22912355, -0.6423742, -0.13514602, -0.71874446, 11.670741081237793, 0.22091448307037354, 2.6404871940612793, -0.06517153233289719, -0.09545855969190598, 10.6239013671875, 
638, 1224234271, 0.22961806, -0.64274424, -0.13382259, -0.71850336, 11.26858139038086, 0.06761746853590012, 2.5195364952087402, -2.621793746948242, -2.3444595336914062, 11.132455825805664, 
639, 1224250938, 0.22953556, -0.6434117, -0.13269381, -0.7181416, 10.606330871582031, -0.538820743560791, 2.317655324935913, -4.589502334594727, -5.191183090209961, 7.893829822540283, 
640, 1224267605, 0.2287653, -0.6442163, -0.13218567, -0.7177596, 9.980291366577148, -1.2914873361587524, 2.089329957962036, -4.743408679962158, -7.574036121368408, 1.9190893173217773, 
641, 1224284272, 0.22770779, -0.6451756, -0.13258024, -0.7171613, 9.537728309631348, -1.713392734527588, 1.886812686920166, -1.7381170988082886, -10.966108322143555, -3.042739152908325, 
