sep=,
DeviceTag:,R Forearm - 9,,,,,,,,,,,,,,,,,
FirmwareVersion:,3.0.0,,,,,,,,,,,,,,,,,
AppVersion:,2023.6.1,,,,,,,,,,,,,,,,,
StartTime:,2024-05-25 15:19:41.000 +0200,,,,,,,,,,,,,,,,,
 2024,,,,,,,,,,,,,,,,,,,

PacketCounter,SampleTimeFine,Quat_W,Quat_X,Quat_Y,Quat_Z,Acc_X,Acc_Y,Acc_Z,Gyr_X,Gyr_Y,Gyr_Z,
0, 567182152, 0.64874214, -0.5998892, -0.45134678, -0.12471023, 0.0, 0.0, 0.0, 0.0, 0.0, 0.0, 
1, 567198819, 0.6479508, -0.60045856, -0.45187992, -0.124151945, 7.1058030128479, -6.8389573097229, -1.4364155530929565, -3.688549041748047, -4.783274173736572, 0.005397876724600792, 
2, 567215486, 0.647058, -0.60224, -0.45168015, -0.12086421, 7.050239086151123, -7.2293548583984375, -1.4018981456756592, 0.6405543684959412, -4.3154706954956055, 1.076290488243103, 
3, 567232153, 0.6478016, -0.60380644, -0.4497587, -0.116138116, 6.947872638702393, -6.812532424926758, -1.3446102142333984, 11.400223731994629, -2.736064910888672, -0.9468122720718384, 
4, 567248820, 0.64857614, -0.6046765, -0.448053, -0.11385862, 6.925576686859131, -6.27732515335083, -1.2508147954940796, 11.942676544189453, -1.5358920097351074, -3.5612940788269043, 
5, 567265487, 0.6484003, -0.60515934, -0.44761902, -0.114001855, 6.964502811431885, -6.225490093231201, -1.190638542175293, 2.661716938018799, -2.2235283851623535, -4.506439685821533, 
6, 567282154, 0.6476756, -0.60564584, -0.44765228, -0.115400225, 7.005789756774902, -6.659215927124023, -1.3208714723587036, -3.3374760150909424, -3.109189987182617, -4.8129472732543945, 
7, 567298821, 0.6469127, -0.6061111, -0.44786367, -0.11641136, 7.050564289093018, -6.880463123321533, -1.099531888961792, -3.6211884021759033, -3.6873583793640137, -4.551172256469727, 
8, 567315488, 0.64687735, -0.60600466, -0.44792768, -0.116914846, 7.088688850402832, -7.074163436889648, -1.162177324295044, -0.4038354754447937, -2.1485085487365723, -4.365877151489258, 
9, 567332155, 0.6472745, -0.60561943, -0.4477879, -0.117246404, 7.0306196212768555, -6.760166168212891, -1.248362421989441, 2.9904556274414062, -1.4148709774017334, -5.183228969573975, 
10, 567348822, 0.6472147, -0.6056171, -0.44777295, -0.1176456, 7.049186706542969, -6.805360317230225, -1.263651967048645, -0.2036977857351303, -3.147979974746704, -4.8910393714904785, 
11, 567365489, 0.6469841, -0.60571265, -0.44792002, -0.11786277, 7.075072288513184, -6.980652809143066, -1.3096060752868652, -0.440461665391922, -4.808721542358398, -4.4467244148254395, 
12, 567382156, 0.6467834, -0.60568815, -0.44830927, -0.117609076, 7.129942417144775, -7.107938289642334, -1.2941862344741821, 0.4140101969242096, -5.712261199951172, -3.7258801460266113, 
13, 567398823, 0.64703727, -0.60519785, -0.44871944, -0.11717217, 7.174470901489258, -6.826898574829102, -1.0753430128097534, 4.706084251403809, -4.341404438018799, -4.3491010665893555, 
14, 567415490, 0.647576, -0.60446846, -0.44894192, -0.1171091, 7.1372175216674805, -6.6593122482299805, -1.102479338645935, 6.848574161529541, -2.643653631210327, -5.450344562530518, 
15, 567432157, 0.6480134, -0.60394406, -0.448993, -0.11719945, 7.236384391784668, -6.709839344024658, -1.2246218919754028, 5.130679607391357, -2.0957469940185547, -4.260034084320068, 
16, 567448824, 0.64838797, -0.6035236, -0.44892475, -0.11755374, 7.268614768981934, -6.563723087310791, -1.142432451248169, 2.9854354858398438, 0.042177714407444, -4.01042366027832, 
17, 567465491, 0.6484228, -0.6034765, -0.44875413, -0.118253335, 7.215096950531006, -6.536807060241699, -1.2510720491409302, -0.9683778285980225, 0.4185819923877716, -3.657583475112915, 
18, 567482158, 0.64808714, -0.6038072, -0.44855386, -0.11916192, 7.236773490905762, -6.6282057762146, -1.4177954196929932, -4.455227375030518, -0.013766827061772346, -3.2325279712677, 
19, 567498825, 0.6477271, -0.60423416, -0.44823188, -0.120163314, 7.177341461181641, -6.691196441650391, -1.3541632890701294, -3.301413059234619, -0.5278777480125427, -2.9868381023406982, 
20, 567515492, 0.64779466, -0.603927, -0.44840723, -0.12068654, 7.171671390533447, -6.597395896911621, -1.3010668754577637, 1.258512258529663, -0.2462405413389206, -4.360434532165527, 
21, 567532159, 0.64807355, -0.6033605, -0.4486123, -0.12126033, 7.175172328948975, -6.398281097412109, -1.1034348011016846, 3.095057725906372, 0.9522609114646912, -5.223568916320801, 
22, 567548826, 0.64836216, -0.60267967, -0.44885984, -0.12218299, 7.177735328674316, -6.231917381286621, -1.1031341552734375, 1.5952295064926147, 3.1540699005126953, -6.909795761108398, 
23, 567565493, 0.6484185, -0.60210425, -0.44920263, -0.12345404, 7.11426305770874, -6.312852382659912, -1.0566699504852295, 0.02734796702861786, 2.5331928730010986, -8.605575561523438, 
24, 567582160, 0.64857674, -0.601293, -0.4496533, -0.12492817, 7.203636169433594, -6.403924465179443, -0.8586280941963196, 0.8580449819564819, 3.436053991317749, -10.494154930114746, 
25, 567598827, 0.6489825, -0.6000968, -0.45018744, -0.12663686, 7.212409496307373, -6.25356912612915, -0.7527575492858887, 1.7830612659454346, 5.896988391876221, -12.648954391479492, 
26, 567615494, 0.64941496, -0.59875584, -0.45072812, -0.12882559, 7.2858500480651855, -6.158186912536621, -0.5010921955108643, 1.2035609483718872, 7.621853351593018, -15.198346138000488, 
27, 567632161, 0.6499366, -0.5973488, -0.45102975, -0.13163988, 7.371758460998535, -6.351696968078613, -0.4187259376049042, -0.24237331748008728, 11.10232162475586, -17.049118041992188, 
28, 567648828, 0.6509023, -0.59540987, -0.45134264, -0.13454859, 7.182155132293701, -6.672509670257568, -0.5271985530853271, 2.7923591136932373, 13.644338607788086, -18.65094757080078, 
29, 567665495, 0.6522049, -0.5926323, -0.4523203, -0.13719408, 6.911300182342529, -6.652599334716797, -0.0522313266992569, 10.525918006896973, 10.169260025024414, -22.946731567382812, 
30, 567682162, 0.65435034, -0.5885748, -0.45363086, -0.14008704, 7.0720038414001465, -6.576156139373779, -0.0011063963174819946, 20.265682220458984, 12.171464920043945, -29.11493492126465, 
31, 567698829, 0.6575379, -0.5832325, -0.45515516, -0.14254014, 7.139868259429932, -6.907159328460693, -0.09023921191692352, 30.723230361938477, 14.507081031799316, -31.0849666595459, 
32, 567715496, 0.66173154, -0.5767233, -0.45680776, -0.14432082, 7.771950721740723, -6.837916851043701, -0.2241225242614746, 41.38141632080078, 16.058300018310547, -31.446290969848633, 
33, 567732163, 0.66655207, -0.5696032, -0.45829722, -0.1456857, 8.134201049804688, -6.49951171875, -0.20825669169425964, 47.867862701416016, 17.63204574584961, -30.29019546508789, 
34, 567748830, 0.6713286, -0.56249094, -0.45970756, -0.14693905, 8.228475570678711, -6.021979331970215, -0.21838387846946716, 48.29676055908203, 17.174440383911133, -29.38640785217285, 
35, 567765497, 0.67591405, -0.55536485, -0.4612235, -0.14826703, 8.201800346374512, -5.690311431884766, -0.13902781903743744, 48.47699737548828, 15.765649795532227, -30.164705276489258, 
36, 567782164, 0.6802067, -0.5481837, -0.46298897, -0.14984909, 8.242265701293945, -5.2864861488342285, -0.1378237009048462, 46.012367248535156, 15.702022552490234, -32.41094207763672, 
37, 567798831, 0.6839079, -0.5415857, -0.46446672, -0.15239975, 8.391874313354492, -5.0554986000061035, -0.036072634160518646, 39.344398498535156, 17.18015480041504, -34.310585021972656, 
38, 567815498, 0.6869523, -0.53560543, -0.46582308, -0.15566766, 8.552563667297363, -4.921438694000244, -0.12074209749698639, 30.704330444335938, 18.55512046813965, -35.55036926269531, 
39, 567832165, 0.6892139, -0.5306177, -0.4668641, -0.15958413, 8.589238166809082, -4.925922393798828, -0.21707206964492798, 21.446645736694336, 18.61393928527832, -34.770050048828125, 
40, 567848832, 0.6908898, -0.52644444, -0.46758723, -0.16398129, 8.63554859161377, -4.931539058685303, -0.17309452593326569, 14.459869384765625, 18.793909072875977, -33.64021682739258, 
41, 567865499, 0.69210947, -0.523017, -0.46802524, -0.16849405, 8.666135787963867, -4.968717098236084, -0.2189789116382599, 6.788223743438721, 19.805633544921875, -31.090112686157227, 
42, 567882166, 0.6927309, -0.5206209, -0.468008, -0.17333923, 8.676263809204102, -4.998144149780273, -0.22487862408161163, -1.4689841270446777, 20.065603256225586, -28.266202926635742, 
43, 567898833, 0.6928273, -0.51911974, -0.4676133, -0.178446, 8.581694602966309, -5.045624256134033, -0.2706250846385956, -9.225308418273926, 20.53028106689453, -25.8391056060791, 
44, 567915500, 0.69243455, -0.51845086, -0.46680704, -0.18394098, 8.515084266662598, -4.89654016494751, -0.11314774304628372, -16.775075912475586, 21.596927642822266, -24.129642486572266, 
45, 567932167, 0.6914804, -0.5185958, -0.46562618, -0.1900144, 8.506422996520996, -4.852851390838623, -0.13326729834079742, -25.219467163085938, 22.95487403869629, -23.634044647216797, 
46, 567948834, 0.69007564, -0.51957357, -0.46386513, -0.19664207, 8.596792221069336, -4.786856651306152, -0.3131134510040283, -33.20661163330078, 25.259126663208008, -22.116687774658203, 
47, 567965501, 0.6881061, -0.5216472, -0.46121183, -0.20415144, 8.698659896850586, -4.839846134185791, -0.6417795419692993, -42.74040985107422, 28.495685577392578, -20.309375762939453, 
48, 567982168, 0.6856511, -0.5244547, -0.45803174, -0.21221867, 8.676618576049805, -4.347390174865723, -0.7795253396034241, -51.939735412597656, 31.613800048828125, -19.47386932373047, 
49, 567998835, 0.6820074, -0.52868056, -0.45420715, -0.2214921, 8.356462478637695, -4.363119125366211, -0.9862125515937805, -66.5638656616211, 32.76837158203125, -20.004486083984375, 
50, 568015502, 0.6778126, -0.53317857, -0.45040005, -0.23115112, 8.085962295532227, -4.520042419433594, -0.9664166569709778, -71.81431579589844, 32.719722747802734, -21.871292114257812, 
51, 568032169, 0.67303675, -0.53812623, -0.44647494, -0.24104328, 8.171771049499512, -4.669005870819092, -0.806113600730896, -76.9915771484375, 31.8649845123291, -22.109514236450195, 
52, 568048836, 0.66754526, -0.54360944, -0.44264325, -0.25087693, 8.1923189163208, -4.961336612701416, -0.6478044986724854, -82.0276870727539, 28.443584442138672, -21.79584503173828, 
53, 568065503, 0.6618583, -0.54886836, -0.439635, -0.25963113, 8.074400901794434, -6.165637016296387, -0.22184869647026062, -77.75382232666016, 20.945648193359375, -21.07345199584961, 
54, 568082170, 0.6572903, -0.55251086, -0.43792668, -0.26631087, 8.359121322631836, -7.302500247955322, 0.18967436254024506, -56.17729949951172, 12.673489570617676, -19.72797966003418, 
55, 568098837, 0.6547997, -0.5538701, -0.43733853, -0.2705562, 8.55340576171875, -7.553287982940674, 0.7866400480270386, -29.0201416015625, 8.996875762939453, -16.500459671020508, 
56, 568115504, 0.65389913, -0.553676, -0.43742466, -0.27298093, 8.588563919067383, -7.188024997711182, 1.1006110906600952, -8.931567192077637, 6.363116264343262, -13.019281387329102, 
57, 568132171, 0.65423375, -0.55243605, -0.43808627, -0.27362937, 8.566723823547363, -7.05985689163208, 0.9083128571510315, 6.046948432922363, 2.9193172454833984, -8.450400352478027, 
58, 568148838, 0.65588355, -0.5499393, -0.43917283, -0.2729667, 8.547545433044434, -6.540256977081299, 0.6538552045822144, 22.357101440429688, 1.7268943786621094, -5.757873058319092, 
59, 568165505, 0.65838325, -0.5467078, -0.44041488, -0.27143458, 8.602616310119629, -5.691873073577881, 0.35483402013778687, 31.742164611816406, 1.610558032989502, -3.2817156314849854, 
60, 568182172, 0.66088647, -0.5438299, -0.44137022, -0.2695745, 8.633066177368164, -5.031683444976807, -0.008081905543804169, 30.188627243041992, 1.1966099739074707, 0.2294328808784485, 
61, 568198839, 0.6631181, -0.5411535, -0.44218066, -0.26814833, 8.472983360290527, -4.14924955368042, -0.3061939477920532, 26.575632095336914, 2.368739128112793, -1.0997225046157837, 
62, 568215506, 0.66454446, -0.5390406, -0.4430956, -0.26736146, 8.27395248413086, -3.7690231800079346, -0.46378055214881897, 19.599550247192383, 0.6869400143623352, -4.0714521408081055, 
63, 568232173, 0.6652349, -0.53746694, -0.44400236, -0.2673082, 8.494473457336426, -3.687690496444702, -0.41956281661987305, 12.169939041137695, 0.32382798194885254, -6.981757640838623, 
64, 568248840, 0.66499573, -0.5370934, -0.44441825, -0.26796246, 8.643465042114258, -3.910381555557251, -0.3041760325431824, 0.6728649139404297, -0.008823576383292675, -6.2915940284729, 
65, 568265507, 0.66429466, -0.5374377, -0.44455603, -0.26878124, 8.71781063079834, -4.468380451202393, -0.21354684233665466, -5.185484886169434, -0.8735470175743103, -4.580218315124512, 
66, 568282174, 0.66372657, -0.53765464, -0.44483256, -0.26929298, 8.683095932006836, -4.806972503662109, 0.0689171701669693, -3.2814736366271973, -1.7453519105911255, -3.8169069290161133, 
67, 568298841, 0.6633891, -0.5376787, -0.445341, -0.26923582, 8.733738899230957, -4.899399757385254, 0.19340355694293976, 0.16271106898784637, -3.5728561878204346, -2.259373188018799, 
68, 568315508, 0.663246, -0.5374749, -0.44601694, -0.2688761, 8.796262741088867, -4.873632431030273, 0.36056819558143616, 3.7392051219940186, -4.750247478485107, -1.8315389156341553, 
69, 568332175, 0.66317976, -0.53736794, -0.44665244, -0.26819795, 8.88555908203125, -4.925006866455078, 0.4903576374053955, 4.331018924713135, -5.6405134201049805, 0.1858585923910141, 
70, 568348842, 0.66331285, -0.5370946, -0.44743368, -0.26711208, 8.79732894897461, -5.087802410125732, 0.5390095114707947, 7.152092456817627, -6.814036846160889, 1.3619812726974487, 
71, 568365509, 0.6637907, -0.53638935, -0.4484066, -0.26570666, 8.730046272277832, -5.036515712738037, 0.48155587911605835, 12.114355087280273, -7.282624244689941, 1.3848284482955933, 
72, 568382176, 0.66461146, -0.5353334, -0.4492846, -0.26429752, 8.824371337890625, -4.771914482116699, 0.45412540435791016, 15.051544189453125, -5.327259540557861, 1.2821215391159058, 
73, 568398843, 0.6653188, -0.53454554, -0.44970423, -0.2633974, 8.751594543457031, -4.5000901222229, 0.4113846719264984, 12.738834381103516, -3.1508631706237793, 1.329357385635376, 
74, 568415510, 0.6658626, -0.5339217, -0.45008346, -0.26263982, 8.617167472839355, -4.470429420471191, 0.27151933312416077, 9.104665756225586, -2.348787784576416, 0.998562753200531, 
75, 568432177, 0.66635686, -0.5332405, -0.45061132, -0.26186383, 8.62140941619873, -4.524600505828857, 0.3159925043582916, 8.525239944458008, -2.6455812454223633, 0.24912197887897491, 
76, 568448844, 0.6667231, -0.5327082, -0.4509947, -0.26135525, 8.653059005737305, -4.40562629699707, 0.2170167863368988, 7.2398152351379395, -2.1746723651885986, -0.15700587630271912, 
77, 568465511, 0.6667676, -0.5324973, -0.4513622, -0.26103666, 8.689743041992188, -4.371801853179932, 0.2535988390445709, 4.186704158782959, -3.070918560028076, -0.4995949864387512, 
78, 568482178, 0.66667295, -0.5325376, -0.4516264, -0.26073822, 8.743610382080078, -4.526209831237793, 0.34166276454925537, 1.6168400049209595, -3.0761682987213135, 0.312846302986145, 
79, 568498845, 0.6667154, -0.532469, -0.45194155, -0.26022404, 8.763959884643555, -4.648950576782227, 0.39137956500053406, 2.6702327728271484, -3.1386823654174805, 1.0026922225952148, 
80, 568515512, 0.66683203, -0.53236365, -0.4522557, -0.2595936, 8.7485933303833, -4.560470104217529, 0.4216761589050293, 3.8220107555389404, -3.4459588527679443, 1.5948325395584106, 
81, 568532179, 0.6669277, -0.5323948, -0.4523953, -0.2590401, 8.769272804260254, -4.5162248611450195, 0.42100629210472107, 3.095249891281128, -2.985851764678955, 2.2931370735168457, 
82, 568548846, 0.666916, -0.53260744, -0.4524033, -0.2586193, 8.711624145507812, -4.466076850891113, 0.3776044249534607, 2.0683088302612305, -2.9684224128723145, 2.622593402862549, 
83, 568565513, 0.66690886, -0.5327273, -0.45251793, -0.25818974, 8.716755867004395, -4.439218997955322, 0.42489659786224365, 1.9488705396652222, -2.9493601322174072, 1.9658774137496948, 
84, 568582180, 0.666889, -0.53278255, -0.45272624, -0.25776106, 8.745006561279297, -4.421407699584961, 0.4597715735435486, 1.5080180168151855, -2.897026777267456, 1.3731415271759033, 
85, 568598847, 0.6667106, -0.53297, -0.45291647, -0.25750065, 8.829737663269043, -4.390793800354004, 0.4666607081890106, -0.8034703731536865, -2.639042854309082, 0.8108916878700256, 
86, 568615514, 0.6663092, -0.53350616, -0.45285055, -0.25754544, 8.859753608703613, -4.527275562286377, 0.4150852859020233, -3.4307701587677, -2.3146324157714844, 1.1128783226013184, 
87, 568632181, 0.6658926, -0.5341289, -0.4526206, -0.25773633, 8.859711647033691, -4.652350902557373, 0.41335833072662354, -3.865788459777832, -1.645065188407898, 1.3377962112426758, 
88, 568648848, 0.66562235, -0.53459424, -0.4524154, -0.25782964, 8.800113677978516, -4.7459540367126465, 0.38320523500442505, -3.485837936401367, -0.7610558867454529, 1.4307191371917725, 
89, 568665515, 0.66550255, -0.5348824, -0.45217976, -0.25795498, 8.753255844116211, -4.785261631011963, 0.36679741740226746, -1.8702136278152466, 0.07360449433326721, 1.1405656337738037, 
90, 568682182, 0.6656738, -0.53479284, -0.45201805, -0.25798255, 8.703659057617188, -4.752995491027832, 0.3657512068748474, 1.1645004749298096, 1.0279337167739868, 0.6418606042861938, 
91, 568698849, 0.66595304, -0.53446865, -0.451997, -0.25797024, 8.686482429504395, -4.652948379516602, 0.4125771224498749, 2.5778608322143555, 1.1938016414642334, -0.25251561403274536, 
92, 568715516, 0.6661914, -0.5341681, -0.451923, -0.25810698, 8.745097160339355, -4.527638912200928, 0.44321557879447937, 2.1234657764434814, 1.6079846620559692, -0.7225854396820068, 
93, 568732183, 0.6663047, -0.5339721, -0.4518164, -0.258406, 8.731306076049805, -4.511155605316162, 0.41224202513694763, 0.3742655813694, 1.8826744556427002, -1.2372534275054932, 
94, 568748850, 0.6662824, -0.5338933, -0.45164946, -0.25891817, 8.711917877197266, -4.60707426071167, 0.33508065342903137, -0.7268244624137878, 1.9633479118347168, -1.8109846115112305, 
95, 568765517, 0.6662916, -0.533747, -0.4515306, -0.25940248, 8.7182035446167, -4.598418235778809, 0.3095240294933319, -0.465305894613266, 2.003688097000122, -2.0296528339385986, 
96, 568782184, 0.6661831, -0.53371847, -0.451437, -0.25990272, 8.683206558227539, -4.544553279876709, 0.25667262077331543, -1.675640344619751, 1.482629656791687, -2.045513391494751, 
97, 568798851, 0.6659225, -0.5338784, -0.4513305, -0.2604264, 8.648441314697266, -4.6317243576049805, 0.24069270491600037, -2.6773018836975098, 0.5672827959060669, -1.7550653219223022, 
98, 568815518, 0.6657551, -0.5339083, -0.45132756, -0.26079756, 8.66680908203125, -4.733004093170166, 0.2725783586502075, -1.1776078939437866, 0.09257069230079651, -1.683714747428894, 
99, 568832185, 0.6657706, -0.5337615, -0.45141238, -0.2609121, 8.685378074645996, -4.765616416931152, 0.4323604106903076, 0.3981814384460449, 0.08657733350992203, -1.084275245666504, 
100, 568848852, 0.66575545, -0.53371125, -0.45140702, -0.26106277, 8.730244636535645, -4.6858649253845215, 0.42067641019821167, -0.06574780493974686, 0.16107186675071716, -0.6690164804458618, 
101, 568865519, 0.66564274, -0.5338222, -0.45129925, -0.26130968, 8.770925521850586, -4.7442193031311035, 0.3715287148952484, -1.018924355506897, 0.04943891242146492, -0.38571441173553467, 
102, 568882186, 0.6656517, -0.5338088, -0.4512675, -0.2613689, 8.778340339660645, -4.8143439292907715, 0.3606497645378113, 0.614595890045166, -0.3190189599990845, 0.03223998472094536, 
103, 568898853, 0.6657809, -0.5336726, -0.4512752, -0.26130486, 8.798906326293945, -4.665625095367432, 0.4249393343925476, 2.088440418243408, -0.3912723958492279, 0.27171874046325684, 
104, 568915520, 0.66585326, -0.5336657, -0.45121312, -0.26124135, 8.774256706237793, -4.671648979187012, 0.39166513085365295, 1.275160312652588, -0.5644398927688599, 0.8270789384841919, 
105, 568932187, 0.66596556, -0.53360766, -0.45119658, -0.26110277, 8.718833923339844, -4.664041042327881, 0.344495952129364, 1.824533462524414, -0.7663255929946899, 0.9136818647384644, 
106, 568948854, 0.6661785, -0.53332496, -0.4513401, -0.26088867, 8.655247688293457, -4.590290546417236, 0.43353497982025146, 3.3020853996276855, -0.8277384638786316, 0.144577294588089, 
107, 568965521, 0.66637427, -0.53309166, -0.45137942, -0.26079795, 8.650896072387695, -4.591814994812012, 0.4958656132221222, 3.1336047649383545, -0.4046166241168976, 0.118977390229702, 
108, 568982188, 0.6664841, -0.53303033, -0.45124885, -0.26086837, 8.760640144348145, -4.466388702392578, 0.5768479704856873, 0.8773053884506226, 0.5342744588851929, 0.3650129437446594, 
109, 568998855, 0.66638994, -0.53328645, -0.45096648, -0.2610736, 8.719325065612793, -4.6560516357421875, 0.498221755027771, -2.1961867809295654, 0.6010724306106567, 0.936983048915863, 
110, 569015522, 0.6664509, -0.5333596, -0.45069638, -0.26123467, 8.644818305969238, -4.829728603363037, 0.4634345471858978, 0.058774739503860474, 0.8229808211326599, 0.8360176682472229, 
111, 569032189, 0.66681355, -0.53301865, -0.45060053, -0.2611709, 8.737982749938965, -4.657589435577393, 0.5660116076469421, 2.751335382461548, 1.5481276512145996, 0.4219116270542145, 
112, 569048856, 0.66694504, -0.53304684, -0.45022717, -0.26142135, 8.798260688781738, -4.6414899826049805, 0.536955714225769, 0.19007183611392975, 1.8167343139648438, 0.7874239683151245, 
113, 569065523, 0.6671046, -0.53306526, -0.4499112, -0.26152024, 8.714280128479004, -4.793678283691406, 0.4860166907310486, -0.2825465202331543, 1.6959384679794312, 1.24591064453125, 
114, 569082190, 0.6674847, -0.53273845, -0.44970852, -0.26156503, 8.695556640625, -4.816323757171631, 0.5148335099220276, 2.525770902633667, 2.2300848960876465, 0.39580589532852173, 
115, 569098857, 0.6680754, -0.5321326, -0.44961718, -0.26144716, 8.717907905578613, -4.792603492736816, 0.5686231851577759, 4.691158771514893, 2.5662648677825928, 0.21709328889846802, 
116, 569115524, 0.66864026, -0.5315536, -0.44945097, -0.26146686, 8.750895500183105, -4.623411178588867, 0.5992727279663086, 4.406344890594482, 3.0379483699798584, -0.07603771239519119, 
117, 569132191, 0.66900694, -0.53121525, -0.44918495, -0.26167363, 8.704931259155273, -4.598592281341553, 0.5452716946601868, 2.0249338150024414, 3.0010464191436768, -0.1711568683385849, 
118, 569148858, 0.6693785, -0.5308676, -0.4489111, -0.26189888, 8.675424575805664, -4.725453853607178, 0.4986538887023926, 2.1773741245269775, 3.0402278900146484, -0.23168610036373138, 
119, 569165525, 0.6698399, -0.53035116, -0.4487353, -0.26206666, 8.622939109802246, -4.602419853210449, 0.5447757244110107, 3.848884105682373, 2.847799062728882, -0.6730441451072693, 
120, 569182192, 0.6702224, -0.5299338, -0.44855908, -0.26223448, 8.644769668579102, -4.543893337249756, 0.5312994718551636, 2.554579019546509, 2.6919140815734863, -0.5393010377883911, 
121, 569198859, 0.67050785, -0.52970505, -0.44829553, -0.2624175, 8.643514633178711, -4.610622406005859, 0.4826105833053589, 1.4540008306503296, 2.3471412658691406, 0.149264395236969, 
122, 569215526, 0.6707618, -0.5295245, -0.4479959, -0.26264435, 8.658957481384277, -4.564862251281738, 0.4929504990577698, 1.6181591749191284, 2.108975410461426, 0.2049144208431244, 
123, 569232193, 0.6710378, -0.52928907, -0.4477925, -0.2627608, 8.635555267333984, -4.5366106033325195, 0.46997085213661194, 1.3884131908416748, 1.980015516281128, 0.17763686180114746, 
124, 569248860, 0.6712624, -0.5291031, -0.44759956, -0.26289067, 8.651031494140625, -4.586874961853027, 0.4729968011379242, 1.1786259412765503, 1.6207396984100342, 0.16187866032123566, 
125, 569265527, 0.6715002, -0.52887845, -0.44744334, -0.26300073, 8.666244506835938, -4.606961727142334, 0.5442902445793152, 1.5221434831619263, 1.4852356910705566, 0.023992696776986122, 
126, 569282194, 0.67170537, -0.52867395, -0.44729826, -0.26313525, 8.661988258361816, -4.588423728942871, 0.5561587810516357, 1.0552880764007568, 1.4742733240127563, -0.13930746912956238, 
127, 569298861, 0.671838, -0.5285295, -0.44721138, -0.26323456, 8.678534507751465, -4.645899295806885, 0.5271884202957153, 0.4444507360458374, 0.8952085971832275, -0.14450684189796448, 
128, 569315528, 0.6720004, -0.5283511, -0.44711155, -0.26334783, 8.63434886932373, -4.699018478393555, 0.5245004296302795, 1.7020856142044067, 0.6222670078277588, -0.13714320957660675, 
129, 569332195, 0.67230296, -0.5279158, -0.44719058, -0.26331422, 8.594337463378906, -4.635298252105713, 0.562269389629364, 3.424936532974243, 0.5275255441665649, -0.7014421820640564, 
130, 569348862, 0.6726222, -0.52744275, -0.4472869, -0.2632833, 8.598504066467285, -4.539638042449951, 0.5762240886688232, 3.7027134895324707, 0.5572555661201477, -0.8646912574768066, 
131, 569365529, 0.67282087, -0.5271313, -0.4473163, -0.26334924, 8.602690696716309, -4.460286617279053, 0.5823347568511963, 2.1041665077209473, 0.5453264117240906, -0.7863995432853699, 
132, 569382196, 0.67287767, -0.5269977, -0.44728953, -0.2635169, 8.614036560058594, -4.526217937469482, 0.5665467381477356, 0.5195856094360352, 0.32620969414711, -0.7399507761001587, 
133, 569398863, 0.6729317, -0.5268449, -0.44730482, -0.2636586, 8.641841888427734, -4.533783912658691, 0.5602741837501526, 0.5795833468437195, 0.1498791128396988, -0.8431572318077087, 
134, 569415530, 0.67286474, -0.52684027, -0.44729903, -0.26384857, 8.64149284362793, -4.56006383895874, 0.5512431859970093, -0.5603289604187012, -0.31401169300079346, -0.7403478622436523, 
135, 569432197, 0.67275035, -0.526968, -0.4472125, -0.26403177, 8.683026313781738, -4.645364284515381, 0.5516529083251953, -0.9393841028213501, -0.6093516945838928, -0.04223533719778061, 
136, 569448864, 0.67265254, -0.52709925, -0.44715384, -0.2641184, 8.70449447631836, -4.674956798553467, 0.5881208777427673, -0.5542652606964111, -1.0544813871383667, 0.33584654331207275, 
137, 569465531, 0.67265296, -0.52706826, -0.4471836, -0.26412892, 8.670371055603027, -4.674832344055176, 0.6389967203140259, 0.19341430068016052, -0.7662103176116943, -0.009457489475607872, 
138, 569482198, 0.6726821, -0.52698874, -0.4471716, -0.26423347, 8.68416976928711, -4.61178731918335, 0.6528996229171753, 0.7712047100067139, -0.3807455599308014, -0.35154709219932556, 
139, 569498865, 0.67259204, -0.5270262, -0.44718716, -0.26436183, 8.722630500793457, -4.524110317230225, 0.6217654347419739, -0.909775972366333, -0.6705405712127686, -0.4690069556236267, 
140, 569515532, 0.67246246, -0.5271553, -0.4472197, -0.26437914, 8.617262840270996, -4.667508602142334, 0.5462427735328674, -1.5461490154266357, -1.2080997228622437, 0.17929530143737793, 
141, 569532199, 0.6724069, -0.52727026, -0.44718254, -0.26435372, 8.627732276916504, -4.657854080200195, 0.5378632545471191, -0.3218875825405121, -1.240077257156372, 0.7794904708862305, 
142, 569548866, 0.6722347, -0.5276205, -0.4470087, -0.26438668, 8.64736270904541, -4.566503524780273, 0.5259789228439331, -1.4940656423568726, -1.5702635049819946, 1.5706795454025269, 
143, 569565533, 0.6720236, -0.52805656, -0.44684744, -0.2643257, 8.599675178527832, -4.644232273101807, 0.5130966305732727, -2.121103048324585, -2.0558931827545166, 2.1167681217193604, 
144, 569582200, 0.67189807, -0.5283218, -0.44684413, -0.2641207, 8.591580390930176, -4.643062114715576, 0.5646654367446899, -0.8201698064804077, -2.463813543319702, 1.8040242195129395, 
145, 569598867, 0.6718261, -0.528507, -0.44685137, -0.26392028, 8.638282775878906, -4.549714088439941, 0.6097195148468018, -0.747404158115387, -1.9245637655258179, 1.5677212476730347, 
146, 569615534, 0.671611, -0.5288468, -0.44678515, -0.2638997, 8.706770896911621, -4.528676509857178, 0.5812510848045349, -2.3270673751831055, -1.8597508668899536, 1.2296593189239502, 
147, 569632201, 0.67131233, -0.5292885, -0.44671676, -0.2638896, 8.7597074508667, -4.601909637451172, 0.5881946682929993, -3.7158901691436768, -1.9463346004486084, 1.3343255519866943, 
148, 569648868, 0.67100996, -0.5297384, -0.4465752, -0.2639954, 8.772112846374512, -4.667821407318115, 0.6085115075111389, -3.0462334156036377, -1.8576889038085938, 1.1576875448226929, 
149, 569665535, 0.67079794, -0.53009796, -0.44647512, -0.26398182, 8.807379722595215, -4.683300971984863, 0.6118527054786682, -1.8944947719573975, -2.0178325176239014, 1.454052209854126, 
150, 569682202, 0.6706197, -0.53041995, -0.44640416, -0.263908, 8.787235260009766, -4.612424373626709, 0.6710752844810486, -1.560697078704834, -2.1174917221069336, 1.5560675859451294, 
151, 569698869, 0.6704812, -0.5306738, -0.44640163, -0.26375392, 8.675760269165039, -4.653235912322998, 0.6453759670257568, -1.025916576385498, -2.342358350753784, 1.5249993801116943, 
152, 569715536, 0.67044806, -0.5307617, -0.44647112, -0.26354343, 8.730470657348633, -4.500925064086914, 0.6651270389556885, 0.2592581510543823, -2.1836109161376953, 1.1975666284561157, 
153, 569732203, 0.6701508, -0.531183, -0.44640744, -0.2635582, 8.748472213745117, -4.415246486663818, 0.5757166147232056, -2.5205905437469482, -2.5137009620666504, 1.242523431777954, 
154, 569748870, 0.669771, -0.5317482, -0.4462948, -0.26357532, 8.722978591918945, -4.668118476867676, 0.47865748405456543, -3.176302194595337, -3.0157744884490967, 1.7383726835250854, 
155, 569765537, 0.66965175, -0.5319903, -0.44629216, -0.26339382, 8.68955135345459, -4.613183498382568, 0.5392211079597473, -0.15011602640151978, -2.7460269927978516, 1.7239971160888672, 
156, 569782204, 0.6695585, -0.5321429, -0.44633588, -0.26324877, 8.671096801757812, -4.442287921905518, 0.5552530288696289, -0.39439716935157776, -2.216740846633911, 1.1171042919158936, 
157, 569798871, 0.66933215, -0.53244406, -0.44634688, -0.26319668, 8.702164649963379, -4.51224422454834, 0.5397837162017822, -2.0950803756713867, -2.317040205001831, 1.0265506505966187, 
158, 569815538, 0.6690753, -0.5327703, -0.44632843, -0.26322123, 8.709124565124512, -4.594023704528809, 0.5585564970970154, -2.224501132965088, -2.2544806003570557, 0.8314713835716248, 
159, 569832205, 0.6687638, -0.5330976, -0.44635493, -0.26330465, 8.663575172424316, -4.502091884613037, 0.5777767300605774, -2.278928279876709, -2.542085886001587, 0.33135786652565, 
160, 569848872, 0.6682518, -0.5335227, -0.44642878, -0.2636182, 8.649162292480469, -4.312239646911621, 0.6039421558380127, -4.140581130981445, -2.702594757080078, -0.9672572612762451, 
161, 569865539, 0.66748524, -0.5340402, -0.44664106, -0.2641521, 8.657601356506348, -4.346348762512207, 0.5556051731109619, -6.381097316741943, -3.250188112258911, -2.669868230819702, 
162, 569882206, 0.6666418, -0.5345783, -0.44686767, -0.26480964, 8.759125709533691, -4.473662853240967, 0.5156537294387817, -6.718898296356201, -3.3484325408935547, -3.326841115951538, 
163, 569898873, 0.6658578, -0.5350388, -0.44707426, -0.2655026, 8.804107666015625, -4.506314277648926, 0.5877302885055542, -6.820080757141113, -2.5380332469940186, -3.5645647048950195, 
164, 569915540, 0.66505235, -0.5355835, -0.44713685, -0.26631624, 8.736883163452148, -4.576313495635986, 0.5648739337921143, -7.740325450897217, -1.7613600492477417, -3.346824884414673, 
165, 569932207, 0.66429526, -0.53607374, -0.44718632, -0.26713535, 8.699328422546387, -4.645969867706299, 0.5288721919059753, -7.254542827606201, -1.501019835472107, -3.396244525909424, 
166, 569948874, 0.66373146, -0.5362974, -0.44734088, -0.26782823, 8.679526329040527, -4.673068046569824, 0.5397560000419617, -5.039747714996338, -1.2178969383239746, -3.682915210723877, 
167, 569965541, 0.6633365, -0.53639966, -0.44741315, -0.26848042, 8.689050674438477, -4.674809455871582, 0.5064713358879089, -3.1198513507843018, -0.6623508930206299, -3.2301266193389893, 
168, 569982208, 0.6631873, -0.5362753, -0.44751152, -0.26893282, 8.721871376037598, -4.684282302856445, 0.48750028014183044, -1.1522257328033447, -0.0235636867582798, -2.688065767288208, 
169, 569998875, 0.66331303, -0.5358145, -0.4477088, -0.2692128, 8.702482223510742, -4.5116424560546875, 0.5252381563186646, 1.4943920373916626, 0.6641693115234375, -2.820291042327881, 
170, 570015542, 0.6634055, -0.5352492, -0.4479605, -0.2696904, 8.755763053894043, -4.304708480834961, 0.46982723474502563, 1.9115593433380127, 0.9302597045898438, -4.278563499450684, 
171, 570032209, 0.6633068, -0.53488207, -0.44813707, -0.27036715, 8.877492904663086, -4.2862548828125, 0.3974772095680237, 0.2990218997001648, 0.6521826982498169, -4.6126298904418945, 
172, 570048876, 0.6632221, -0.5345262, -0.44831687, -0.27098012, 8.982003211975098, -4.4463911056518555, 0.32897767424583435, 0.09149497747421265, 0.6461635828018188, -4.2632341384887695, 
173, 570065543, 0.6632918, -0.53403413, -0.4485184, -0.2714462, 8.930806159973145, -4.389405727386475, 0.3285447061061859, 2.404878616333008, 0.4045269787311554, -3.77691912651062, 
174, 570082210, 0.66337246, -0.53344905, -0.44889516, -0.27177647, 8.819177627563477, -4.240108966827393, 0.34375184774398804, 3.0693557262420654, -0.3957802653312683, -4.0722784996032715, 
175, 570098877, 0.66335547, -0.5328967, -0.44939923, -0.27206838, 8.796704292297363, -4.225752830505371, 0.3880644142627716, 2.332042932510376, -1.180361270904541, -4.450860023498535, 
176, 570115544, 0.6632782, -0.53246284, -0.44982898, -0.27239567, 8.935900688171387, -4.263229846954346, 0.42378461360931396, 1.5475002527236938, -1.2393732070922852, -4.06471061706543, 
177, 570132211, 0.6631275, -0.53220516, -0.4501218, -0.27278206, 8.960674285888672, -4.332483291625977, 0.42785000801086426, 0.3396051824092865, -1.1060330867767334, -3.3953983783721924, 
178, 570148878, 0.6630381, -0.5319586, -0.45041123, -0.27300286, 8.935830116271973, -4.3990559577941895, 0.4026530086994171, 0.9248042106628418, -1.4754836559295654, -2.465914011001587, 
179, 570165545, 0.66298485, -0.5317448, -0.4507034, -0.2730665, 8.935640335083008, -4.375342845916748, 0.39354443550109863, 1.8007968664169312, -2.2166128158569336, -1.5690211057662964, 
180, 570182212, 0.662852, -0.5316502, -0.45101976, -0.27305055, 8.864203453063965, -4.271506309509277, 0.4196007251739502, 1.1701608896255493, -3.04838490486145, -1.0708284378051758, 
181, 570198879, 0.6626034, -0.5317549, -0.45131025, -0.27296987, 8.878148078918457, -4.291134357452393, 0.46264785528182983, -0.5904751420021057, -3.6119539737701416, -0.2908706068992615, 
182, 570215546, 0.66225535, -0.53208655, -0.45149162, -0.27286884, 8.891579627990723, -4.378776550292969, 0.474676251411438, -2.6694581508636475, -3.658172845840454, 0.7114632725715637, 
183, 570232213, 0.6618461, -0.5325856, -0.45148215, -0.2729039, 8.895811080932617, -4.486708641052246, 0.5288037657737732, -3.2078495025634766, -3.4163880348205566, 1.2415947914123535, 
184, 570248880, 0.66145444, -0.5330939, -0.45146328, -0.27289134, 8.89468002319336, -4.574968338012695, 0.5252258777618408, -3.243323564529419, -3.4247000217437744, 1.5479228496551514, 
185, 570265547, 0.6611723, -0.5336063, -0.45134738, -0.27276635, 8.917699813842773, -4.684166431427002, 0.510379433631897, -2.8258872032165527, -3.006239175796509, 2.6255383491516113, 
186, 570282214, 0.6610562, -0.534, -0.45122, -0.27248722, 8.860913276672363, -4.5961995124816895, 0.4834246039390564, -1.9590131044387817, -2.425074815750122, 3.2816975116729736, 
187, 570298881, 0.6609607, -0.5343866, -0.4510328, -0.27227128, 8.79062557220459, -4.543094635009766, 0.4325637221336365, -1.4210052490234375, -2.2161900997161865, 3.248349666595459, 
188, 570315548, 0.66092086, -0.53466994, -0.45091984, -0.2719984, 8.768857955932617, -4.5267653465271, 0.46201980113983154, -1.110912561416626, -2.068751096725464, 2.995527505874634, 
189, 570332215, 0.66095406, -0.5348805, -0.45075542, -0.27177653, 8.802303314208984, -4.5090651512146, 0.4684159457683563, -0.29872092604637146, -1.526171088218689, 2.8731493949890137, 
190, 570348882, 0.6610346, -0.53503543, -0.45051193, -0.27167907, 8.820878982543945, -4.373590469360352, 0.4946739971637726, 0.017499875277280807, -0.6696439981460571, 2.5270962715148926, 
191, 570365549, 0.6610252, -0.53527653, -0.45019153, -0.27175817, 8.806949615478516, -4.354945182800293, 0.423086017370224, -0.7430757284164429, -0.45302462577819824, 2.128127336502075, 
192, 570382216, 0.6610327, -0.53545797, -0.44994068, -0.2717978, 8.83133602142334, -4.36205530166626, 0.4257636070251465, -0.8283659815788269, -0.42508116364479065, 1.888930082321167, 
193, 570398883, 0.6610085, -0.5356598, -0.44966942, -0.27190745, 8.86898422241211, -4.3092803955078125, 0.40315648913383484, -1.0853381156921387, -0.3221052885055542, 1.6622449159622192, 
194, 570415550, 0.66098773, -0.53579766, -0.44955316, -0.27187884, 8.848570823669434, -4.360793590545654, 0.36653274297714233, -1.2199841737747192, -0.83177250623703, 1.5118985176086426, 
195, 570432217, 0.66102445, -0.53584224, -0.4494924, -0.27180228, 8.856204986572266, -4.43823766708374, 0.3161834478378296, 0.5064975619316101, -1.3210262060165405, 1.3737690448760986, 
196, 570448884, 0.6612035, -0.53581166, -0.44946018, -0.27147996, 8.832398414611816, -4.432995319366455, 0.29818740487098694, 1.8979458808898926, -1.6362800598144531, 2.4178194999694824, 
197, 570465551, 0.66127205, -0.53600526, -0.44940522, -0.27102134, 8.70627212524414, -4.219486713409424, 0.43926769495010376, 1.0875089168548584, -2.908040761947632, 3.6177492141723633, 
198, 570482218, 0.6608581, -0.53656876, -0.44965187, -0.27050692, 8.637343406677246, -4.185539722442627, 0.3896653652191162, -2.0665996074676514, -6.458346366882324, 3.0077579021453857, 
199, 570498885, 0.65990895, -0.5377087, -0.44998932, -0.2699984, 8.76800537109375, -4.225923538208008, 0.3237919807434082, -6.218894958496094, -9.726887702941895, 3.450166940689087, 
200, 570515552, 0.65889066, -0.5389939, -0.45025197, -0.26948467, 8.877639770507812, -4.491626262664795, 0.16835558414459229, -7.462655544281006, -9.786650657653809, 4.0808868408203125, 
201, 570532219, 0.6580731, -0.540191, -0.45026287, -0.26906684, 8.878690719604492, -4.5784525871276855, 0.12303107231855392, -6.904642581939697, -7.591012477874756, 4.683373928070068, 
202, 570548886, 0.6575161, -0.5412634, -0.45005974, -0.26861304, 8.896063804626465, -4.736459255218506, 0.08557477593421936, -5.781991481781006, -5.64548921585083, 5.735844135284424, 
203, 570565553, 0.6572872, -0.5420653, -0.44975606, -0.2680643, 8.82451343536377, -4.777207374572754, 0.1266331523656845, -3.315077781677246, -3.9814565181732178, 6.301819801330566, 
204, 570582220, 0.65733325, -0.5425412, -0.44949976, -0.2674176, 8.684144973754883, -4.75965690612793, 0.14505065977573395, -0.7708910703659058, -2.926942825317383, 6.058896064758301, 
205, 570598887, 0.6574913, -0.5427658, -0.4493236, -0.26686868, 8.600025177001953, -4.5989460945129395, 0.24533623456954956, 0.7931933403015137, -2.192460298538208, 4.7360124588012695, 
206, 570615554, 0.65767425, -0.5428233, -0.4491921, -0.26652178, 8.595463752746582, -4.603133201599121, 0.23324991762638092, 1.2611373662948608, -1.3462547063827515, 3.183626651763916, 
207, 570632221, 0.6579195, -0.54271317, -0.44911927, -0.2662634, 8.697554588317871, -4.614243984222412, 0.29484570026397705, 2.1593616008758545, -0.8199393153190613, 2.157684087753296, 
208, 570648888, 0.6581617, -0.542623, -0.44897932, -0.26608482, 8.78016471862793, -4.5644121170043945, 0.3234119713306427, 1.767320990562439, -0.31576618552207947, 2.102360725402832, 
209, 570665555, 0.6583746, -0.54256725, -0.44885457, -0.26588237, 8.777113914489746, -4.554341793060303, 0.28786587715148926, 1.7809085845947266, -0.7255309224128723, 2.2090249061584473, 
210, 570682222, 0.6585444, -0.54256195, -0.44875646, -0.26563767, 8.811498641967773, -4.491669654846191, 0.26858505606651306, 1.482699990272522, -1.1855990886688232, 2.3836779594421387, 
211, 570698889, 0.658664, -0.5426144, -0.4486534, -0.26540828, 8.841239929199219, -4.423993110656738, 0.2834365963935852, 0.9515694975852966, -1.3555265665054321, 2.4267711639404297, 
212, 570715556, 0.65867084, -0.54281175, -0.44850457, -0.26523936, 8.79665756225586, -4.373095989227295, 0.2474994659423828, -0.7032734751701355, -1.3793976306915283, 2.5792694091796875, 
213, 570732223, 0.6585922, -0.5430736, -0.44838783, -0.2650963, 8.742743492126465, -4.410145282745361, 0.2591205835342407, -1.5805083513259888, -1.6755443811416626, 2.3980209827423096, 
214, 570748890, 0.6584247, -0.5434001, -0.44825393, -0.26506945, 8.74519157409668, -4.378148555755615, 0.2203848958015442, -1.7157820463180542, -2.0338149070739746, 1.9809119701385498, 
215, 570765557, 0.6581409, -0.5438283, -0.44811347, -0.2651333, 8.799943923950195, -4.373992443084717, 0.16592885553836823, -3.2466399669647217, -2.0193052291870117, 1.7053446769714355, 
216, 570782224, 0.65782434, -0.544254, -0.4479963, -0.26524365, 8.765009880065918, -4.440863132476807, 0.1721997857093811, -3.7639336585998535, -1.881195306777954, 1.35653817653656, 
217, 570798891, 0.6575136, -0.544572, -0.44798344, -0.2653831, 8.7304048538208, -4.438640117645264, 0.140593484044075, -3.2435412406921387, -1.9847153425216675, 0.526027262210846, 
218, 570815558, 0.65716094, -0.5449008, -0.44798717, -0.2655752, 8.764690399169922, -4.500499725341797, 0.19351200759410858, -3.734344482421875, -1.9214775562286377, 0.1897837221622467, 
219, 570832225, 0.6568009, -0.54524815, -0.4479264, -0.26585552, 8.751352310180664, -4.580323219299316, 0.2416287660598755, -3.485889196395874, -1.7665976285934448, 0.07958507537841797, 
220, 570848892, 0.65655315, -0.5454299, -0.44792557, -0.26609597, 8.727707862854004, -4.688065528869629, 0.219822496175766, -2.48549485206604, -1.3231903314590454, -0.26780638098716736, 
221, 570865559, 0.65646994, -0.5454391, -0.44796157, -0.2662215, 8.73792839050293, -4.678271293640137, 0.2994920611381531, -0.5530037879943848, -1.1609340906143188, -0.12059739977121353, 
222, 570882226, 0.6564285, -0.54534984, -0.4480226, -0.26640382, 8.7157564163208, -4.5250701904296875, 0.3015684187412262, -0.22995083034038544, -0.6786341071128845, -0.6990473866462708, 
223, 570898893, 0.6563851, -0.54527634, -0.44805515, -0.26660636, 8.68701457977295, -4.691122055053711, 0.26880767941474915, -0.027751358225941658, -0.7320877313613892, -0.6391264796257019, 
224, 570915560, 0.65650827, -0.5449849, -0.44816974, -0.26670682, 8.803526878356934, -4.654183864593506, 0.33698657155036926, 1.5221434831619263, -0.29327821731567383, -0.8491889834403992, 
225, 570932227, 0.6565705, -0.544771, -0.44823718, -0.26687685, 8.811850547790527, -4.485663414001465, 0.26731351017951965, 0.356407105922699, -0.0035473585594445467, -0.8544908165931702, 
226, 570948894, 0.65642655, -0.5447987, -0.44827014, -0.26711926, 8.7543306350708, -4.61398458480835, 0.24318423867225647, -1.7437381744384766, -0.6858311295509338, -0.6819892525672913, 
227, 570965561, 0.6563073, -0.54485965, -0.4482105, -0.2673874, 8.76019287109375, -4.644333839416504, 0.3066239356994629, -1.8993991613388062, -0.24106672406196594, -0.304470956325531, 
228, 570982228, 0.65619826, -0.5449459, -0.44799906, -0.26783347, 8.803872108459473, -4.575332164764404, 0.2949368953704834, -2.119220495223999, 0.7189421057701111, -0.45559871196746826, 
229, 570998895, 0.6559644, -0.5451661, -0.44781086, -0.26827255, 8.784144401550293, -4.529940128326416, 0.1823500394821167, -3.9025561809539795, 0.36959773302078247, -0.31248781085014343, 
230, 571015562, 0.6557386, -0.5453845, -0.44766423, -0.26862514, 8.760836601257324, -4.744080066680908, 0.08498620986938477, -3.2603938579559326, -0.2531558871269226, -0.07103681564331055, 
231, 571032229, 0.655766, -0.5453767, -0.4475895, -0.26869878, 8.767040252685547, -4.6911234855651855, 0.06877287477254868, -0.36840030550956726, -0.38389599323272705, 0.6830971240997314, 
232, 571048896, 0.65584624, -0.54533654, -0.44755343, -0.26864457, 8.725521087646484, -4.6373395919799805, 0.0962112620472908, 0.28138113021850586, -0.721977174282074, 1.1113606691360474, 
233, 571065563, 0.6560023, -0.54521644, -0.44760355, -0.2684236, 8.672812461853027, -4.665585994720459, 0.1783924400806427, 1.0623186826705933, -1.0565749406814575, 1.4291694164276123, 
234, 571082230, 0.65620863, -0.5450834, -0.4475767, -0.268234, 8.703407287597656, -4.560581207275391, 0.2023622989654541, 1.7704267501831055, -0.794672429561615, 1.6265344619750977, 
235, 571098897, 0.6563052, -0.5450681, -0.44758064, -0.26802242, 8.698772430419922, -4.531230926513672, 0.16403678059577942, 0.8128638863563538, -1.4950132369995117, 1.7719186544418335, 
236, 571115564, 0.656424, -0.5450328, -0.44761813, -0.26774088, 8.765186309814453, -4.613554954528809, 0.1716185063123703, 1.0653283596038818, -1.6920644044876099, 1.9460978507995605, 
237, 571132231, 0.65654534, -0.5450396, -0.44754174, -0.26755694, 8.812429428100586, -4.555932998657227, 0.2589349150657654, 1.204085111618042, -1.3326671123504639, 2.0524158477783203, 
238, 571148898, 0.6566739, -0.54500556, -0.4474978, -0.26738375, 8.768824577331543, -4.585036277770996, 0.2766866385936737, 1.707144021987915, -1.4918372631072998, 1.7727382183074951, 
239, 571165565, 0.6568694, -0.54485357, -0.44753164, -0.26715657, 8.826799392700195, -4.488395690917969, 0.2990913391113281, 1.723779559135437, -1.0358415842056274, 1.50003981590271, 
240, 571182232, 0.65689147, -0.5449436, -0.44742697, -0.2670943, 8.846356391906738, -4.500594615936279, 0.32169464230537415, -0.5423616766929626, -0.9065742492675781, 1.7052358388900757, 
241, 571198899, 0.65689707, -0.5451029, -0.44728193, -0.2669981, 8.75696849822998, -4.629393100738525, 0.30618947744369507, -1.2934414148330688, -0.8117433190345764, 2.2047605514526367, 
242, 571215566, 0.6569903, -0.5451631, -0.4471626, -0.26684588, 8.722423553466797, -4.633316993713379, 0.2793211340904236, 0.2074308544397354, -0.9662519097328186, 2.207577705383301, 
243, 571232233, 0.6571194, -0.5451149, -0.4471027, -0.26672703, 8.70680046081543, -4.500075340270996, 0.2898373305797577, 0.9450125098228455, -0.8645823001861572, 1.5625730752944946, 
244, 571248900, 0.65721315, -0.5451271, -0.4470324, -0.2665887, 8.756717681884766, -4.541730880737305, 0.24635940790176392, 0.21718928217887878, -0.9154747128486633, 1.8255513906478882, 
245, 571265567, 0.6572406, -0.5452317, -0.4469106, -0.2665114, 8.824457168579102, -4.511462211608887, 0.23902630805969238, -0.7538458108901978, -0.8138051629066467, 1.9091386795043945, 
246, 571282234, 0.657114, -0.5456459, -0.44658542, -0.26652068, 8.7794771194458, -4.6186203956604, 0.17440830171108246, -2.335686206817627, -1.1839855909347534, 2.9374377727508545, 
247, 571298901, 0.6571744, -0.5458665, -0.44645038, -0.26614627, 8.742461204528809, -4.747854709625244, 0.14439630508422852, -0.8505721092224121, -1.6574105024337769, 3.7356438636779785, 
248, 571315568, 0.65733397, -0.5459492, -0.44636637, -0.26572278, 8.68998908996582, -4.600083827972412, 0.17640769481658936, 0.5434567332267761, -1.5954662561416626, 3.518000602722168, 
249, 571332235, 0.6573882, -0.5461541, -0.44616252, -0.26551, 8.65817642211914, -4.636725425720215, 0.18005898594856262, -0.14883539080619812, -1.4295728206634521, 3.1747004985809326, 
250, 571348902, 0.65739685, -0.54635054, -0.4459705, -0.26540703, 8.707812309265137, -4.605859756469727, 0.20164285600185394, -0.6086217761039734, -1.191413164138794, 2.52311372756958, 
251, 571365569, 0.6573407, -0.54652804, -0.44585612, -0.26537266, 8.701033592224121, -4.639355659484863, 0.15210725367069244, -1.0343176126480103, -1.3367780447006226, 1.7506089210510254, 
252, 571382236, 0.65736806, -0.5465612, -0.44581923, -0.26529875, 8.708724975585938, -4.708720684051514, 0.12365108728408813, -0.20677772164344788, -1.0888022184371948, 1.358023762702942, 
253, 571398903, 0.6574929, -0.5464803, -0.4458257, -0.26514536, 8.716846466064453, -4.678697109222412, 0.17223180830478668, 0.7399700880050659, -0.9274230599403381, 1.383975863456726, 
254, 571415570, 0.6576488, -0.546339, -0.44584647, -0.2650147, 8.671825408935547, -4.704202175140381, 0.19820860028266907, 1.2170964479446411, -0.7746304869651794, 1.0971137285232544, 
255, 571432237, 0.65789306, -0.5460529, -0.44590786, -0.2648948, 8.665289878845215, -4.630548477172852, 0.25477465987205505, 2.4920194149017334, -0.51884925365448, 0.6080647110939026, 
256, 571448904, 0.65804636, -0.5458091, -0.44600093, -0.26485953, 8.666116714477539, -4.578237533569336, 0.26943472027778625, 2.18338680267334, -0.9428547024726868, 0.060862183570861816, 
257, 571465571, 0.65818137, -0.5455793, -0.4461005, -0.2648298, 8.703102111816406, -4.6297502517700195, 0.25880563259124756, 1.9036191701889038, -0.9558275938034058, 0.022622419521212578, 
258, 571482238, 0.6584063, -0.5452888, -0.4461677, -0.26475567, 8.735433578491211, -4.659144401550293, 0.2582954168319702, 2.454291820526123, -0.5138548016548157, 0.3309352695941925, 
259, 571498905, 0.6585925, -0.54506487, -0.44617096, -0.26474848, 8.744925498962402, -4.5626959800720215, 0.23939962685108185, 1.9289371967315674, -0.35318630933761597, 0.39555612206459045, 
260, 571515572, 0.6587462, -0.5448722, -0.4462091, -0.2646984, 8.717870712280273, -4.697970867156982, 0.20791947841644287, 1.3410489559173584, -0.5354078412055969, 0.5113255381584167, 
261, 571532239, 0.65897995, -0.54451996, -0.44637132, -0.26456836, 8.667230606079102, -4.566088676452637, 0.2633448839187622, 3.1598451137542725, -1.0404261350631714, 0.05535545200109482, 
262, 571548906, 0.65904427, -0.5442748, -0.4465276, -0.2646486, 8.663189888000488, -4.45059871673584, 0.24361206591129303, 1.297212839126587, -0.8950358629226685, -0.8502136468887329, 
263, 571565573, 0.65900934, -0.5442003, -0.44655043, -0.26485002, 8.70914363861084, -4.62555456161499, 0.2566445469856262, -0.13212309777736664, -0.6377946138381958, -0.5534775853157043, 
264, 571582240, 0.6590303, -0.5440491, -0.44660932, -0.26500922, 8.718278884887695, -4.643215656280518, 0.23786823451519012, 0.2665961980819702, -0.4485935866832733, -0.6273317337036133, 
265, 571598907, 0.6590009, -0.5439743, -0.4466728, -0.26512855, 8.682241439819336, -4.650027751922607, 0.1983119696378708, 0.13791799545288086, -1.067780613899231, -0.32533252239227295, 
266, 571615574, 0.65901214, -0.5438878, -0.4467387, -0.26516756, 8.697982788085938, -4.7409281730651855, 0.22239774465560913, 0.7774094939231873, -1.3342103958129883, 0.06837310642004013, 
267, 571632241, 0.6591587, -0.5436468, -0.44687396, -0.2650692, 8.7376127243042, -4.728084087371826, 0.22775432467460632, 1.8298546075820923, -1.0686002969741821, 0.20648320019245148, 
268, 571648908, 0.6592852, -0.5434737, -0.44697088, -0.26494625, 8.762495994567871, -4.7091145515441895, 0.2201005220413208, 1.4579451084136963, -1.1749310493469238, 0.6277351379394531, 
269, 571665575, 0.6593815, -0.5434036, -0.44698867, -0.2648202, 8.741477012634277, -4.799971580505371, 0.13489262759685516, 1.5589489936828613, -1.5641419887542725, 1.1887943744659424, 
270, 571682242, 0.65972036, -0.5430563, -0.44719014, -0.26434833, 8.73093032836914, -4.761170387268066, 0.1812288910150528, 3.856882333755493, -1.7255020141601562, 1.6641019582748413, 
271, 571698909, 0.66005516, -0.54270023, -0.44734654, -0.26397938, 8.720073699951172, -4.584770679473877, 0.2518947124481201, 4.579237461090088, -1.7446603775024414, 1.317690134048462, 
272, 571715576, 0.66028166, -0.5423905, -0.44754633, -0.26371032, 8.67379379272461, -4.534440994262695, 0.2589174807071686, 3.420710802078247, -1.8077061176300049, 0.6568825840950012, 
273, 571732243, 0.6603842, -0.5421903, -0.44772914, -0.26355448, 8.690754890441895, -4.537135601043701, 0.24864962697029114, 2.16367769241333, -1.9348472356796265, 0.32007551193237305, 
274, 571748910, 0.6603929, -0.54209465, -0.4478899, -0.2634566, 8.71914005279541, -4.5969672203063965, 0.2476612627506256, 0.9660149812698364, -2.006883144378662, 0.300110399723053, 
275, 571765577, 0.66041964, -0.5419926, -0.44807935, -0.26327726, 8.691346168518066, -4.734111309051514, 0.23899075388908386, 1.0902109146118164, -2.221696615219116, 0.5740125775337219, 
276, 571782244, 0.6604933, -0.5419211, -0.44823772, -0.26296985, 8.674737930297852, -4.766941547393799, 0.2771274745464325, 1.5592560768127441, -2.518906354904175, 1.4474183320999146, 
277, 571798911, 0.66072184, -0.5417159, -0.44844344, -0.26246718, 8.64091968536377, -4.789331912994385, 0.3092033267021179, 2.669471025466919, -2.3129231929779053, 2.0271430015563965, 
278, 571815578, 0.66104513, -0.54138094, -0.44865555, -0.2619812, 8.617079734802246, -4.685223579406738, 0.36367613077163696, 4.307089805603027, -2.170407772064209, 1.6867948770523071, 
279, 571832245, 0.6613515, -0.5409865, -0.448889, -0.26162288, 8.646615028381348, -4.574967861175537, 0.3329465687274933, 4.414047718048096, -1.8865545988082886, 0.8063581585884094, 
280, 571848912, 0.6616121, -0.54061353, -0.44912767, -0.26132524, 8.711371421813965, -4.59779691696167, 0.3337601125240326, 3.6158671379089355, -1.6677712202072144, 0.501733660697937, 
281, 571865579, 0.6618095, -0.54031736, -0.4492885, -0.26116177, 8.720951080322266, -4.587560176849365, 0.28566381335258484, 2.9499619007110596, -1.4166256189346313, 0.3006226718425751, 
282, 571882246, 0.6619815, -0.54004335, -0.44943407, -0.26104134, 8.720455169677734, -4.572137832641602, 0.2804964482784271, 2.29190731048584, -1.1356414556503296, 0.18672297894954681, 
283, 571898913, 0.6621245, -0.53981316, -0.44954985, -0.26095596, 8.719653129577637, -4.582033634185791, 0.2803199887275696, 1.9508745670318604, -1.1098750829696655, 0.22564148902893066, 
284, 571915580, 0.66232723, -0.5394863, -0.4497035, -0.26085243, 8.710938453674316, -4.597256660461426, 0.2798413336277008, 2.5250084400177, -0.872522234916687, -0.019721778109669685, 
285, 571932247, 0.66256034, -0.53904885, -0.44994882, -0.26074216, 8.681100845336914, -4.552031993865967, 0.3595764636993408, 2.955007791519165, -0.8120121955871582, -0.6163824200630188, 
286, 571948914, 0.6627998, -0.5385601, -0.45023853, -0.2606434, 8.7066650390625, -4.512781143188477, 0.38066720962524414, 3.1795670986175537, -0.8205413222312927, -0.977893054485321, 
287, 571965581, 0.6629014, -0.5382448, -0.45043045, -0.2607037, 8.74409008026123, -4.528717994689941, 0.3393006920814514, 2.210817575454712, -1.0930476188659668, -1.0522336959838867, 
288, 571982248, 0.66290456, -0.53809464, -0.4505833, -0.26074237, 8.740799903869629, -4.567216873168945, 0.2784317433834076, 1.0276967287063599, -1.5586415529251099, -0.4678223431110382, 
289, 571998915, 0.66290396, -0.53795743, -0.45077232, -0.26070055, 8.68832778930664, -4.622927665710449, 0.26654520630836487, 1.2317723035812378, -2.0355565547943115, -0.19994553923606873, 
290, 572015582, 0.66292, -0.5377919, -0.45103264, -0.2605505, 8.666329383850098, -4.592296600341797, 0.2937409281730652, 1.5501638650894165, -2.4666948318481445, -0.027495231479406357, 
291, 572032249, 0.66291296, -0.5376459, -0.45124805, -0.2604969, 8.639114379882812, -4.590249538421631, 0.30818527936935425, 1.339576244354248, -2.206073045730591, -0.28586331009864807, 
292, 572048916, 0.66294926, -0.5373801, -0.4515386, -0.26044935, 8.641072273254395, -4.610812187194824, 0.318164199590683, 1.4645918607711792, -1.7847826480865479, -0.883125901222229, 
293, 572065583, 0.66299635, -0.53708047, -0.45180666, -0.26048225, 8.65212345123291, -4.646481990814209, 0.30133023858070374, 1.831916332244873, -1.5495041608810425, -1.2533317804336548, 
294, 572082250, 0.66309243, -0.5366891, -0.45215186, -0.260446, 8.674261093139648, -4.634140968322754, 0.3149515390396118, 2.540721893310547, -1.7051907777786255, -1.4206721782684326, 
295, 572098917, 0.6632161, -0.53627455, -0.4525352, -0.2603188, 8.720549583435059, -4.668828964233398, 0.32917675375938416, 2.7400145530700684, -1.8873999118804932, -1.1743037700653076, 
296, 572115584, 0.6633338, -0.5359563, -0.45278436, -0.26024166, 8.765926361083984, -4.694542407989502, 0.3324130177497864, 2.964625358581543, -1.8889238834381104, -0.6221964955329895, 
297, 572132251, 0.6635387, -0.5355505, -0.45307884, -0.2600419, 8.76803970336914, -4.703680515289307, 0.3047153055667877, 3.862619400024414, -1.958795428276062, -0.3465654253959656, 
298, 572148918, 0.6638163, -0.5350505, -0.45343736, -0.25973785, 8.738258361816406, -4.532551288604736, 0.31495577096939087, 5.062933444976807, -2.276508331298828, -0.27383819222450256, 
299, 572165585, 0.66402346, -0.534556, -0.45384786, -0.259509, 8.724455833435059, -4.433317184448242, 0.31996068358421326, 4.623137950897217, -2.4563605785369873, -0.9125677347183228, 
300, 572182252, 0.6641014, -0.53427273, -0.4541712, -0.25932708, 8.777612686157227, -4.4053497314453125, 0.3430749177932739, 2.648897647857666, -2.535555124282837, -0.3748418688774109, 
301, 572198919, 0.66402245, -0.53420085, -0.4544234, -0.25923568, 8.776018142700195, -4.457505226135254, 0.31212225556373596, 0.5224798917770386, -2.6497488021850586, -0.14241941273212433, 
302, 572215586, 0.66392195, -0.5341996, -0.45464045, -0.25911507, 8.747257232666016, -4.5231099128723145, 0.3263506293296814, -0.09799420088529587, -2.6491858959198, 0.30721792578697205, 
303, 572232253, 0.6637727, -0.53431433, -0.45475173, -0.25906554, 8.759366989135742, -4.518632411956787, 0.3550037741661072, -0.3386511206626892, -2.7551069259643555, 0.6483662724494934, 
304, 572248920, 0.6636514, -0.5344341, -0.4548726, -0.2589175, 8.776779174804688, -4.608748912811279, 0.3104444444179535, -0.5414780378341675, -2.746539354324341, 1.1290141344070435, 
305, 572265587, 0.66353434, -0.5345957, -0.45490524, -0.25882623, 8.823323249816895, -4.655820846557617, 0.3245841860771179, -0.5106276273727417, -2.4960343837738037, 1.3321996927261353, 
306, 572282254, 0.663547, -0.5346164, -0.4549598, -0.2586549, 8.778918266296387, -4.634178161621094, 0.3305654525756836, 0.6521697640419006, -2.100600004196167, 1.4053239822387695, 
307, 572298921, 0.66358745, -0.53452796, -0.45508975, -0.2585052, 8.726066589355469, -4.494059085845947, 0.30849602818489075, 1.4369173049926758, -2.1494181156158447, 0.7363075017929077, 
308, 572315588, 0.66359663, -0.53444934, -0.45522833, -0.25840014, 8.71428394317627, -4.4468302726745605, 0.3245890140533447, 0.68293696641922, -1.8805419206619263, 0.4767291843891144, 
309, 572332255, 0.6635049, -0.53449726, -0.45527476, -0.25845486, 8.715055465698242, -4.440631866455078, 0.332424134016037, -0.49886494874954224, -1.6517055034637451, 0.30791589617729187, 
310, 572348922, 0.6633405, -0.5346729, -0.45527345, -0.25851595, 8.717275619506836, -4.487708568572998, 0.2845464050769806, -1.8104722499847412, -1.6707676649093628, 0.7255117893218994, 
311, 572365589, 0.66314137, -0.5349523, -0.45516872, -0.25863338, 8.731873512268066, -4.57614278793335, 0.2633589804172516, -2.2207236289978027, -1.58920419216156, 1.1139668226242065, 
312, 572382256, 0.6630106, -0.53517103, -0.4550909, -0.25865272, 8.727526664733887, -4.572234153747559, 0.2352314591407776, -1.521291732788086, -1.648228406906128, 1.395014762878418, 
313, 572398923, 0.6629217, -0.5353024, -0.4551327, -0.2585353, 8.731740951538086, -4.533163070678711, 0.26598262786865234, -1.3343063592910767, -1.8482251167297363, 1.3792500495910645, 
314, 572415590, 0.6628192, -0.5354362, -0.45512038, -0.25854272, 8.746299743652344, -4.543195724487305, 0.33626312017440796, -1.3168001174926758, -1.5079221725463867, 0.9919478297233582, 
315, 572432257, 0.66267097, -0.5356025, -0.45505542, -0.25869253, 8.72421932220459, -4.540078163146973, 0.3121538460254669, -1.649803638458252, -1.2341864109039307, 0.5578766465187073, 
316, 572448924, 0.6625384, -0.53573835, -0.45502388, -0.2588064, 8.748248100280762, -4.591708183288574, 0.2502775192260742, -1.6981732845306396, -1.1845104694366455, 0.5324048399925232, 
317, 572465591, 0.6624518, -0.53578806, -0.45507103, -0.2588418, 8.783146858215332, -4.626964092254639, 0.2536863088607788, -0.7712624669075012, -1.524058222770691, 0.409271776676178, 
318, 572482258, 0.66235703, -0.5358432, -0.45506462, -0.25898156, 8.810555458068848, -4.561307907104492, 0.2893049120903015, -0.504967212677002, -1.3435782194137573, 0.1339864283800125, 
319, 572498925, 0.6622208, -0.53596246, -0.45505834, -0.25909427, 8.856308937072754, -4.518491268157959, 0.20623688399791718, -0.9175876975059509, -1.6580508947372437, 0.3835309147834778, 
320, 572515592, 0.6621003, -0.5361395, -0.4550529, -0.25904566, 8.858829498291016, -4.611804962158203, 0.11305977404117584, -1.6360241174697876, -1.7398067712783813, 1.3286268711090088, 
321, 572532259, 0.6620582, -0.5363275, -0.45497492, -0.2589012, 8.76321792602539, -4.696047782897949, 0.1482609361410141, -0.6298162341117859, -1.8635287284851074, 2.2076802253723145, 
322, 572548926, 0.66212505, -0.5363687, -0.45499, -0.25861773, 8.641794204711914, -4.594024658203125, 0.26766878366470337, 0.6214089393615723, -1.9630470275878906, 2.2250072956085205, 
323, 572565593, 0.6621613, -0.5364065, -0.45498866, -0.258449, 8.61215877532959, -4.548525810241699, 0.271621435880661, 0.6144870519638062, -1.821479320526123, 1.6972254514694214, 
324, 572582260, 0.66215384, -0.5364288, -0.4549795, -0.25843808, 8.666064262390137, -4.549932479858398, 0.2987538278102875, -0.20937100052833557, -1.1865211725234985, 0.8792263269424438, 
325, 572598927, 0.66218466, -0.5363681, -0.45498145, -0.25848168, 8.655410766601562, -4.714140892028809, 0.21932947635650635, 0.11639051884412766, -0.7473530173301697, 0.39902666211128235, 
326, 572615594, 0.66235256, -0.536146, -0.4550568, -0.2583796, 8.749327659606934, -4.7126383781433105, 0.19917938113212585, 1.7811262607574463, -0.8123964071273804, 0.5251948237419128, 
327, 572632261, 0.6625938, -0.5358494, -0.4551766, -0.2581653, 8.780046463012695, -4.474016189575195, 0.2539047300815582, 2.775167942047119, -1.0378522872924805, 0.7682977914810181, 
328, 572648928, 0.6626158, -0.53587717, -0.45511568, -0.25815827, 8.798102378845215, -4.5091094970703125, 0.2523472309112549, -0.1452624350786209, -0.8965469598770142, 1.120843768119812, 
329, 572665595, 0.6625132, -0.53613293, -0.45491496, -0.25824398, 8.750929832458496, -4.5023908615112305, 0.3145916163921356, -1.76655912399292, -0.9438919425010681, 1.7057737112045288, 
330, 572682262, 0.6623164, -0.5364315, -0.4547176, -0.25847715, 8.687952041625977, -4.368733882904053, 0.4970984160900116, -3.0671589374542236, -0.6203652024269104, 0.9893481135368347, 
331, 572698929, 0.66199195, -0.5367877, -0.45451722, -0.2589207, 8.733318328857422, -4.373115062713623, 0.40208399295806885, -5.079946994781494, 0.002465222729369998, 0.002618898870423436, 
332, 572715596, 0.6616655, -0.5369476, -0.4545735, -0.25932443, 8.68729019165039, -4.443148612976074, 0.3082956075668335, -3.3879973888397217, -1.099566102027893, -1.3784116506576538, 
333, 572732263, 0.66128886, -0.5370687, -0.4548299, -0.25958413, 8.7333984375, -4.460395336151123, 0.14135976135730743, -2.82609224319458, -2.5012078285217285, -1.6684496402740479, 
334, 572748930, 0.6606534, -0.53758866, -0.45502344, -0.25978732, 8.782388687133789, -4.474849700927734, 0.1606867015361786, -4.954713821411133, -4.261940956115723, -0.39346233010292053, 
335, 572765597, 0.6599291, -0.5382385, -0.45529693, -0.2598037, 8.710611343383789, -4.67964506149292, 0.10026028007268906, -5.335702896118164, -5.71722936630249, 0.41130805015563965, 
336, 572782264, 0.6592873, -0.5387268, -0.4557154, -0.25968668, 8.665771484375, -4.538295269012451, 0.1727510243654251, -3.6189210414886475, -6.317884922027588, 0.11557091027498245, 
337, 572798931, 0.6584336, -0.5394779, -0.45598456, -0.25982097, 8.705575942993164, -4.414245128631592, 0.15062858164310455, -6.4002299308776855, -5.981590747833252, -0.027892235666513443, 
338, 572815598, 0.65745515, -0.54042226, -0.45618504, -0.25998428, 8.620824813842773, -4.798358917236328, 0.0068663619458675385, -8.333799362182617, -6.087167739868164, 0.48567453026771545, 
339, 572832265, 0.65661705, -0.5411447, -0.45657635, -0.25991294, 8.593351364135742, -4.813011169433594, 0.17245952785015106, -5.398748397827148, -7.163476943969727, 0.3785366117954254, 
340, 572848932, 0.65610254, -0.5412776, -0.4572264, -0.25979254, 8.617161750793457, -4.807075500488281, 0.24886605143547058, -0.84853595495224, -6.483880519866943, -1.6436821222305298, 
341, 572865599, 0.6556641, -0.5413742, -0.45772794, -0.259815, 8.77271556854248, -4.697477340698242, 0.38132357597351074, -0.9056523442268372, -5.099603652954102, -1.7283451557159424, 
342, 572882266, 0.6550612, -0.5418067, -0.45792237, -0.2600914, 8.762195587158203, -4.681482315063477, 0.27025076746940613, -4.975164413452148, -3.5683486461639404, -0.9570440649986267, 
343, 572898933, 0.6541796, -0.5427623, -0.45792237, -0.26031792, 8.795146942138672, -4.878389358520508, 0.032272472977638245, -8.62031364440918, -4.661243438720703, 1.1411932706832886, 
344, 572915600, 0.6537688, -0.5432824, -0.45809484, -0.2599612, 8.727120399475098, -5.134451389312744, -0.019255947321653366, -2.1314761638641357, -5.6976728439331055, 2.5682687759399414, 
345, 572932267, 0.6539648, -0.5429395, -0.4586474, -0.25920898, 8.595890045166016, -4.6602044105529785, 0.22985264658927917, 5.76041841506958, -5.331156253814697, 1.2780675888061523, 
346, 572948934, 0.6540023, -0.54266435, -0.45914745, -0.25880533, 8.595444679260254, -4.324337959289551, 0.2276778221130371, 4.15114688873291, -4.68017053604126, -0.17684289813041687, 
347, 572965601, 0.653492, -0.54295677, -0.45947492, -0.25889987, 8.662189483642578, -4.218753814697266, 0.11822419613599777, -2.71110463142395, -4.578732013702393, -0.9418432116508484, 
348, 572982268, 0.65268624, -0.5437155, -0.45959035, -0.25913534, 8.700506210327148, -4.608916759490967, -0.02241474948823452, -7.000207424163818, -4.718730449676514, 0.1786549985408783, 
349, 572998935, 0.6520071, -0.54433507, -0.45983848, -0.2591041, 8.69050121307373, -4.713589191436768, -0.01177162490785122, -5.16755485534668, -5.470425128936768, 0.6754774451255798, 
350, 573015602, 0.6515652, -0.54464483, -0.46019882, -0.2589246, 8.663601875305176, -4.481877326965332, 0.04127377271652222, -1.6031886339187622, -5.567317485809326, 0.3357505202293396, 
351, 573032269, 0.6511643, -0.5448528, -0.46055457, -0.25886297, 8.652278900146484, -4.474505424499512, 0.0883246660232544, -1.796013593673706, -4.563632488250732, -0.4091244637966156, 
352, 573048936, 0.6506805, -0.54527634, -0.46066192, -0.2589975, 8.756856918334961, -4.567466735839844, 0.006132340524345636, -3.4583804607391357, -3.7375593185424805, 0.15492483973503113, 
353, 573065603, 0.6501979, -0.5457046, -0.46080565, -0.2590508, 8.797868728637695, -4.759660243988037, -0.012341490015387535, -3.2143044471740723, -4.175651550292969, 0.4014214873313904, 
354, 573082270, 0.65009713, -0.54574716, -0.46104732, -0.25878438, 8.875713348388672, -4.976689338684082, 0.10538509488105774, 0.6421809196472168, -3.6502201557159424, 0.9325136542320251, 
355, 573098937, 0.6504476, -0.5451327, -0.4616433, -0.25813508, 8.748988151550293, -4.691107273101807, -0.18414390087127686, 6.911133766174316, -3.962618350982666, 0.036799054592847824, 
356, 573115604, 0.65072477, -0.54458416, -0.46246165, -0.2571277, 9.00393009185791, -4.665955066680908, 0.04525310546159744, 7.867001056671143, -6.641592979431152, 0.882735550403595, 
357, 573132271, 0.65117764, -0.54359365, -0.46346638, -0.2562667, 8.604560852050781, -4.395611763000488, 0.24764467775821686, 10.947839736938477, -5.906214714050293, -1.5883467197418213, 
358, 573148938, 0.6514129, -0.5425973, -0.4644378, -0.2560217, 8.773311614990234, -4.0866923332214355, 0.4263436496257782, 8.902664184570312, -4.564248561859131, -4.654880046844482, 
359, 573165605, 0.65134513, -0.54194945, -0.46511856, -0.25632998, 8.948348045349121, -4.789028644561768, 0.7072036266326904, 3.073031187057495, -2.322150230407715, -5.422644138336182, 
360, 573182272, 0.651846, -0.54074526, -0.46578646, -0.25638744, 8.565403938293457, -4.724099636077881, -0.08834842592477798, 8.340157508850098, -0.3533017039299011, -5.023471832275391, 
361, 573198939, 0.65196604, -0.5393131, -0.46706754, -0.2567679, 8.748832702636719, -3.7538883686065674, 0.1898268610239029, 8.661445617675781, -3.0777134895324707, -10.18542194366455, 
362, 573215606, 0.6514727, -0.5388931, -0.4676491, -0.25784117, 9.062835693359375, -4.276065349578857, 0.06653615087270737, -2.1196177005767822, -0.8558356165885925, -8.492621421813965, 
363, 573232273, 0.65089476, -0.5387521, -0.46817875, -0.25863302, 8.769184112548828, -4.473993301391602, 0.09404062479734421, -2.1000750064849854, -2.8440725803375244, -6.318050861358643, 
364, 573248940, 0.650101, -0.539073, -0.4684213, -0.25952017, 8.868000030517578, -4.125229358673096, 0.4755089282989502, -5.942134380340576, -2.6401829719543457, -4.575709342956543, 
365, 573265607, 0.6491925, -0.5395316, -0.46859375, -0.26052764, 8.335829734802246, -3.815568447113037, 0.040483299642801285, -7.058055400848389, -2.7375502586364746, -4.630278587341309, 
366, 573282274, 0.6473435, -0.54120713, -0.46861228, -0.26161784, 8.294261932373047, -3.76509165763855, -0.3259802460670471, -17.139307022094727, -6.627049446105957, -2.157923460006714, 
367, 573298941, 0.64499974, -0.54398566, -0.46831343, -0.26217854, 8.235429763793945, -4.302457809448242, -0.555960476398468, -23.669431686401367, -10.27585220336914, 4.0940775871276855, 
368, 573315608, 0.64292157, -0.5468411, -0.46799135, -0.26191774, 8.258545875549316, -4.382060527801514, -0.9872096180915833, -19.622621536254883, -12.933351516723633, 8.492990493774414, 
369, 573332275, 0.6406937, -0.55014074, -0.46767953, -0.2610225, 8.42487621307373, -4.3752241134643555, -1.150418758392334, -20.02372169494629, -16.656665802001953, 12.406412124633789, 
370, 573348942, 0.63875425, -0.55337745, -0.4670657, -0.26003084, 9.031930923461914, -4.838113784790039, -1.1712785959243774, -18.336626052856445, -14.923341751098633, 14.238936424255371, 
371, 573365609, 0.6373809, -0.5559694, -0.46654502, -0.2588037, 9.057415008544922, -5.017366409301758, -1.2681010961532593, -12.968961715698242, -12.949854850769043, 13.890580177307129, 
372, 573382276, 0.63664144, -0.55739814, -0.46637848, -0.25784972, 9.476018905639648, -4.876118183135986, -1.1261260509490967, -5.779228687286377, -9.287454605102539, 8.733484268188477, 
373, 573398943, 0.63613474, -0.5582805, -0.4662737, -0.25738, 9.47463321685791, -4.9241180419921875, -0.6585420370101929, -3.9506571292877197, -5.963444709777832, 5.036693096160889, 
374, 573415610, 0.63602924, -0.5585225, -0.466149, -0.25734174, 9.561412811279297, -4.968197345733643, -0.6556623578071594, -1.1331056356430054, -1.7409335374832153, 1.8852676153182983, 
375, 573432277, 0.636011, -0.5582146, -0.46654943, -0.2573288, 9.133696556091309, -4.675020694732666, -0.979313850402832, 2.204376459121704, -2.5444300174713135, -1.8308600187301636, 
376, 573448944, 0.6362264, -0.5575757, -0.4671078, -0.25716847, 9.15372085571289, -4.961516380310059, -0.7249919772148132, 5.659363269805908, -2.648071527481079, -2.4600486755371094, 
377, 573465611, 0.6370773, -0.55628693, -0.46769965, -0.25677767, 8.930395126342773, -4.681186676025391, -0.5269549489021301, 12.026826858520508, -0.6346573829650879, -2.5700435638427734, 
378, 573482278, 0.6378489, -0.55505365, -0.4682628, -0.25650397, 8.795584678649902, -4.148189067840576, -0.435812771320343, 10.507786750793457, -0.11804897338151932, -2.895235300064087, 
379, 573498945, 0.6379934, -0.5546066, -0.46856827, -0.25655383, 8.503490447998047, -4.134039402008057, -0.5476426482200623, 3.699005126953125, -1.441777229309082, -1.9368066787719727, 
380, 573515612, 0.63776696, -0.554474, -0.46898237, -0.25664642, 8.399341583251953, -4.089716911315918, -0.563811182975769, 1.433536410331726, -3.7551803588867188, -2.2168688774108887, 
381, 573532279, 0.63750905, -0.55416846, -0.46956882, -0.2568754, 8.306777000427246, -4.232887268066406, -0.6662455201148987, 0.8149641752243042, -3.1798298358917236, -3.971313714981079, 
382, 573548946, 0.6372305, -0.55391794, -0.46991605, -0.25747052, 8.664811134338379, -4.215385437011719, -0.5832225680351257, -0.06257183104753494, -1.4497686624526978, -4.632133483886719, 
383, 573565613, 0.6368057, -0.55396265, -0.46995378, -0.25835514, 8.707439422607422, -4.402985095977783, -0.6782478094100952, -4.19028902053833, 0.44197916984558105, -3.942319869995117, 
384, 573582280, 0.63654745, -0.55411756, -0.46960118, -0.2592989, 8.734625816345215, -4.724605083465576, -0.658054530620575, -4.91799783706665, 2.7218172550201416, -2.062962293624878, 
385, 573598947, 0.6366278, -0.5537296, -0.4693638, -0.2603581, 8.490013122558594, -4.486635684967041, -0.8057393431663513, -1.77545964717865, 4.911254405975342, -4.123823642730713, 
386, 573615614, 0.6366195, -0.5533218, -0.46918878, -0.26155835, 8.624395370483398, -4.5557098388671875, -0.7582918405532837, -2.0869359970092773, 4.789479732513428, -5.239514350891113, 
387, 573632281, 0.63660103, -0.55296016, -0.468736, -0.2631745, 8.884025573730469, -4.430325031280518, -0.6420755982398987, -3.042494773864746, 6.887622356414795, -5.9793243408203125, 
388, 573648948, 0.6362607, -0.55302423, -0.4679603, -0.26523536, 8.94814395904541, -4.473631381988525, -0.7755745649337769, -8.70498275756836, 8.484156608581543, -5.8513288497924805, 
389, 573665615, 0.63606316, -0.55290085, -0.4673476, -0.26704082, 8.806304931640625, -5.013216018676758, -1.1388463973999023, -6.422732830047607, 7.71552848815918, -5.67498254776001, 
390, 573682282, 0.6368823, -0.5512234, -0.467614, -0.2680878, 8.804767608642578, -4.9500837326049805, -0.906845211982727, 8.173907279968262, 7.187881946563721, -8.839384078979492, 
391, 573698949, 0.63826174, -0.5486581, -0.46817097, -0.26909518, 8.890035629272461, -4.2256760597229, -0.5925663113594055, 14.53123950958252, 9.38099193572998, -11.557940483093262, 
392, 573715616, 0.63914204, -0.54650384, -0.46869108, -0.2704807, 8.840200424194336, -4.018184185028076, -0.5878719091415405, 9.645747184753418, 8.56446647644043, -12.680259704589844, 
393, 573732283, 0.6397337, -0.544778, -0.46912885, -0.27180153, 8.803437232971191, -4.459145545959473, -0.7005538940429688, 6.647390842437744, 7.011681079864502, -11.235429763793945, 
394, 573748950, 0.6406004, -0.5428337, -0.46973217, -0.27260694, 8.758617401123047, -4.553537368774414, -0.6085004210472107, 10.935190200805664, 5.497802257537842, -9.808135032653809, 
395, 573765617, 0.6417309, -0.5405946, -0.47047272, -0.2731201, 8.668845176696777, -4.230288505554199, -0.5009087324142456, 14.587416648864746, 5.136754512786865, -9.513080596923828, 
396, 573782284, 0.6424869, -0.5387881, -0.471088, -0.27385077, 8.701898574829102, -3.9960763454437256, -0.4056679904460907, 10.462380409240723, 4.4274725914001465, -9.310352325439453, 
397, 573798951, 0.64290845, -0.5374648, -0.4714118, -0.27490303, 8.857915878295898, -4.148555278778076, -0.30390191078186035, 5.007751941680908, 5.15866231918335, -8.679391860961914, 
398, 573815618, 0.64320546, -0.53635615, -0.47145993, -0.2762865, 9.003775596618652, -4.3151445388793945, -0.22848980128765106, 1.8512673377990723, 6.8688859939575195, -8.653162956237793, 
399, 573832285, 0.64333034, -0.5353989, -0.47128943, -0.27813786, 9.059826850891113, -4.140460014343262, -0.17317207157611847, -0.8614581227302551, 8.469991683959961, -9.785555839538574, 
400, 573848952, 0.6430296, -0.5349755, -0.4707566, -0.28053972, 9.167759895324707, -4.259182929992676, -0.22004106640815735, -7.385619163513184, 9.760348320007324, -9.969558715820312, 
401, 573865619, 0.6425605, -0.53489476, -0.46989846, -0.28319454, 9.208548545837402, -4.499752044677734, -0.3293388783931732, -11.200509071350098, 11.032790184020996, -9.082131385803223, 
402, 573882286, 0.64217407, -0.5348784, -0.46881768, -0.28588092, 9.075193405151367, -4.598588466644287, -0.3596844971179962, -11.028249740600586, 11.965209007263184, -8.074335098266602, 
403, 573898953, 0.6420541, -0.53462005, -0.46766517, -0.28850868, 9.049612998962402, -4.562108516693115, -0.29846882820129395, -9.232837677001953, 13.54581069946289, -7.801034927368164, 
404, 573915620, 0.6420855, -0.5342691, -0.46643603, -0.2910671, 9.051249504089355, -4.375732898712158, -0.42134201526641846, -8.703563690185547, 14.53830337524414, -7.199188709259033, 
405, 573932287, 0.6418631, -0.53429663, -0.46496788, -0.2938434, 9.035917282104492, -4.294241428375244, -0.4776745140552521, -11.919002532958984, 14.577571868896484, -6.601452350616455, 
406, 573948954, 0.6416109, -0.53459466, -0.463283, -0.29650104, 8.995309829711914, -4.529659271240234, -0.5479637384414673, -13.502754211425781, 14.568263053894043, -4.477554798126221, 
407, 573965621, 0.6413902, -0.53488135, -0.4615616, -0.2991348, 8.933756828308105, -4.4446539878845215, -0.49230605363845825, -12.848322868347168, 14.562653541564941, -4.2301483154296875, 
408, 573982288, 0.64108336, -0.5353261, -0.45975584, -0.30176613, 8.94991397857666, -4.457403182983398, -0.5103458762168884, -14.165022850036621, 14.406454086303711, -3.5959644317626953, 
409, 573998955, 0.6407909, -0.53562593, -0.4580609, -0.30442134, 8.944477081298828, -4.348225116729736, -0.322939395904541, -13.682233810424805, 14.520624160766602, -4.529087543487549, 
410, 574015622, 0.6402393, -0.53614753, -0.45615765, -0.3075059, 8.940990447998047, -4.190932750701904, -0.1753409206867218, -17.14377784729004, 15.639161109924316, -5.510134696960449, 
411, 574032289, 0.63925153, -0.537149, -0.45390403, -0.31112647, 8.930559158325195, -4.3931074142456055, -0.22998301684856415, -23.25605583190918, 16.776103973388672, -6.006285667419434, 
412, 574048956, 0.63814735, -0.53841764, -0.45139566, -0.31482777, 9.045270919799805, -4.793236255645752, -0.41989216208457947, -25.406885147094727, 17.14263343811035, -4.8240532875061035, 
413, 574065623, 0.6373401, -0.53951937, -0.4486648, -0.31845942, 9.234231948852539, -4.716148853302002, -0.422614723443985, -23.36487579345703, 18.96027946472168, -3.5897977352142334, 
414, 574082290, 0.636771, -0.54047024, -0.4457122, -0.32211104, 9.353026390075684, -4.602656841278076, -0.3812643587589264, -23.450342178344727, 21.54559898376465, -2.8054327964782715, 
415, 574098957, 0.6364037, -0.54122055, -0.44260556, -0.3258392, 9.408230781555176, -4.602334022521973, -0.3899720311164856, -22.515544891357422, 23.6240234375, -2.7405693531036377, 
416, 574115624, 0.6363974, -0.5414842, -0.43959442, -0.3294696, 9.439292907714844, -4.567070484161377, -0.17835098505020142, -18.364442825317383, 24.976646423339844, -3.348653793334961, 
417, 574132291, 0.6366323, -0.5414786, -0.43639478, -0.33325666, 9.578801155090332, -3.8864035606384277, 0.1614379584789276, -17.183256149291992, 27.734540939331055, -3.6072168350219727, 
418, 574148958, 0.6363107, -0.5421963, -0.43238738, -0.33789507, 9.40784740447998, -3.163410186767578, 0.34080952405929565, -26.914602279663086, 31.14497947692871, -3.420635223388672, 
419, 574165625, 0.6348355, -0.5440764, -0.42778176, -0.34346437, 9.103729248046875, -3.03893780708313, 0.40341082215309143, -40.46131896972656, 31.102001190185547, -4.468791961669922, 
420, 574182292, 0.6326832, -0.54656416, -0.42299163, -0.3493676, 8.985422134399414, -3.484196186065674, 0.4372144639492035, -46.700904846191406, 29.567649841308594, -5.01179313659668, 
421, 574198959, 0.6304456, -0.54902375, -0.41845554, -0.35497385, 8.85208511352539, -3.744245767593384, 0.632583498954773, -45.84690856933594, 27.34804916381836, -4.972256183624268, 
422, 574215626, 0.6283884, -0.5512254, -0.41424844, -0.3601068, 8.906874656677246, -3.940354585647583, 0.8091632723808289, -41.8535270690918, 25.26272964477539, -4.461897373199463, 
423, 574232293, 0.62688494, -0.55296254, -0.4104996, -0.36433244, 8.899640083312988, -4.179883003234863, 0.8729934692382812, -34.05060577392578, 22.572906494140625, -2.2339015007019043, 
424, 574248960, 0.62603545, -0.5541961, -0.4072629, -0.3675367, 8.9889554977417, -4.232934474945068, 1.0752778053283691, -25.166128158569336, 19.55362892150879, 0.43576958775520325, 
425, 574265627, 0.6260183, -0.55480576, -0.40444356, -0.36975265, 8.9395170211792, -4.123961448669434, 1.1438168287277222, -15.466696739196777, 17.87740135192871, 3.4510304927825928, 
426, 574282294, 0.62651676, -0.5550114, -0.40190417, -0.37136543, 8.856554985046387, -3.70190691947937, 1.1717290878295898, -9.374863624572754, 16.819799423217773, 5.162342548370361, 
427, 574298961, 0.6271352, -0.5551269, -0.39959916, -0.3726341, 8.755133628845215, -3.5574562549591064, 1.0514737367630005, -7.054909706115723, 15.07862663269043, 5.805642604827881, 
428, 574315628, 0.6279321, -0.55495584, -0.3977907, -0.37348112, 8.704171180725098, -3.5382003784179688, 1.0131069421768188, -2.6662580966949463, 12.524803161621094, 5.406325817108154, 
429, 574332295, 0.62884736, -0.5544402, -0.39649364, -0.37408558, 8.874149322509766, -3.297377586364746, 1.307464599609375, 1.2070566415786743, 10.609110832214355, 3.866514205932617, 
430, 574348962, 0.62975097, -0.55377597, -0.39533138, -0.3747787, 8.897855758666992, -3.1766724586486816, 1.4045417308807373, 1.9526934623718262, 10.684294700622559, 2.549213409423828, 
431, 574365629, 0.6305392, -0.55310416, -0.39422905, -0.37560567, 8.96697998046875, -3.0892930030822754, 1.3261622190475464, 1.4146217107772827, 10.591513633728027, 1.4427958726882935, 
432, 574382296, 0.6311926, -0.55250686, -0.3932016, -0.37646335, 9.046073913574219, -3.402437448501587, 1.34962797164917, 0.6573692560195923, 9.828561782836914, 0.8921866416931152, 
433, 574398963, 0.63211, -0.5515133, -0.392526, -0.3770856, 9.171813011169434, -3.5626437664031982, 1.3517084121704102, 4.8554205894470215, 9.16656494140625, 0.1928573101758957, 
434, 574415630, 0.6331727, -0.55027467, -0.3922328, -0.3774169, 9.188157081604004, -3.5822718143463135, 1.2378264665603638, 8.274718284606934, 7.407996654510498, -0.2658599317073822, 
435, 574432297, 0.6343355, -0.5488596, -0.3923381, -0.37741604, 9.344011306762695, -3.7276289463043213, 1.12637197971344, 11.372602462768555, 5.129118919372559, -0.5329877734184265, 
436, 574448964, 0.6358229, -0.5468978, -0.39295888, -0.3771148, 9.456714630126953, -3.701829195022583, 1.1979198455810547, 17.105518341064453, 4.049660682678223, -1.7962079048156738, 
437, 574465631, 0.6373262, -0.544792, -0.39368856, -0.37686425, 9.46311092376709, -3.435227155685425, 1.2671868801116943, 17.95906639099121, 4.1700921058654785, -2.764561653137207, 
438, 574482298, 0.6384862, -0.5429172, -0.39424154, -0.3770276, 9.318302154541016, -3.1626925468444824, 1.3830668926239014, 14.06003189086914, 4.972600936889648, -4.171069622039795, 
439, 574498965, 0.6392758, -0.54117423, -0.39464608, -0.37777185, 9.05639934539795, -3.1623692512512207, 1.474209189414978, 10.140854835510254, 6.440982341766357, -6.75473165512085, 
440, 574515632, 0.6396995, -0.53947926, -0.39521688, -0.3788805, 8.789270401000977, -3.1871070861816406, 1.3889479637145996, 7.973553657531738, 5.958306312561035, -9.786376953125, 
441, 574532299, 0.63998026, -0.5377074, -0.3958795, -0.3802313, 8.789338111877441, -3.341460943222046, 1.4720919132232666, 7.374407768249512, 6.255272388458252, -11.762421607971191, 
442, 574548966, 0.6401268, -0.53611416, -0.39635247, -0.38173833, 8.904123306274414, -3.4129254817962646, 1.4089120626449585, 5.226448059082031, 6.8062920570373535, -11.600129127502441, 
443, 574565633, 0.6400215, -0.5348988, -0.39671993, -0.3832348, 8.94464111328125, -3.467210292816162, 1.2154966592788696, 2.3891475200653076, 5.548295974731445, -10.790366172790527, 
444, 574582300, 0.639792, -0.5339166, -0.39711937, -0.38457218, 9.03785228729248, -3.5748562812805176, 1.2697458267211914, 1.3903796672821045, 3.884673595428467, -9.900901794433594, 
445, 574598967, 0.6396506, -0.53293884, -0.3975187, -0.385749, 9.048796653747559, -3.6697471141815186, 1.3977469205856323, 2.1088669300079346, 3.5338294506073, -8.950679779052734, 
446, 574615634, 0.63958824, -0.5319056, -0.39798465, -0.38679686, 8.9124755859375, -3.5844457149505615, 1.486886739730835, 3.1764302253723145, 3.12793231010437, -8.569190979003906, 
447, 574632301, 0.6394848, -0.53078026, -0.39865056, -0.3878265, 8.727688789367676, -3.4999582767486572, 1.5800641775131226, 4.076794147491455, 2.2840707302093506, -9.574235916137695, 
448, 574648968, 0.6393475, -0.5295377, -0.39944175, -0.38893598, 8.700199127197266, -3.4734716415405273, 1.8269355297088623, 4.52701473236084, 2.261378288269043, -10.801213264465332, 
449, 574665635, 0.639034, -0.5284303, -0.40015808, -0.3902186, 8.660116195678711, -3.522878408432007, 1.762559175491333, 2.6523754596710205, 2.351989984512329, -11.385024070739746, 
450, 574682302, 0.6385032, -0.52750295, -0.40092885, -0.3915487, 8.485730171203613, -3.657122850418091, 1.7132470607757568, 1.0805938243865967, 1.1986171007156372, -11.883091926574707, 
451, 574698969, 0.6380956, -0.526401, -0.40189403, -0.392705, 8.33859920501709, -3.9640259742736816, 1.6497011184692383, 3.2432289123535156, 0.5394997596740723, -11.988286972045898, 
452, 574715636, 0.6381968, -0.52473146, -0.40311012, -0.39352766, 8.25939655303955, -3.995527744293213, 1.697122573852539, 9.210596084594727, 1.1478019952774048, -11.634576797485352, 
453, 574732303, 0.63854134, -0.52281183, -0.40437347, -0.394227, 8.078912734985352, -3.76474666595459, 1.5790183544158936, 11.656253814697266, 1.8405110836029053, -11.311796188354492, 
454, 574748970, 0.63865805, -0.52122045, -0.40543148, -0.39505753, 7.9907684326171875, -3.634819507598877, 1.5174176692962646, 8.480377197265625, 1.6842602491378784, -10.86414623260498, 
455, 574765637, 0.63856554, -0.5199432, -0.40617993, -0.39611992, 8.025940895080566, -3.7440576553344727, 1.4807969331741333, 4.851118087768555, 2.438349485397339, -10.47846794128418, 
456, 574782304, 0.6382884, -0.5190295, -0.40658996, -0.3973428, 8.135254859924316, -3.8257198333740234, 1.3925111293792725, 1.213856816291809, 2.994260311126709, -9.475882530212402, 
457, 574798971, 0.6379229, -0.51828945, -0.40684026, -0.39863715, 8.326173782348633, -4.052427768707275, 1.237472653388977, -0.498013436794281, 3.2264389991760254, -8.988113403320312, 
458, 574815638, 0.6377782, -0.51742077, -0.4071597, -0.39966977, 8.511618614196777, -4.386014461517334, 1.0335350036621094, 1.824386715888977, 2.9461848735809326, -7.851830959320068, 
459, 574832305, 0.6380359, -0.51609564, -0.40782416, -0.40029374, 8.772746086120605, -4.308317184448242, 1.0152380466461182, 7.365299701690674, 2.360409736633301, -7.477208137512207, 
460, 574848972, 0.63855433, -0.51454264, -0.40867493, -0.40059862, 8.658175468444824, -4.1061692237854, 1.135820746421814, 10.708810806274414, 1.7741349935531616, -6.677529335021973, 
461, 574865639, 0.63926536, -0.51287556, -0.40959772, -0.40065983, 8.338793754577637, -3.8557584285736084, 1.231133222579956, 12.761887550354004, 1.46043062210083, -5.669105529785156, 
462, 574882306, 0.6400918, -0.51114994, -0.41071743, -0.4003993, 7.982084274291992, -3.8254942893981934, 1.1501058340072632, 14.88691520690918, -0.05509296432137489, -4.808007717132568, 
463, 574898973, 0.641184, -0.50911915, -0.41220543, -0.3997095, 7.8959245681762695, -3.621995210647583, 1.19444739818573, 19.37388801574707, -1.5831998586654663, -4.361745834350586, 
464, 574915640, 0.64224786, -0.5072109, -0.41382417, -0.3987537, 7.8155198097229, -3.3886630535125732, 1.189019799232483, 19.914384841918945, -3.5286285877227783, -3.3779618740081787, 
465, 574932307, 0.64318556, -0.5056923, -0.41541603, -0.3975143, 7.83351469039917, -3.319554328918457, 1.103052020072937, 18.449907302856445, -5.81011962890625, -1.2845810651779175, 
466, 574948974, 0.64405435, -0.5045901, -0.41684222, -0.3960121, 7.926151752471924, -3.3061399459838867, 1.0391254425048828, 16.714710235595703, -7.338611602783203, 1.453708291053772, 
467, 574965641, 0.64483815, -0.50385946, -0.41813657, -0.39429843, 8.000388145446777, -3.2439844608306885, 0.9956855177879333, 14.98597526550293, -8.728062629699707, 3.6668529510498047, 
468, 574982308, 0.64555585, -0.5034276, -0.4192494, -0.39248994, 8.060443878173828, -3.1363532543182373, 1.0941457748413086, 13.185526847839355, -9.23601245880127, 5.384274959564209, 
469, 574998975, 0.64602035, -0.50344676, -0.4200948, -0.39079326, 7.975454330444336, -3.0064573287963867, 1.1637392044067383, 9.314327239990234, -9.62368392944336, 6.432230472564697, 
470, 575015642, 0.646149, -0.50404274, -0.420654, -0.38920793, 7.878536701202393, -3.156066656112671, 1.1095830202102661, 4.4824748039245605, -10.480966567993164, 7.686267375946045, 
471, 575032309, 0.6461213, -0.50487554, -0.42117313, -0.38760963, 7.870766639709473, -3.339313507080078, 1.1136877536773682, 2.8320813179016113, -11.43538761138916, 8.14476203918457, 
472, 575048976, 0.6460308, -0.5058382, -0.4216276, -0.386008, 7.9620442390441895, -3.4163458347320557, 1.1242003440856934, 1.8545591831207275, -11.680679321289062, 8.58017635345459, 
473, 575065643, 0.6458644, -0.50694746, -0.42200816, -0.38441214, 8.110684394836426, -3.3772623538970947, 1.1053626537322998, 0.7295975089073181, -11.941624641418457, 9.024559020996094, 
474, 575082310, 0.6455487, -0.5082631, -0.4223739, -0.38280016, 8.095358848571777, -3.4640939235687256, 1.1232746839523315, -0.675625205039978, -12.917521476745605, 9.34899616241455, 
475, 575098977, 0.64535, -0.5094716, -0.42278454, -0.38107118, 8.103909492492676, -3.4556798934936523, 1.2545844316482544, 0.6641635298728943, -12.903690338134766, 9.697541236877441, 
476, 575115644, 0.6452128, -0.5107495, -0.42305207, -0.37929192, 7.9862961769104, -3.309516429901123, 1.3719873428344727, 0.3735807538032532, -12.461984634399414, 10.78075885772705, 
477, 575132311, 0.6449517, -0.5123261, -0.4231803, -0.3774625, 7.747127056121826, -3.23274564743042, 1.4327573776245117, -1.6542621850967407, -13.146476745605469, 12.024978637695312, 
478, 575148978, 0.6446838, -0.51401746, -0.42322925, -0.37556112, 7.607202053070068, -3.312108278274536, 1.4807767868041992, -2.1888511180877686, -13.372343063354492, 12.932501792907715, 
479, 575165645, 0.64443237, -0.51573104, -0.42327848, -0.37358227, 7.756185054779053, -3.409043073654175, 1.4481732845306396, -1.972577452659607, -13.676712036132812, 13.37917423248291, 
480, 575182312, 0.6442672, -0.517352, -0.4233923, -0.37149122, 8.258928298950195, -3.6402957439422607, 1.3758440017700195, -0.7544358372688293, -13.8828706741333, 13.593581199645996, 
481, 575198979, 0.6442004, -0.5187433, -0.42363942, -0.36937943, 9.088361740112305, -3.693206548690796, 1.3687734603881836, 0.9803336262702942, -13.670807838439941, 12.782102584838867, 
482, 575215646, 0.64412683, -0.51986766, -0.42399585, -0.367513, 10.206274032592773, -3.892904043197632, 1.3540475368499756, 1.7025353908538818, -12.627484321594238, 10.508984565734863, 
483, 575232313, 0.6441449, -0.52058566, -0.42446986, -0.3659145, 11.746403694152832, -4.268780708312988, 1.3798719644546509, 3.336895227432251, -10.895943641662598, 7.9488606452941895, 
484, 575248980, 0.64472085, -0.5204575, -0.42509198, -0.36435696, 12.963441848754883, -4.384190082550049, 1.4854111671447754, 9.321126937866211, -7.645908355712891, 6.174450874328613, 
485, 575265647, 0.6458639, -0.51960266, -0.42582607, -0.36269176, 13.128371238708496, -3.9365484714508057, 1.6924387216567993, 15.154006004333496, -5.046513557434082, 5.558492660522461, 
486, 575282314, 0.64730006, -0.5185579, -0.42657885, -0.36073685, 12.511672973632812, -3.566467761993408, 1.7680332660675049, 17.916948318481445, -4.828423500061035, 6.968860626220703, 
487, 575298981, 0.6489486, -0.51764035, -0.42730957, -0.35821888, 11.758581161499023, -3.126452684402466, 1.8812105655670166, 19.69404411315918, -6.432692050933838, 10.473979949951172, 
488, 575315648, 0.6505999, -0.5172579, -0.42772138, -0.35527247, 10.891740798950195, -2.6697680950164795, 1.872692346572876, 17.84537124633789, -7.876010894775391, 15.130305290222168, 
489, 575332315, 0.6517316, -0.51815295, -0.42760968, -0.3520135, 10.470342636108398, -2.7186179161071777, 1.805853247642517, 9.82452392578125, -11.266873359680176, 20.890399932861328, 
490, 575348982, 0.652439, -0.52013797, -0.42702025, -0.34847346, 11.118719100952148, -3.29960560798645, 1.574300765991211, 3.0724129676818848, -14.014530181884766, 26.047382354736328, 
491, 575365649, 0.65339017, -0.5220374, -0.42646956, -0.3445027, 12.237090110778809, -4.033934593200684, 1.435922622680664, 5.736259937286377, -14.83661937713623, 28.197296142578125, 
492, 575382316, 0.655165, -0.5228354, -0.42624867, -0.34016782, 12.950264930725098, -4.027055740356445, 1.22646963596344, 15.469344139099121, -12.596773147583008, 27.38408851623535, 
493, 575398983, 0.6575682, -0.52243054, -0.42633352, -0.33602098, 12.759342193603516, -3.6225101947784424, 1.4630216360092163, 23.302936553955078, -8.63910961151123, 23.40357780456543, 
494, 575415650, 0.6601187, -0.52133536, -0.4263864, -0.33263746, 11.675054550170898, -2.80655574798584, 1.6278375387191772, 24.634502410888672, -3.7264816761016846, 18.41067123413086, 
495, 575432317, 0.6616693, -0.5207343, -0.42617723, -0.33076072, 10.402241706848145, -1.9930912256240845, 1.5819485187530518, 13.828764915466309, -1.2204976081848145, 11.71013355255127, 
496, 575448984, 0.6618446, -0.52124435, -0.4255608, -0.33040017, 9.434343338012695, -1.8254731893539429, 1.4213862419128418, -1.5084856748580933, -0.5083736777305603, 6.436196804046631, 
497, 575465651, 0.66081774, -0.52272683, -0.4246328, -0.33130607, 8.877647399902344, -2.420319080352783, 1.1701815128326416, -14.664819717407227, -0.2800750732421875, 1.9327934980392456, 
498, 575482318, 0.6593445, -0.5245325, -0.4237072, -0.3325702, 8.577394485473633, -3.1378402709960938, 0.6945129632949829, -18.79151153564453, -1.038570761680603, 0.23949825763702393, 
499, 575498985, 0.65806764, -0.52597517, -0.42305574, -0.33364823, 8.428336143493652, -3.5170323848724365, 0.5972533822059631, -15.259931564331055, -1.5523231029510498, -0.5081051588058472, 
500, 575515652, 0.65700936, -0.5268353, -0.42287958, -0.3345985, 8.142574310302734, -3.416703701019287, 0.5209280848503113, -10.357295036315918, -2.1935365200042725, -2.83974552154541, 
501, 575532319, 0.65614045, -0.5269977, -0.4231391, -0.33571774, 7.9320068359375, -3.317547559738159, 0.6844392418861389, -6.02636194229126, -1.379333734512329, -6.77589225769043, 
502, 575548986, 0.6553308, -0.5265936, -0.42372438, -0.33719212, 7.804250717163086, -3.6518707275390625, 0.9109746217727661, -3.507929563522339, -0.091001957654953, -11.065753936767578, 
503, 575565653, 0.65471333, -0.52540135, -0.42460504, -0.33913785, 8.012580871582031, -3.488542318344116, 1.1272493600845337, 0.057647839188575745, 2.669966220855713, -16.113130569458008, 
504, 575582320, 0.65412945, -0.5236391, -0.42552555, -0.34182596, 8.186593055725098, -3.2099785804748535, 1.0015583038330078, 0.6434882283210754, 6.609350681304932, -21.188581466674805, 
505, 575598987, 0.65336406, -0.5216252, -0.42645374, -0.34519574, 8.473172187805176, -3.295740842819214, 0.9546254277229309, -0.856951892375946, 9.091986656188965, -25.4412841796875, 
506, 575615654, 0.652619, -0.51925164, -0.42740107, -0.34899092, 8.716346740722656, -3.18935489654541, 0.8861805200576782, -0.3451578915119171, 11.438060760498047, -28.421520233154297, 
507, 575632321, 0.6520709, -0.5165963, -0.42822123, -0.35292852, 8.939276695251465, -3.3086984157562256, 0.7592995166778564, 0.9157021045684814, 13.77104377746582, -28.95543670654297, 
508, 575648988, 0.6517029, -0.51372993, -0.42911974, -0.3566809, 9.209488868713379, -3.21712327003479, 0.9580026268959045, 3.227436065673828, 13.816788673400879, -28.584749221801758, 
509, 575665655, 0.6514835, -0.5109077, -0.42981347, -0.36028185, 9.468218803405762, -2.9288525581359863, 1.0587399005889893, 3.5174739360809326, 14.527730941772461, -26.681324005126953, 
510, 575682322, 0.650893, -0.5088036, -0.4300803, -0.3639895, 9.694625854492188, -2.608680009841919, 1.1685009002685547, -2.405052423477173, 13.95566463470459, -24.451068878173828, 
511, 575698989, 0.6496726, -0.5078755, -0.42982116, -0.36775285, 10.024953842163086, -2.5171773433685303, 1.2911113500595093, -11.324953079223633, 11.69257926940918, -20.944326400756836, 
512, 575715656, 0.64797395, -0.5081001, -0.42889696, -0.37149912, 10.257925033569336, -2.768597364425659, 1.170559287071228, -19.79029655456543, 10.28248405456543, -16.336645126342773, 
513, 575732323, 0.6460159, -0.5091536, -0.42764264, -0.37489712, 10.168008804321289, -2.9571263790130615, 0.9298341274261475, -24.18514060974121, 7.650027751922607, -11.839374542236328, 
514, 575748990, 0.6441825, -0.5105199, -0.42641717, -0.37758, 9.950271606445312, -3.2819666862487793, 0.8848804235458374, -23.003620147705078, 4.598320960998535, -7.522798538208008, 
515, 575765657, 0.64274573, -0.51181555, -0.4253372, -0.37948814, 9.635810852050781, -3.3631083965301514, 0.8785226345062256, -18.65100860595703, 2.5882365703582764, -3.7808737754821777, 
516, 575782324, 0.64155763, -0.51319784, -0.4242837, -0.38080877, 9.370757102966309, -3.303102970123291, 0.903353214263916, -16.309133529663086, 0.8859121203422546, -0.3699117600917816, 
517, 575798991, 0.64038044, -0.5148439, -0.42309865, -0.38188508, 9.18692684173584, -3.204148769378662, 0.8421381115913391, -17.098581314086914, -0.03797086700797081, 1.9619284868240356, 
518, 575815658, 0.6389601, -0.5167455, -0.42194197, -0.38297403, 9.004426956176758, -3.2026591300964355, 0.813772976398468, -19.04146385192871, -1.4964109659194946, 1.9090259075164795, 
519, 575832325, 0.63758963, -0.5184132, -0.4209621, -0.3840812, 9.0017671585083, -3.5516357421875, 0.7671065330505371, -17.419498443603516, -1.4441735744476318, 0.6504544615745544, 
520, 575848992, 0.6365213, -0.51955175, -0.4202149, -0.3851316, 9.018424987792969, -3.624612331390381, 0.7719948887825012, -13.242619514465332, -0.3921947181224823, -0.6715782284736633, 
521, 575865659, 0.6355962, -0.5202814, -0.4196908, -0.38624424, 9.028341293334961, -3.605595588684082, 0.864988386631012, -10.534634590148926, 0.3574189245700836, -2.550910234451294, 
522, 575882326, 0.6348505, -0.52054447, -0.41928774, -0.38755152, 9.049212455749512, -3.546100616455078, 0.9282528162002563, -8.115604400634766, 2.2926509380340576, -4.714748382568359, 
523, 575898993, 0.63419044, -0.52061874, -0.41885194, -0.38900104, 8.996068954467773, -3.5069940090179443, 0.8331400156021118, -7.453925609588623, 3.6862001419067383, -5.537313938140869, 
524, 575915660, 0.63363814, -0.5205781, -0.4184863, -0.39034668, 8.921014785766602, -3.5858120918273926, 0.8175421357154846, -6.11335563659668, 3.6418769359588623, -5.3872480392456055, 
525, 575932327, 0.63359857, -0.519953, -0.4183127, -0.39142856, 8.81163215637207, -3.656585693359375, 0.8741541504859924, -0.45007920265197754, 4.908027172088623, -5.236504077911377, 
526, 575948994, 0.634046, -0.5189241, -0.41828993, -0.39209324, 8.726627349853516, -3.3700497150421143, 0.7941866517066956, 4.640273094177246, 5.255297660827637, -3.819814443588257, 
527, 575965661, 0.6345732, -0.51807743, -0.4182241, -0.3924301, 8.710530281066895, -3.106255054473877, 0.8373758792877197, 5.001718521118164, 4.001850128173828, -1.4962811470031738, 
528, 575982328, 0.63497376, -0.51771766, -0.41781744, -0.39268988, 8.810590744018555, -2.8409206867218018, 0.928887128829956, 1.7183752059936523, 3.5437026023864746, 1.1088314056396484, 
529, 575998995, 0.63499606, -0.5180294, -0.417013, -0.39309773, 8.857193946838379, -2.6721067428588867, 0.9323139190673828, -4.05218505859375, 2.9081366062164307, 2.788525104522705, 
530, 576015662, 0.6347682, -0.5188146, -0.41585532, -0.39365616, 8.92068862915039, -2.8093953132629395, 0.9475396275520325, -8.395307540893555, 2.9915452003479004, 4.074732303619385, 
531, 576032329, 0.63452154, -0.51974, -0.41448176, -0.3942814, 8.939508438110352, -2.9271655082702637, 0.9321162104606628, -9.870640754699707, 3.748772382736206, 4.902035713195801, 
532, 576048996, 0.63417155, -0.52086174, -0.41292578, -0.39499602, 8.9139404296875, -2.854034900665283, 0.8790780305862427, -11.823905944824219, 4.0308074951171875, 5.447306156158447, 
533, 576065663, 0.63358516, -0.5223275, -0.41110897, -0.39589584, 8.826010704040527, -2.8947603702545166, 0.9073747992515564, -15.417707443237305, 4.234109878540039, 5.908529281616211, 
534, 576082330, 0.6329794, -0.5239692, -0.40904707, -0.39682993, 8.700867652893066, -3.0927035808563232, 0.8584178686141968, -16.977949142456055, 4.878681182861328, 7.090135097503662, 
535, 576098997, 0.6325282, -0.52552843, -0.40689737, -0.39769673, 8.439306259155273, -3.040070056915283, 0.8303132653236389, -16.135482788085938, 5.688017845153809, 7.883105754852295, 
536, 576115664, 0.6320566, -0.5269913, -0.4047656, -0.39868486, 8.240589141845703, -2.917630672454834, 0.8604010343551636, -16.06842803955078, 6.251574516296387, 6.965657711029053, 
537, 576132331, 0.63147926, -0.5285428, -0.40249285, -0.39984512, 8.100001335144043, -2.933682441711426, 0.7959578037261963, -17.725563049316406, 6.960267543792725, 6.681447982788086, 
538, 576148998, 0.6308034, -0.53020084, -0.40009037, -0.40112606, 8.048035621643066, -3.0711898803710938, 0.7300428748130798, -19.226497650146484, 7.394865989685059, 6.653210163116455, 
539, 576165665, 0.630189, -0.5317031, -0.39767334, -0.40250403, 8.03664779663086, -3.183779716491699, 0.6530559062957764, -18.643938064575195, 8.416559219360352, 6.021305561065674, 
540, 576182332, 0.62974554, -0.5328998, -0.3952969, -0.4039541, 7.960622787475586, -3.2181060314178467, 0.5709923505783081, -16.794719696044922, 9.827320098876953, 5.192438125610352, 
541, 576198999, 0.6294369, -0.53380203, -0.39295056, -0.4055301, 7.822596073150635, -3.098829507827759, 0.6104938983917236, -15.266891479492188, 11.340158462524414, 4.108390808105469, 
542, 576215666, 0.6289874, -0.53469265, -0.39056012, -0.4073592, 7.747907638549805, -3.056436538696289, 0.5776735544204712, -16.533893585205078, 12.114933967590332, 2.7486116886138916, 
543, 576232333, 0.6284793, -0.53551984, -0.38818237, -0.40932494, 7.791949272155762, -3.325890064239502, 0.5265013575553894, -16.80111312866211, 12.584263801574707, 1.7756351232528687, 
544, 576249000, 0.6282423, -0.5360411, -0.38584757, -0.4112095, 8.008896827697754, -3.844755172729492, 0.4204779863357544, -14.140471458435059, 13.689630508422852, 1.9087955951690674, 
545, 576265667, 0.6286619, -0.5359096, -0.38376105, -0.41268972, 8.25653076171875, -4.233127117156982, 0.35597941279411316, -7.1594343185424805, 14.734888076782227, 2.850343704223633, 
546, 576282334, 0.6298094, -0.53484756, -0.3821388, -0.41382173, 8.057437896728516, -3.819819211959839, 0.39368826150894165, 1.807034969329834, 16.007598876953125, 2.246459722518921, 
547, 576299001, 0.6308597, -0.53311354, -0.38150722, -0.41504028, 7.579092502593994, -3.4048469066619873, 0.6496427655220032, 6.945241451263428, 13.704208374023438, -3.823019027709961, 
548, 576315668, 0.63220066, -0.530208, -0.38197616, -0.41628838, 7.594908714294434, -3.7932887077331543, 0.9172698855400085, 16.1567325592041, 13.152267456054688, -10.233508110046387, 
549, 576332335, 0.63425213, -0.52612674, -0.38311318, -0.41730005, 8.126659393310547, -3.7974352836608887, 1.0955591201782227, 26.3785457611084, 14.626385688781738, -12.706021308898926, 
550, 576349002, 0.63654244, -0.52177405, -0.3840644, -0.418402, 8.626672744750977, -3.24393892288208, 1.1303125619888306, 27.664785385131836, 17.173852920532227, -12.462090492248535, 
551, 576365669, 0.63813275, -0.5183414, -0.38432413, -0.42000467, 8.969799041748047, -2.944990873336792, 1.0436177253723145, 17.794858932495117, 17.515413284301758, -11.75920581817627, 
552, 576382336, 0.63881147, -0.5159601, -0.38414174, -0.42206675, 9.63771915435791, -3.30741286277771, 0.9909719228744507, 7.4447455406188965, 15.655268669128418, -12.049936294555664, 
553, 576399003, 0.63931984, -0.51373684, -0.38407847, -0.4240616, 10.733538627624512, -3.908921957015991, 0.8936958909034729, 6.3604936599731445, 14.109038352966309, -12.312272071838379, 
554, 576415670, 0.64003986, -0.5112093, -0.38438177, -0.42575204, 11.847403526306152, -3.9836251735687256, 0.9256503582000732, 10.323309898376465, 12.880613327026367, -12.456819534301758, 
555, 576432337, 0.64072245, -0.5087309, -0.38502508, -0.42711052, 12.763197898864746, -3.639280080795288, 1.1704769134521484, 11.854104042053223, 9.989164352416992, -12.170440673828125, 
556, 576449004, 0.6409822, -0.50698483, -0.38557398, -0.42830023, 12.739028930664062, -2.9117591381073, 1.670408010482788, 7.6216607093811035, 6.454500675201416, -10.328404426574707, 
557, 576465671, 0.64023286, -0.506903, -0.38559896, -0.42949367, 11.415135383605957, -2.4381229877471924, 2.159963607788086, -5.081521987915039, 1.3167939186096191, -7.127093315124512, 
558, 576482338, 0.6387142, -0.5082963, -0.38516167, -0.43049926, 10.156853675842285, -2.751652240753174, 2.516587257385254, -15.125657081604004, -3.6984899044036865, -3.0346977710723877, 
559, 576499005, 0.63733965, -0.5099627, -0.38466007, -0.43101385, 9.177221298217773, -3.067112922668457, 2.5874242782592773, -14.713420867919922, -5.563442230224609, 0.5024896264076233, 
560, 576515672, 0.635889, -0.5121526, -0.384083, -0.43107477, 8.724352836608887, -3.204369306564331, 2.099473476409912, -16.300121307373047, -8.584606170654297, 3.9150657653808594, 
561, 576532339, 0.6339586, -0.51502734, -0.38385573, -0.43069503, 10.053558349609375, -4.055298328399658, 1.6185486316680908, -18.78434181213379, -14.967606544494629, 4.992918014526367, 
562, 576549006, 0.6324987, -0.5173067, -0.3845677, -0.42947295, 12.479230880737305, -4.9340128898620605, 1.3930960893630981, -9.516708374023438, -19.03760528564453, 5.153136730194092, 
563, 576565673, 0.63255787, -0.51796466, -0.3862888, -0.4270413, 13.682478904724121, -4.70006799697876, 1.6280384063720703, 9.121575355529785, -18.914255142211914, 7.015310764312744, 
564, 576582340, 0.6330608, -0.51822805, -0.38820016, -0.42423403, 13.080848693847656, -3.384544610977173, 2.45096755027771, 13.977925300598145, -18.73316764831543, 8.224928855895996, 
565, 576599007, 0.6324912, -0.51998675, -0.38918024, -0.42202795, 11.705571174621582, -2.4501612186431885, 2.991236448287964, -0.6749085783958435, -19.76418685913086, 9.801387786865234, 
566, 576615674, 0.6310137, -0.52320606, -0.38923973, -0.42020205, 10.124794960021973, -2.2355916500091553, 3.4159798622131348, -13.965963363647461, -21.07855224609375, 12.729705810546875, 
567, 576632341, 0.62904644, -0.5271845, -0.3885283, -0.41883537, 8.726526260375977, -2.4451615810394287, 3.520413875579834, -22.484718322753906, -19.604841232299805, 14.142085075378418, 
568, 576649008, 0.62705344, -0.53172064, -0.3872287, -0.41729036, 7.920681953430176, -3.2636923789978027, 3.1845345497131348, -26.215635299682617, -19.406042098999023, 18.467710494995117, 
569, 576665675, 0.6261552, -0.53567654, -0.38601643, -0.41469488, 7.846008777618408, -4.25890588760376, 2.7362780570983887, -16.671340942382812, -19.063640594482422, 24.26856803894043, 
570, 576682342, 0.6271657, -0.53787225, -0.38558003, -0.41071242, 7.996612548828125, -4.640474796295166, 2.3477542400360107, 3.824509382247925, -17.444339752197266, 28.13894271850586, 
571, 576699009, 0.6297127, -0.5384747, -0.38582927, -0.40576223, 8.305959701538086, -4.219608306884766, 2.3030219078063965, 20.8762264251709, -15.419044494628906, 29.875192642211914, 
572, 576715676, 0.63274586, -0.5384759, -0.38611993, -0.4007341, 8.64604663848877, -3.751461982727051, 2.3130319118499756, 25.59575080871582, -12.931878089904785, 29.809831619262695, 
573, 576732343, 0.6355638, -0.53848803, -0.38618362, -0.39617124, 8.895065307617188, -3.5843968391418457, 2.3636577129364014, 22.886642456054688, -10.832254409790039, 28.060562133789062, 
574, 576749010, 0.638027, -0.53836143, -0.38613933, -0.39240953, 9.067900657653809, -3.5959415435791016, 2.458717107772827, 19.753345489501953, -7.969009876251221, 23.6251163482666, 
575, 576765677, 0.64040154, -0.53764033, -0.3861485, -0.3895101, 9.178038597106934, -3.637937307357788, 2.404999017715454, 19.882110595703125, -3.6534950733184814, 17.830181121826172, 
576, 576782344, 0.6429456, -0.5361205, -0.38630748, -0.38724992, 9.2000093460083, -3.605764389038086, 2.3030197620391846, 22.724044799804688, 0.6297986507415771, 12.797628402709961, 
577, 576799011, 0.6456248, -0.5338596, -0.38669956, -0.3855205, 9.148100852966309, -3.3204703330993652, 2.225900888442993, 25.704374313354492, 3.8780479431152344, 7.987154960632324, 
578, 576815678, 0.64801925, -0.5314521, -0.38709277, -0.38443327, 9.04163932800293, -3.0029239654541016, 2.0668845176696777, 23.600366592407227, 5.856247425079346, 3.9945333003997803, 
579, 576832345, 0.65001196, -0.5291903, -0.38739213, -0.38388744, 8.926706314086914, -2.794959545135498, 1.9717233180999756, 19.790830612182617, 6.792466163635254, 1.2596920728683472, 
580, 576849012, 0.651462, -0.5273547, -0.38745016, -0.38389686, 8.629749298095703, -2.628504753112793, 1.8524513244628906, 13.792444229125977, 7.318086624145508, -0.6319939494132996, 
581, 576865679, 0.65209174, -0.52632725, -0.38711986, -0.3845701, 8.435373306274414, -2.5853748321533203, 1.766406774520874, 4.402395248413086, 7.142582893371582, -2.1987357139587402, 
582, 576882346, 0.65191776, -0.5260694, -0.3863886, -0.3859512, 8.514516830444336, -2.788672685623169, 1.6386994123458862, -4.902515411376953, 7.323793411254883, -3.989985704421997, 
583, 576899013, 0.6514661, -0.5258899, -0.385728, -0.38761574, 8.634834289550781, -3.179805278778076, 1.4770387411117554, -6.826581954956055, 7.086377143859863, -6.038145542144775, 
584, 576915680, 0.6514545, -0.52497685, -0.38539538, -0.38920024, 8.67608642578125, -3.381154775619507, 1.3855006694793701, -0.8633659482002258, 8.450637817382812, -7.635301113128662, 
585, 576932347, 0.6517204, -0.5234982, -0.38538158, -0.3907574, 8.701415061950684, -3.0443267822265625, 1.3152817487716675, 3.5974278450012207, 9.173726081848145, -9.417847633361816, 
586, 576949014, 0.6515951, -0.5223173, -0.3853488, -0.39257476, 8.777144432067871, -2.6649229526519775, 1.3478450775146484, 0.11541730165481567, 8.361470222473145, -10.773195266723633, 
587, 576965681, 0.65090173, -0.5217493, -0.3851246, -0.3946944, 8.758901596069336, -2.8801918029785156, 1.3371024131774902, -5.985001564025879, 7.147133827209473, -11.340928077697754, 
588, 576982348, 0.64996624, -0.5213692, -0.3849157, -0.3969358, 8.759737968444824, -3.0965213775634766, 1.268328309059143, -7.977339267730713, 6.36780309677124, -12.096209526062012, 
589, 576999015, 0.6488952, -0.5208387, -0.38503695, -0.39926046, 8.800702095031738, -3.1263508796691895, 1.2257503271102905, -7.1072235107421875, 5.243597030639648, -14.416365623474121, 
590, 577015682, 0.6477857, -0.52001655, -0.3855056, -0.40167385, 9.054841995239258, -3.2781991958618164, 1.2921175956726074, -5.2239203453063965, 4.715117454528809, -16.931459426879883, 
591, 577032349, 0.64671224, -0.51896155, -0.38622397, -0.40407106, 9.249370574951172, -3.3144631385803223, 1.2790356874465942, -3.3225605487823486, 4.286194324493408, -18.268625259399414, 
592, 577049016, 0.64559317, -0.51787716, -0.38708144, -0.40642446, 9.231988906860352, -3.303946018218994, 1.2868101596832275, -2.8493776321411133, 3.4764223098754883, -18.773479461669922, 
593, 577065683, 0.6443513, -0.51687217, -0.38807625, -0.4087193, 9.096227645874023, -3.232908248901367, 1.3439769744873047, -3.0983080863952637, 2.1123909950256348, -19.13433837890625, 
594, 577082350, 0.6429644, -0.5159503, -0.3892576, -0.41093895, 8.920809745788574, -3.1585378646850586, 1.4339549541473389, -3.255096912384033, 0.40149885416030884, -19.647977828979492, 
595, 577099017, 0.6414387, -0.5150802, -0.39058506, -0.41314912, 8.77512264251709, -3.116631031036377, 1.5207338333129883, -3.53847599029541, -0.7932904362678528, -20.38003921508789, 
596, 577115684, 0.6398455, -0.51432383, -0.39194316, -0.41526997, 8.749289512634277, -3.280280113220215, 1.5389150381088257, -3.9478697776794434, -1.7484662532806396, -19.979982376098633, 
597, 577132351, 0.6383251, -0.513578, -0.39330932, -0.417237, 8.750356674194336, -3.3685319423675537, 1.4645603895187378, -3.3014297485351562, -2.161099910736084, -19.098812103271484, 
598, 577149018, 0.636896, -0.5127727, -0.39476925, -0.41902867, 8.738783836364746, -3.433457374572754, 1.4882733821868896, -1.971219778060913, -2.7733209133148193, -18.5635929107666, 
599, 577165685, 0.6356332, -0.5118073, -0.39642176, -0.42056352, 8.706591606140137, -3.658236503601074, 1.462296724319458, 0.5614117980003357, -3.6071560382843018, -18.079269409179688, 
600, 577182352, 0.63470674, -0.5104501, -0.398403, -0.42173845, 8.748059272766113, -3.815352439880371, 1.5648483037948608, 5.398913860321045, -4.262060642242432, -17.76354217529297, 
601, 577199019, 0.6341681, -0.50857806, -0.40065405, -0.42267677, 8.753134727478027, -3.7041175365448, 1.6596754789352417, 10.440756797790527, -3.714935779571533, -17.974647521972656, 
602, 577215686, 0.63369495, -0.5065997, -0.402971, -0.4235588, 8.738018989562988, -3.54695987701416, 1.7171971797943115, 11.478741645812988, -3.7092630863189697, -18.0698299407959, 
603, 577232353, 0.6331687, -0.50467014, -0.4052056, -0.42451638, 8.690522193908691, -3.5805745124816895, 1.7321324348449707, 10.632852554321289, -3.3778204917907715, -18.139310836791992, 
604, 577249020, 0.6327368, -0.50260794, -0.407587, -0.42532605, 8.595110893249512, -3.8042399883270264, 1.5855190753936768, 12.38115406036377, -3.8813929557800293, -18.1071834564209, 
605, 577265687, 0.6326915, -0.5000845, -0.410307, -0.42575255, 8.670753479003906, -3.983858346939087, 1.5442348718643188, 17.788232803344727, -4.246274948120117, -17.784090042114258, 
606, 577282354, 0.6330752, -0.4971287, -0.41323975, -0.4258074, 8.887476921081543, -3.767643451690674, 1.5620222091674805, 22.8192195892334, -3.974628448486328, -16.87547492980957, 
607, 577299021, 0.63359255, -0.49420285, -0.4160899, -0.42566827, 9.10824966430664, -3.502361536026001, 1.5611735582351685, 23.457721710205078, -3.9849376678466797, -15.282886505126953, 
608, 577315688, 0.63408494, -0.4916695, -0.41866234, -0.42534605, 9.265207290649414, -3.377624750137329, 1.5999138355255127, 21.376541137695312, -4.616903781890869, -12.500177383422852, 
609, 577332355, 0.6346331, -0.48960435, -0.42081714, -0.42478392, 9.161386489868164, -3.2156758308410645, 1.6402149200439453, 18.99475860595703, -4.8143110275268555, -8.538825035095215, 
610, 577349022, 0.6350971, -0.48821855, -0.42246452, -0.42404965, 9.013551712036133, -2.928264856338501, 1.686937928199768, 14.763968467712402, -5.406608581542969, -4.366283893585205, 
611, 577365689, 0.63527, -0.48774984, -0.42347643, -0.42332003, 8.810192108154297, -2.575345516204834, 1.767988920211792, 7.913462162017822, -6.134948253631592, -0.4433303475379944, 
612, 577382356, 0.63503766, -0.48848462, -0.42364904, -0.42264816, 8.68445873260498, -2.4979496002197266, 1.6882410049438477, -1.309744119644165, -6.960482597351074, 4.442708492279053, 
613, 577399023, 0.6345169, -0.49041143, -0.42301038, -0.42183813, 8.588233947753906, -2.6798577308654785, 1.5678387880325317, -9.436681747436523, -8.186691284179688, 10.403223037719727, 
614, 577415690, 0.6338795, -0.49326807, -0.42169908, -0.4207772, 8.376920700073242, -2.801074743270874, 1.4316810369491577, -15.113637924194336, -9.133904457092285, 16.126216888427734, 
615, 577432357, 0.6332049, -0.4967679, -0.419946, -0.41942668, 8.202488899230957, -2.884760618209839, 1.4046634435653687, -18.475852966308594, -10.160638809204102, 20.640918731689453, 
616, 577449024, 0.63259816, -0.50056684, -0.41796604, -0.41780025, 8.064196586608887, -3.039057970046997, 1.3714827299118042, -19.40497589111328, -10.78098201751709, 23.67060089111328, 
617, 577465691, 0.6320722, -0.50442326, -0.41595328, -0.41596252, 7.969655513763428, -3.0737719535827637, 1.3994218111038208, -18.860103607177734, -11.299360275268555, 25.09309959411621, 
618, 577482358, 0.6314617, -0.50826234, -0.41396204, -0.41419938, 8.012396812438965, -3.091074228286743, 1.4416484832763672, -19.227436065673828, -11.329410552978516, 24.39619255065918, 
619, 577499025, 0.63074553, -0.5119696, -0.41207325, -0.41260508, 8.129167556762695, -3.216461420059204, 1.3467029333114624, -19.216522216796875, -11.108062744140625, 22.622556686401367, 
620, 577515692, 0.6300664, -0.5152806, -0.4104234, -0.4111626, 8.204255104064941, -3.4534108638763428, 1.279596209526062, -17.122663497924805, -10.381766319274902, 20.098989486694336, 
621, 577532359, 0.62963283, -0.5179671, -0.4090562, -0.40981185, 8.202710151672363, -3.6237995624542236, 1.2259624004364014, -13.005386352539062, -8.823976516723633, 17.62462615966797, 
622, 577549026, 0.62947977, -0.51996416, -0.40804523, -0.4085239, 8.135026931762695, -3.6979329586029053, 1.1769605875015259, -8.193614959716797, -7.411478519439697, 14.927233695983887, 
623, 577565693, 0.62963545, -0.5212179, -0.4074036, -0.40732485, 8.043135643005371, -3.695195436477661, 1.2002044916152954, -3.093439817428589, -5.734738349914551, 11.994633674621582, 
624, 577582360, 0.629987, -0.5218955, -0.4070333, -0.4062825, 7.900261402130127, -3.54870867729187, 1.2822686433792114, 0.42948028445243835, -4.188766002655029, 9.27087116241455, 
625, 577599027, 0.63039225, -0.5222246, -0.40678075, -0.40548328, 7.861602306365967, -3.4296810626983643, 1.2629421949386597, 1.781254768371582, -2.703728199005127, 6.963191509246826, 
626, 577615694, 0.63082474, -0.5222371, -0.4066958, -0.40487918, 8.051724433898926, -3.3743209838867188, 1.200316071510315, 3.166774034500122, -1.7704013586044312, 4.699912071228027, 
627, 577632361, 0.63115996, -0.5219567, -0.40677875, -0.4046351, 8.485706329345703, -3.3684446811676025, 1.231058955192566, 3.547020196914673, -0.6628567576408386, 1.4405032396316528, 
628, 577649028, 0.6313883, -0.5214816, -0.4069552, -0.40471408, 9.165874481201172, -3.484851121902466, 1.2841118574142456, 3.371201515197754, 0.3311401903629303, -1.1413019895553589, 
629, 577665695, 0.6314068, -0.5209811, -0.40722737, -0.40505567, 10.02866268157959, -3.700329303741455, 1.2255675792694092, 2.261742353439331, 0.3402007222175598, -3.2815186977386475, 
630, 577682362, 0.6313322, -0.52026504, -0.40780485, -0.4055111, 11.208749771118164, -3.9197115898132324, 1.3354220390319824, 3.396186590194702, -0.2348044365644455, -5.733352184295654, 
631, 577699029, 0.63159585, -0.51898396, -0.40872088, -0.40581983, 12.336201667785645, -4.076900005340576, 1.5395054817199707, 8.414280891418457, 0.29603812098503113, -6.9479217529296875, 
632, 577715696, 0.6325073, -0.5170886, -0.40985176, -0.40567896, 12.786516189575195, -3.790619134902954, 1.9445619583129883, 15.257403373718262, 1.2957669496536255, -5.678955554962158, 
633, 577732363, 0.63378274, -0.5151314, -0.41085774, -0.4051606, 12.555253028869629, -3.1361775398254395, 2.3429548740386963, 17.540756225585938, 1.6903057098388672, -2.7447750568389893, 
634, 577749030, 0.6350719, -0.5137528, -0.41139194, -0.40434948, 11.582305908203125, -2.587509870529175, 2.5121991634368896, 14.572502136230469, 1.1350980997085571, 1.8847311735153198, 
635, 577765697, 0.63621837, -0.5132634, -0.411386, -0.40317324, 10.419236183166504, -2.3106069564819336, 2.5125739574432373, 9.714268684387207, -0.6786984801292419, 7.5182719230651855, 
636, 577782364, 0.6372173, -0.513827, -0.41087025, -0.40139955, 9.550028800964355, -2.5047404766082764, 2.265078067779541, 4.8569841384887695, -3.900151252746582, 14.512377738952637, 
637, 577799031, 0.638328, -0.5152239, -0.4100424, -0.39868173, 9.417652130126953, -2.90952205657959, 1.9147835969924927, 3.406489133834839, -7.8595662117004395, 22.42123794555664, 
638, 577815698, 0.6399551, -0.5168144, -0.4091249, -0.3949394, 9.806589126586914, -3.0854995250701904, 1.6936402320861816, 7.0251593589782715, -10.172823905944824, 29.20053482055664, 
639, 577832365, 0.6419554, -0.5183977, -0.40821958, -0.39053038, 10.226973533630371, -3.128950595855713, 1.4900416135787964, 10.286152839660645, -11.526229858398438, 33.08754348754883, 
640, 577849032, 0.6441284, -0.5198078, -0.40745595, -0.3858474, 10.822330474853516, -3.2164814472198486, 1.489577054977417, 12.815956115722656, -12.17839527130127, 33.77558898925781, 
641, 577865699, 0.6464771, -0.52076685, -0.4067321, -0.3813639, 11.406437873840332, -3.152299404144287, 1.5260231494903564, 14.991689682006836, -9.951835632324219, 31.961181640625, 
642, 577882366, 0.64859617, -0.52143747, -0.40584671, -0.37777603, 11.462769508361816, -2.7123069763183594, 1.5999916791915894, 12.521378517150879, -5.911314964294434, 27.161283493041992, 
643, 577899033, 0.64987695, -0.5223764, -0.404602, -0.37560624, 10.850299835205078, -2.3643481731414795, 1.6211425065994263, 3.4258902072906494, -2.2586982250213623, 20.7141056060791, 
644, 577915700, 0.65004164, -0.52397835, -0.4029845, -0.37482786, 9.936927795410156, -2.509153366088867, 1.3227758407592773, -8.382270812988281, -0.41112905740737915, 14.813426971435547, 
