sep=,
DeviceTag:,R Foot - 1,,,,,,,,,,,,,,,,,
FirmwareVersion:,3.0.0,,,,,,,,,,,,,,,,,
AppVersion:,2023.6.1,,,,,,,,,,,,,,,,,
StartTime:,2024-05-25 15:19:41.000 +0200,,,,,,,,,,,,,,,,,
 2024,,,,,,,,,,,,,,,,,,,

PacketCounter,SampleTimeFine,Quat_W,Quat_X,Quat_Y,Quat_Z,Acc_X,Acc_Y,Acc_Z,Gyr_X,Gyr_Y,Gyr_Z,
0, 1140638942, 0.936169, -0.24978034, -0.20982297, -0.13104032, 0.0, 0.0, 0.0, 0.0, 0.0, 0.0, 
1, 1140655609, 0.9363796, -0.24910228, -0.21034946, -0.12997907, 4.575709342956543, -4.188663482666016, 7.924003601074219, 5.410715579986572, -2.0432915687561035, 2.140024423599243, 
2, 1140672276, 0.9365278, -0.2488665, -0.21023184, -0.1295522, 4.595640659332275, -4.11502742767334, 7.92091178894043, 5.30471658706665, -2.243314027786255, 2.0684494972229004, 
3, 1140688943, 0.9367495, -0.24819832, -0.21036439, -0.12901558, 4.590664863586426, -4.143443584442139, 7.882453441619873, 5.3417134284973145, -2.1435394287109375, 2.0181076526641846, 
4, 1140705610, 0.93684745, -0.24776037, -0.21054001, -0.12886009, 4.614782810211182, -4.113219261169434, 7.920502185821533, 5.3656744956970215, -2.3361854553222656, 1.8098125457763672, 
5, 1140722277, 0.9368918, -0.24734417, -0.21067517, -0.12911455, 4.641484260559082, -4.106647968292236, 7.900803565979004, 5.299901008605957, -2.2979073524475098, 2.0859813690185547, 
6, 1140738944, 0.93703294, -0.24672611, -0.21112315, -0.1285411, 4.582789421081543, -4.119739532470703, 7.9183526039123535, 5.327857971191406, -2.1886050701141357, 2.002561092376709, 
7, 1140755611, 0.9371039, -0.24632186, -0.21140665, -0.1283319, 4.6337432861328125, -4.050649166107178, 7.929317951202393, 4.694736957550049, -2.5798518657684326, 2.2344071865081787, 
8, 1140772278, 0.9371496, -0.2459598, -0.2116215, -0.12833859, 4.615830421447754, -4.120883464813232, 7.8903584480285645, 4.31930685043335, -2.4561939239501953, 2.662510633468628, 
9, 1140788945, 0.9372423, -0.24551812, -0.21192992, -0.12799764, 4.592998027801514, -4.199995040893555, 7.883026599884033, 4.683391571044922, -2.3914451599121094, 2.382192373275757, 
10, 1140805612, 0.93735075, -0.24509007, -0.21222012, -0.12754278, 4.61967134475708, -4.1525983810424805, 7.895068645477295, 5.071732044219971, -2.250204086303711, 2.1821446418762207, 
11, 1140822279, 0.9374366, -0.24467812, -0.21245062, -0.12731838, 4.602919101715088, -4.164924144744873, 7.9099907875061035, 5.4781670570373535, -2.218841075897217, 2.112260341644287, 
12, 1140838946, 0.9375396, -0.24420594, -0.21272436, -0.12700965, 4.5999979972839355, -4.163248538970947, 7.886544704437256, 5.7615966796875, -2.306295871734619, 1.7545533180236816, 
13, 1140855613, 0.937709, -0.24362022, -0.21311493, -0.12622671, 4.615362167358398, -4.122158527374268, 7.894260406494141, 5.950259685516357, -2.350797653198242, 1.814858317375183, 
14, 1140872280, 0.9378488, -0.24308327, -0.21338779, -0.12576136, 4.626482009887695, -4.130561828613281, 7.915383338928223, 6.039699077606201, -2.0863211154937744, 1.9007889032363892, 
15, 1140888947, 0.9379607, -0.2425744, -0.21361962, -0.1255151, 4.603482246398926, -4.098300933837891, 7.9003214836120605, 6.103724479675293, -2.129939556121826, 1.782989740371704, 
16, 1140905614, 0.93805885, -0.2420899, -0.21380419, -0.12540251, 4.622395038604736, -4.100866317749023, 7.896711349487305, 6.093870162963867, -2.0885493755340576, 1.8751507997512817, 
17, 1140922281, 0.93820715, -0.24147968, -0.21406092, -0.125032, 4.622336387634277, -4.154767990112305, 7.9006571769714355, 6.539134979248047, -2.050386428833008, 1.8507548570632935, 
18, 1140938948, 0.93843275, -0.24068417, -0.21443364, -0.12423109, 4.604448318481445, -4.149796009063721, 7.896613597869873, 7.060225963592529, -1.8671919107437134, 1.4809331893920898, 
19, 1140955615, 0.93845755, -0.24019977, -0.21436104, -0.12510437, 4.6157331466674805, -4.1372904777526855, 7.887478828430176, 7.570749759674072, -1.6776320934295654, 1.3812353610992432, 
20, 1140972282, 0.938666, -0.23937005, -0.21460876, -0.12470542, 4.623440265655518, -4.1307291984558105, 7.911430358886719, 7.997631549835205, -1.5880069732666016, 1.3638125658035278, 
21, 1140988949, 0.9388899, -0.23846568, -0.21480983, -0.12440496, 4.602748870849609, -4.151540279388428, 7.9220709800720215, 8.634925842285156, -1.3018617630004883, 1.2354416847229004, 
22, 1141005616, 0.93912643, -0.23751298, -0.21503393, -0.124054484, 4.632306098937988, -4.082509994506836, 7.914743900299072, 8.972322463989258, -1.395911693572998, 1.2390787601470947, 
23, 1141022283, 0.9393696, -0.2365676, -0.21524954, -0.12364474, 4.630954742431641, -4.0378336906433105, 7.9534993171691895, 8.86072826385498, -1.3104742765426636, 1.4513438940048218, 
24, 1141038950, 0.93957436, -0.2357009, -0.21537678, -0.12352399, 4.602414131164551, -4.076496601104736, 7.926712512969971, 8.76913833618164, -1.2771199941635132, 1.6366519927978516, 
25, 1141055617, 0.93979895, -0.23479491, -0.21555205, -0.12323477, 4.599629878997803, -4.044816970825195, 7.9695844650268555, 8.70866584777832, -1.2738800048828125, 1.5149531364440918, 
26, 1141072284, 0.94003284, -0.23388615, -0.2157628, -0.122809336, 4.60800838470459, -4.028466701507568, 7.967804431915283, 8.45439624786377, -1.318939208984375, 1.5091007947921753, 
27, 1141088951, 0.9402477, -0.23302706, -0.21596701, -0.122438245, 4.598708629608154, -4.0218353271484375, 7.947047233581543, 8.137436866760254, -1.3965134620666504, 1.4940401315689087, 
28, 1141105618, 0.94041854, -0.23225465, -0.2160848, -0.12238533, 4.604730606079102, -4.042895317077637, 7.937373161315918, 7.987949848175049, -1.3338264226913452, 1.4674030542373657, 
29, 1141122285, 0.94057363, -0.2315286, -0.21617809, -0.12240524, 4.5849127769470215, -4.005378246307373, 7.974252700805664, 7.739076614379883, -1.2795978784561157, 1.431128978729248, 
30, 1141138952, 0.94071656, -0.23089305, -0.21630579, -0.12228103, 4.6002583503723145, -3.9479880332946777, 8.003859519958496, 6.881716728210449, -1.4460033178329468, 1.6106867790222168, 
31, 1141155619, 0.94078594, -0.23045085, -0.21633035, -0.122537635, 4.60518217086792, -3.9717631340026855, 7.98037576675415, 6.186434745788574, -1.5744383335113525, 1.9118536710739136, 
32, 1141172286, 0.9408717, -0.23003441, -0.21640477, -0.12253017, 4.5663580894470215, -3.98956036567688, 7.970138072967529, 5.65149450302124, -1.6450591087341309, 2.205112934112549, 
33, 1141188953, 0.9409682, -0.22962977, -0.21654636, -0.12229731, 4.600004196166992, -3.9884729385375977, 7.991532802581787, 5.167983531951904, -1.783156394958496, 2.1861658096313477, 
34, 1141205620, 0.9410383, -0.22928536, -0.2166724, -0.122180715, 4.579413890838623, -3.9950430393218994, 7.992689609527588, 4.974748134613037, -1.9393680095672607, 2.269458293914795, 
35, 1141222287, 0.9410575, -0.22903855, -0.21676055, -0.12233913, 4.584701061248779, -4.0082807540893555, 7.991438865661621, 4.703733921051025, -2.145838499069214, 2.1732890605926514, 
36, 1141238954, 0.94113725, -0.22873043, -0.21695775, -0.12195196, 4.602158546447754, -4.00760555267334, 7.9784393310546875, 4.320196628570557, -2.1256492137908936, 2.4110772609710693, 
37, 1141255621, 0.9411646, -0.22853126, -0.21709265, -0.121875465, 4.566989421844482, -4.016608715057373, 7.958426475524902, 4.085559844970703, -2.2668845653533936, 2.4545934200286865, 
38, 1141272288, 0.9411725, -0.2284084, -0.21727759, -0.1217154, 4.604568004608154, -3.9710028171539307, 8.005507469177246, 3.462043285369873, -2.5977487564086914, 2.5337491035461426, 
39, 1141288955, 0.9411353, -0.22842664, -0.21739353, -0.12176165, 4.605553150177002, -3.9549543857574463, 7.984614849090576, 2.917440176010132, -2.673793077468872, 2.896117687225342, 
40, 1141305622, 0.9410492, -0.22860189, -0.21744967, -0.1219966, 4.5951924324035645, -3.994039535522461, 7.972525596618652, 2.1989400386810303, -2.7779855728149414, 3.2076196670532227, 
41, 1141322289, 0.9410042, -0.22881572, -0.21765828, -0.12157075, 4.614990711212158, -3.9707629680633545, 8.004976272583008, 1.0535144805908203, -3.0939950942993164, 3.764490842819214, 
42, 1141338956, 0.9409244, -0.22911292, -0.21779394, -0.12138598, 4.588645935058594, -4.10577392578125, 7.931695461273193, 0.954771101474762, -3.121868133544922, 4.021904945373535, 
43, 1141355623, 0.94090605, -0.22925973, -0.2180405, -0.12080703, 4.594658374786377, -4.113247871398926, 7.926383972167969, 1.2831066846847534, -3.06776762008667, 3.7179524898529053, 
44, 1141372290, 0.94094145, -0.22930092, -0.21835513, -0.119881295, 4.60703706741333, -4.082708358764648, 7.9176788330078125, 1.5027741193771362, -2.9519472122192383, 3.7599573135375977, 
45, 1141388957, 0.940965, -0.22933409, -0.21862027, -0.11914779, 4.571766376495361, -4.157608985900879, 7.897621154785156, 1.8233424425125122, -2.8284683227539062, 3.609879732131958, 
46, 1141405624, 0.9409321, -0.22942911, -0.21877544, -0.1189383, 4.561699867248535, -4.132676601409912, 7.917730808258057, 2.1110434532165527, -2.7524304389953613, 3.216564893722534, 
47, 1141422291, 0.94089407, -0.22954854, -0.21890114, -0.118778355, 4.61130428314209, -4.096900939941406, 7.928102970123291, 2.0627188682556152, -2.6842048168182373, 3.309903860092163, 
48, 1141438958, 0.9408717, -0.22962388, -0.21908547, -0.11846993, 4.580245018005371, -4.151019096374512, 7.909194469451904, 2.062936782836914, -2.757995128631592, 3.119985818862915, 
49, 1141455625, 0.9407927, -0.22976565, -0.21914883, -0.118704766, 4.5812177658081055, -4.154294490814209, 7.885683536529541, 2.513502597808838, -2.783076286315918, 3.0418667793273926, 
50, 1141472292, 0.9407849, -0.22976676, -0.21932405, -0.118439876, 4.592607498168945, -4.168207168579102, 7.921039581298828, 2.697113275527954, -2.692202091217041, 3.032165765762329, 
51, 1141488959, 0.94075716, -0.2297628, -0.21947159, -0.11839455, 4.587255954742432, -4.185998916625977, 7.890615940093994, 3.0543720722198486, -2.7618045806884766, 2.81584095954895, 
52, 1141505626, 0.9407265, -0.22970127, -0.21958393, -0.11855061, 4.593829154968262, -4.206474304199219, 7.860777378082275, 3.708136558532715, -2.6628758907318115, 2.4966557025909424, 
53, 1141522293, 0.94074965, -0.22946154, -0.21973576, -0.1185484, 4.592458724975586, -4.220839023590088, 7.864325523376465, 4.553477764129639, -2.37972092628479, 2.058966636657715, 
54, 1141538960, 0.94082636, -0.22906621, -0.21995139, -0.118304834, 4.578603744506836, -4.20949125289917, 7.8840813636779785, 5.155862331390381, -2.2125723361968994, 1.7397555112838745, 
55, 1141555627, 0.9409052, -0.22864021, -0.22017181, -0.11809171, 4.602138042449951, -4.1433234214782715, 7.887616157531738, 5.4320573806762695, -2.2484686374664307, 1.6519168615341187, 
56, 1141572294, 0.94092095, -0.22836152, -0.22030367, -0.118258886, 4.595145225524902, -4.1318793296813965, 7.937094688415527, 5.050312519073486, -2.3487420082092285, 1.7345689535140991, 
57, 1141588961, 0.94097525, -0.22802685, -0.22053717, -0.118038654, 4.613625526428223, -4.132439136505127, 7.908850193023682, 4.934664726257324, -2.537015199661255, 1.9632326364517212, 
58, 1141605628, 0.94100434, -0.22775668, -0.22072594, -0.11797446, 4.582528591156006, -4.176847457885742, 7.90257453918457, 4.769033432006836, -2.540747880935669, 2.0511419773101807, 
59, 1141622295, 0.9410554, -0.22742125, -0.22100982, -0.11768252, 4.591150283813477, -4.179959297180176, 7.902894020080566, 4.826354503631592, -2.75944185256958, 1.8678572177886963, 
60, 1141638962, 0.9410999, -0.22711866, -0.2212994, -0.11736692, 4.593390941619873, -4.144930839538574, 7.874931335449219, 4.602064609527588, -2.828237533569336, 1.9567207098007202, 
61, 1141655629, 0.9411286, -0.2268277, -0.22158402, -0.11716175, 4.597837448120117, -4.1764912605285645, 7.875728130340576, 4.709087371826172, -2.9530608654022217, 1.8791782855987549, 
62, 1141672296, 0.9411569, -0.2265224, -0.22184435, -0.11703156, 4.629415035247803, -4.156805515289307, 7.878282070159912, 4.933339595794678, -2.8687827587127686, 1.832192063331604, 
63, 1141688963, 0.94120586, -0.22617385, -0.22207288, -0.116878934, 4.605313301086426, -4.175848484039307, 7.8744797706604, 5.191271781921387, -2.568794012069702, 1.8496211767196655, 
64, 1141705630, 0.9412654, -0.22579601, -0.22230358, -0.11669116, 4.618137359619141, -4.164734840393066, 7.876948356628418, 5.324175834655762, -2.485027313232422, 1.7903406620025635, 
65, 1141722297, 0.94132465, -0.22540951, -0.22253112, -0.116527595, 4.630021095275879, -4.161585807800293, 7.890475273132324, 5.43215274810791, -2.480116128921509, 1.7550525665283203, 
66, 1141738964, 0.9414015, -0.22499175, -0.22276713, -0.116262674, 4.599020004272461, -4.18681001663208, 7.8759379386901855, 5.53803014755249, -2.4044504165649414, 1.854974389076233, 
67, 1141755631, 0.94148594, -0.22451225, -0.22301133, -0.11603724, 4.62251091003418, -4.1809844970703125, 7.883002758026123, 5.968067169189453, -2.3813600540161133, 1.5882052183151245, 
68, 1141772298, 0.94159865, -0.22397003, -0.22325554, -0.11569937, 4.621357440948486, -4.149252414703369, 7.891017913818359, 6.201860427856445, -2.143738269805908, 1.5527701377868652, 
69, 1141788965, 0.94170713, -0.2234296, -0.2234368, -0.11551308, 4.6178765296936035, -4.148875713348389, 7.848696231842041, 6.491513729095459, -1.964827299118042, 1.643669605255127, 
70, 1141805632, 0.9418254, -0.22283256, -0.22362821, -0.115330614, 4.601620197296143, -4.169138431549072, 7.878880023956299, 6.874743461608887, -1.950272798538208, 1.4945780038833618, 
71, 1141822299, 0.94196177, -0.22220801, -0.2238148, -0.11505969, 4.635813236236572, -4.145357608795166, 7.886715888977051, 6.9637603759765625, -1.7986072301864624, 1.5903565883636475, 
72, 1141838966, 0.9421023, -0.22156057, -0.22400688, -0.11478376, 4.6149773597717285, -4.13368558883667, 7.872002601623535, 7.1316142082214355, -1.8045622110366821, 1.5548447370529175, 
73, 1141855633, 0.94221497, -0.22095157, -0.22412361, -0.11480549, 4.620448112487793, -4.139057636260986, 7.890574932098389, 7.282127380371094, -1.666240930557251, 1.3777201175689697, 
74, 1141872300, 0.9423642, -0.22026509, -0.22427727, -0.11459911, 4.632598876953125, -4.124777317047119, 7.879283905029297, 7.512206077575684, -1.574944257736206, 1.476354718208313, 
75, 1141888967, 0.94251454, -0.21955587, -0.22443472, -0.11441403, 4.609663963317871, -4.1255693435668945, 7.902426719665527, 7.753862380981445, -1.6267716884613037, 1.4770078659057617, 
76, 1141905634, 0.9426763, -0.21882331, -0.22459224, -0.114176616, 4.620978832244873, -4.108182430267334, 7.894235134124756, 7.8362836837768555, -1.5298916101455688, 1.471052885055542, 
77, 1141922301, 0.94284064, -0.21810025, -0.22473106, -0.113929406, 4.611840724945068, -4.101715087890625, 7.918080806732178, 7.814435958862305, -1.4415404796600342, 1.608567476272583, 
78, 1141938968, 0.9429936, -0.21738838, -0.22486848, -0.11375283, 4.603427410125732, -4.081062316894531, 7.923459529876709, 7.869150638580322, -1.5347261428833008, 1.5622661113739014, 
79, 1141955635, 0.9431403, -0.21668148, -0.225022, -0.11358105, 4.617319107055664, -4.067032814025879, 7.954315185546875, 7.825628757476807, -1.6302038431167603, 1.4685683250427246, 
80, 1141972302, 0.9432729, -0.2160371, -0.22516465, -0.11342538, 4.604976654052734, -4.050590991973877, 7.947953701019287, 7.423367977142334, -1.6400518417358398, 1.536378026008606, 
81, 1141988969, 0.9434057, -0.21542056, -0.22530709, -0.11321021, 4.597590923309326, -4.054693222045898, 7.935103893280029, 7.152719974517822, -1.6036436557769775, 1.6291091442108154, 
82, 1142005636, 0.94352794, -0.21484819, -0.2254134, -0.113067694, 4.617799282073975, -4.060756206512451, 7.949455261230469, 7.044018745422363, -1.5531864166259766, 1.8063102960586548, 
83, 1142022303, 0.9436564, -0.21427089, -0.22553658, -0.11284512, 4.6090006828308105, -4.061964988708496, 7.949977397918701, 6.962620735168457, -1.560895562171936, 1.8231247663497925, 
84, 1142038970, 0.94379586, -0.21367626, -0.22564918, -0.1125805, 4.586241245269775, -4.081773281097412, 7.934338569641113, 7.056992530822754, -1.4447038173675537, 1.9016666412353516, 
85, 1142055637, 0.94391567, -0.2131226, -0.22576666, -0.112390526, 4.584935188293457, -4.05580997467041, 7.9482741355896, 6.916684150695801, -1.6159694194793701, 1.872288465499878, 
86, 1142072304, 0.94404054, -0.21256958, -0.22591354, -0.112093545, 4.587145805358887, -4.043235778808594, 7.948692321777344, 6.7444963455200195, -1.6753267049789429, 1.8673131465911865, 
87, 1142088971, 0.9441479, -0.21207303, -0.22606713, -0.11181986, 4.590967178344727, -4.060142517089844, 7.935976028442383, 6.3956074714660645, -1.7993565797805786, 1.8693687915802002, 
88, 1142105638, 0.9442301, -0.21162784, -0.22619575, -0.11170794, 4.604353904724121, -4.0477705001831055, 7.946733474731445, 6.267338752746582, -1.846144199371338, 1.7465044260025024, 
89, 1142122305, 0.944323, -0.21119218, -0.22633217, -0.11147048, 4.61027193069458, -4.034811973571777, 7.953968048095703, 6.070249080657959, -1.797019362449646, 1.9310953617095947, 
90, 1142138972, 0.94441646, -0.21078148, -0.22647282, -0.11117114, 4.597564220428467, -4.047075271606445, 7.952654838562012, 5.837583065032959, -1.7954953908920288, 2.034672975540161, 
91, 1142155639, 0.9444858, -0.2104263, -0.22657235, -0.11105095, 4.613933086395264, -4.015203952789307, 7.966063022613525, 5.751179218292236, -1.7892714738845825, 2.011289119720459, 
92, 1142172306, 0.9445582, -0.21007524, -0.2266815, -0.11087734, 4.615470886230469, -4.0312299728393555, 7.943665027618408, 5.688889026641846, -1.8202245235443115, 2.092071056365967, 
93, 1142188973, 0.9446445, -0.20970511, -0.22677271, -0.11065534, 4.595986366271973, -4.061766147613525, 7.945517539978027, 5.762115001678467, -1.6260031461715698, 2.1435141563415527, 
94, 1142205640, 0.9447325, -0.20931652, -0.22687222, -0.11043594, 4.605222225189209, -4.045392036437988, 7.971960067749023, 5.9474945068359375, -1.6898881196975708, 2.1432902812957764, 
95, 1142222307, 0.9448161, -0.20893529, -0.22697808, -0.11022523, 4.592850208282471, -4.0418477058410645, 7.966601848602295, 5.935789108276367, -1.7551488876342773, 2.127551555633545, 
96, 1142238974, 0.94490415, -0.2085398, -0.22709359, -0.10998107, 4.600113391876221, -4.0712127685546875, 7.95318078994751, 6.023159503936768, -1.7829961776733398, 2.1430273056030273, 
97, 1142255641, 0.94500315, -0.20808491, -0.22722495, -0.109720975, 4.603896141052246, -4.071499824523926, 7.959914684295654, 6.409182548522949, -1.7938177585601807, 1.9985082149505615, 
98, 1142272308, 0.9451172, -0.2075819, -0.22732817, -0.10947706, 4.594304084777832, -4.075778484344482, 7.96616268157959, 6.782345771789551, -1.5734715461730957, 1.9631110429763794, 
99, 1142288975, 0.9452515, -0.20702137, -0.22743347, -0.1091597, 4.604190826416016, -4.052249908447266, 7.951592922210693, 7.071335315704346, -1.4348556995391846, 1.915266990661621, 
100, 1142305642, 0.94538265, -0.20644747, -0.22751169, -0.10894777, 4.582644462585449, -4.043160438537598, 7.938129901885986, 7.305383682250977, -1.3293569087982178, 1.7679296731948853, 
101, 1142322309, 0.9455201, -0.20583628, -0.22759144, -0.10874441, 4.583118915557861, -4.027190208435059, 7.950610160827637, 7.573767185211182, -1.29393470287323, 1.654119610786438, 
102, 1142338976, 0.9456738, -0.2051933, -0.22764264, -0.10851574, 4.578583240509033, -4.026299476623535, 7.979453086853027, 7.749661445617676, -1.027793049812317, 1.6460260152816772, 
103, 1142355643, 0.94581544, -0.20458482, -0.22768825, -0.10833559, 4.587107181549072, -3.991464853286743, 8.00832462310791, 7.6222639083862305, -1.0915814638137817, 1.6656581163406372, 
104, 1142372310, 0.9459425, -0.2040333, -0.22775857, -0.108116575, 4.580154895782471, -3.991943597793579, 7.994327068328857, 7.2192606925964355, -1.2935504913330078, 1.7570443153381348, 
105, 1142388977, 0.94605774, -0.20352057, -0.22785167, -0.107879914, 4.592921257019043, -3.9830098152160645, 8.000897407531738, 6.997057914733887, -1.5027806758880615, 1.8470216989517212, 
106, 1142405644, 0.94615805, -0.20305048, -0.22796793, -0.10763913, 4.570488929748535, -3.988008737564087, 7.994889259338379, 6.745962619781494, -1.7175813913345337, 1.8908960819244385, 
107, 1142422311, 0.9462477, -0.2026144, -0.22809303, -0.107408516, 4.549533843994141, -3.997591733932495, 7.997490406036377, 6.552088260650635, -1.824386477470398, 1.8912932872772217, 
108, 1142438978, 0.94632804, -0.20221408, -0.228243, -0.107134804, 4.571300506591797, -3.980578899383545, 8.032878875732422, 6.30985689163208, -2.0184028148651123, 1.9920024871826172, 
109, 1142455645, 0.9463956, -0.20184489, -0.22840378, -0.1068935, 4.554643154144287, -3.9865834712982178, 7.981297016143799, 6.13229513168335, -2.134363889694214, 1.8982596397399902, 
110, 1142472312, 0.94645435, -0.20150457, -0.22855285, -0.10669666, 4.571533203125, -3.9739975929260254, 7.989943504333496, 6.059055805206299, -2.161705493927002, 1.9611005783081055, 
111, 1142488979, 0.9465023, -0.20119737, -0.22871174, -0.10650751, 4.587259292602539, -3.9663071632385254, 8.01324462890625, 5.880894184112549, -2.2814321517944336, 1.9850612878799438, 
112, 1142505646, 0.94654566, -0.2009065, -0.22887757, -0.10631705, 4.586987018585205, -3.977687120437622, 7.987731456756592, 5.772207260131836, -2.3319151401519775, 1.9467066526412964, 
113, 1142522313, 0.9465915, -0.20062827, -0.22903532, -0.106092885, 4.582310199737549, -3.9788994789123535, 7.999751091003418, 5.6550798416137695, -2.2564470767974854, 1.9979701042175293, 
114, 1142538980, 0.9466327, -0.20037761, -0.2291892, -0.105866544, 4.595023155212402, -3.970555543899536, 8.015008926391602, 5.476546764373779, -2.2516446113586426, 2.0119802951812744, 
115, 1142555647, 0.94666874, -0.20016873, -0.22932817, -0.10563782, 4.574290752410889, -3.956613779067993, 8.004162788391113, 5.234339237213135, -2.2135584354400635, 2.1321420669555664, 
116, 1142572314, 0.9466956, -0.19998965, -0.22944766, -0.10547721, 4.577159881591797, -4.000060081481934, 8.000792503356934, 5.170155048370361, -2.2002015113830566, 2.154655694961548, 
117, 1142588981, 0.9467269, -0.19978791, -0.22959091, -0.10526677, 4.564620494842529, -3.999089479446411, 7.990750789642334, 5.2559943199157715, -2.2717888355255127, 2.0723745822906494, 
118, 1142605648, 0.9467522, -0.19958338, -0.22975364, -0.10507153, 4.5908684730529785, -3.962921380996704, 8.007247924804688, 5.333038330078125, -2.423799991607666, 2.008368492126465, 
119, 1142622315, 0.94677687, -0.1994167, -0.22990917, -0.10482646, 4.579726219177246, -3.951261043548584, 7.99852991104126, 5.0843000411987305, -2.4078052043914795, 2.21951961517334, 
120, 1142638982, 0.9467925, -0.19927657, -0.2300504, -0.1046403, 4.574697494506836, -3.992058753967285, 8.00809097290039, 4.995655536651611, -2.393218994140625, 2.1793081760406494, 
121, 1142655649, 0.9468102, -0.19913204, -0.230202, -0.104422726, 4.5833282470703125, -3.9921634197235107, 7.979230880737305, 5.000060558319092, -2.4252731800079346, 2.1595351696014404, 
122, 1142672316, 0.9468325, -0.19898544, -0.23034321, -0.10418738, 4.570371627807617, -3.999908447265625, 7.982854843139648, 4.9923248291015625, -2.324896812438965, 2.147996425628662, 
123, 1142688983, 0.9468559, -0.19882964, -0.23048341, -0.10396248, 4.585617542266846, -3.9944987297058105, 7.995604515075684, 5.086811065673828, -2.316265821456909, 2.0918281078338623, 
124, 1142705650, 0.9468756, -0.19868252, -0.23061635, -0.103769094, 4.586316108703613, -3.991450309753418, 8.013050079345703, 5.075016498565674, -2.296236276626587, 2.0284745693206787, 
125, 1142722317, 0.94690514, -0.19850074, -0.23075509, -0.10353902, 4.587297439575195, -3.986346960067749, 7.991685390472412, 5.297077655792236, -2.2747726440429688, 2.015578508377075, 
126, 1142738984, 0.9469362, -0.19833504, -0.23087339, -0.103307985, 4.584976673126221, -3.979311466217041, 7.990182876586914, 5.234896183013916, -2.1749536991119385, 2.1115429401397705, 
127, 1142755651, 0.9469705, -0.19814944, -0.23099878, -0.10306841, 4.575460433959961, -4.000911712646484, 8.002023696899414, 5.409633159637451, -2.2152745723724365, 2.1077334880828857, 
128, 1142772318, 0.947008, -0.1979336, -0.23112833, -0.1028491, 4.581395149230957, -3.9902374744415283, 7.983481407165527, 5.617659568786621, -2.2000732421875, 1.9266002178192139, 
129, 1142788985, 0.9470411, -0.19772828, -0.23125134, -0.10266276, 4.581367492675781, -3.999180793762207, 7.995375156402588, 5.645501613616943, -2.220717668533325, 1.9461429119110107, 
130, 1142805652, 0.94707197, -0.1975228, -0.23138878, -0.10246389, 4.569607257843018, -3.9848790168762207, 8.006904602050781, 5.657244682312012, -2.309593677520752, 1.9176487922668457, 
131, 1142822319, 0.9470987, -0.19730996, -0.23154967, -0.102262855, 4.572828769683838, -3.9932234287261963, 7.992020130157471, 5.698211669921875, -2.439987897872925, 1.7927227020263672, 
132, 1142838986, 0.9471298, -0.1970954, -0.2316979, -0.10205292, 4.60169792175293, -3.969989061355591, 7.987584114074707, 5.739409446716309, -2.3606908321380615, 1.8395044803619385, 
133, 1142855653, 0.9471562, -0.19692843, -0.23182157, -0.101849854, 4.581593036651611, -3.9818358421325684, 7.989520072937012, 5.454352855682373, -2.2583937644958496, 1.945489525794983, 
134, 1142872320, 0.94718707, -0.19674973, -0.23194654, -0.10162191, 4.596393585205078, -3.976947784423828, 8.009994506835938, 5.530422687530518, -2.2393760681152344, 1.9528917074203491, 
135, 1142888987, 0.947219, -0.19659013, -0.23204464, -0.10140962, 4.598098278045654, -3.9464259147644043, 8.011699676513672, 5.457401275634766, -2.1066129207611084, 2.0211753845214844, 
136, 1142905654, 0.9472505, -0.1964497, -0.23213719, -0.10117595, 4.580398082733154, -3.9825563430786133, 8.009622573852539, 5.361006736755371, -2.1001968383789062, 2.146088123321533, 
137, 1142922321, 0.947273, -0.19633655, -0.23221941, -0.100996144, 4.578479766845703, -3.991600751876831, 7.989306926727295, 5.2887282371521, -2.1247076988220215, 2.146369695663452, 
138, 1142938988, 0.94729996, -0.19620833, -0.2323162, -0.10076832, 4.5884108543396, -3.9669570922851562, 7.986597537994385, 5.323394775390625, -2.1481306552886963, 2.0941455364227295, 
139, 1142955655, 0.9473274, -0.19607462, -0.23242715, -0.100514375, 4.5633392333984375, -3.988384246826172, 7.977997303009033, 5.345959663391113, -2.21396803855896, 2.071324586868286, 
140, 1142972322, 0.9473517, -0.19596869, -0.23251434, -0.10029034, 4.593933582305908, -3.9649643898010254, 7.993162155151367, 5.263908863067627, -2.1445062160491943, 2.1776556968688965, 
141, 1142988989, 0.9473705, -0.19587407, -0.23259969, -0.1000986, 4.568980693817139, -3.981417655944824, 7.993876934051514, 5.27578067779541, -2.191608190536499, 2.177168846130371, 
142, 1143005656, 0.9473775, -0.1957983, -0.23269993, -0.099949054, 4.566104412078857, -3.9805517196655273, 8.02975845336914, 5.16586446762085, -2.30987548828125, 1.993628740310669, 
143, 1143022323, 0.9473854, -0.1957431, -0.23281068, -0.09972461, 4.588231086730957, -3.9481964111328125, 7.987215042114258, 4.961552143096924, -2.347679376602173, 2.110640287399292, 
144, 1143038990, 0.947381, -0.19574471, -0.23292477, -0.09949559, 4.591192722320557, -3.952528715133667, 8.003864288330078, 4.624911308288574, -2.451334238052368, 2.236539602279663, 
145, 1143055657, 0.94737095, -0.19579, -0.23302525, -0.099266775, 4.5920257568359375, -3.9530835151672363, 8.010808944702148, 4.366697311401367, -2.4202659130096436, 2.3403351306915283, 
146, 1143072324, 0.947353, -0.19586642, -0.23313195, -0.099036425, 4.596782684326172, -3.9809725284576416, 7.996038436889648, 4.221408843994141, -2.529081344604492, 2.442171096801758, 
147, 1143088991, 0.94733083, -0.19596136, -0.2332114, -0.098873675, 4.587481498718262, -3.993903636932373, 7.995157241821289, 4.284134387969971, -2.4835805892944336, 2.5473241806030273, 
148, 1143105658, 0.9473181, -0.19604594, -0.23332046, -0.09857174, 4.587118148803711, -3.9796175956726074, 8.00454330444336, 4.069564342498779, -2.4660229682922363, 2.4392385482788086, 
149, 1143122325, 0.94729775, -0.19615585, -0.23340917, -0.09833719, 4.567885398864746, -4.014057159423828, 7.999406337738037, 4.022590160369873, -2.4315481185913086, 2.434832811355591, 
150, 1143138992, 0.94726557, -0.19628575, -0.23350713, -0.098155126, 4.580620288848877, -3.997257709503174, 8.004659652709961, 3.9733498096466064, -2.564452648162842, 2.3478779792785645, 
151, 1143155659, 0.9472322, -0.19642134, -0.23361269, -0.097955056, 4.596068859100342, -3.984414577484131, 7.999032974243164, 3.926875591278076, -2.6050357818603516, 2.3387343883514404, 
152, 1143172326, 0.9471967, -0.19657627, -0.23372014, -0.09772977, 4.59568452835083, -3.9879159927368164, 7.978013515472412, 3.8049333095550537, -2.6354124546051025, 2.422961711883545, 
153, 1143188993, 0.947154, -0.19675432, -0.2338298, -0.09752474, 4.58854866027832, -4.0214128494262695, 7.989783763885498, 3.716953992843628, -2.710611581802368, 2.445910692214966, 
154, 1143205660, 0.94711006, -0.19692379, -0.23395742, -0.09730091, 4.597412109375, -4.007587909698486, 7.987778186798096, 3.7251758575439453, -2.7783188819885254, 2.3275928497314453, 
155, 1143222327, 0.94706595, -0.19710115, -0.23407236, -0.09709549, 4.590786457061768, -4.0117387771606445, 7.998718738555908, 3.7854163646698, -2.770890712738037, 2.442350149154663, 
156, 1143238994, 0.9470229, -0.19726062, -0.23419893, -0.09688578, 4.603687763214111, -4.0396647453308105, 7.9652099609375, 3.9689178466796875, -2.8639798164367676, 2.4637365341186523, 
157, 1143255661, 0.946995, -0.19737796, -0.2343274, -0.09660939, 4.611922740936279, -4.033218860626221, 7.95424222946167, 4.152920722961426, -2.7540249824523926, 2.4159438610076904, 
158, 1143272328, 0.94698125, -0.19745551, -0.23441963, -0.09636022, 4.573904037475586, -4.053110599517822, 7.971138000488281, 4.430639266967773, -2.4671242237091064, 2.2983431816101074, 
159, 1143288995, 0.9469598, -0.19753617, -0.23452155, -0.096157305, 4.602446556091309, -4.026507377624512, 7.974671840667725, 4.512228488922119, -2.596096992492676, 2.2366549968719482, 
160, 1143305662, 0.9469395, -0.19761838, -0.23461442, -0.09596097, 4.59853458404541, -4.041786193847656, 7.943246841430664, 4.511703014373779, -2.534280776977539, 2.2039856910705566, 
161, 1143322329, 0.94691914, -0.19768691, -0.23472524, -0.09575064, 4.583044052124023, -4.055211544036865, 7.955799102783203, 4.564964294433594, -2.6035118103027344, 2.0829784870147705, 
162, 1143338996, 0.9468929, -0.19776359, -0.23482801, -0.09559844, 4.578193664550781, -4.0386247634887695, 7.965947151184082, 4.595789909362793, -2.608199119567871, 1.9977266788482666, 
163, 1143355663, 0.9468545, -0.19785759, -0.23496586, -0.09544629, 4.589670181274414, -4.028929233551025, 7.966266632080078, 4.576451778411865, -2.9180870056152344, 2.068148612976074, 
164, 1143372330, 0.94682103, -0.19795366, -0.2350931, -0.09526474, 4.604093551635742, -4.018183708190918, 7.995339393615723, 4.550057888031006, -2.8340516090393066, 2.1373157501220703, 
165, 1143388997, 0.94678885, -0.19807187, -0.23519559, -0.09508781, 4.606537818908691, -4.020921230316162, 7.952991485595703, 4.4021315574646, -2.685344696044922, 2.1668601036071777, 
166, 1143405664, 0.9467597, -0.19820714, -0.23526594, -0.094922274, 4.609255313873291, -4.042163848876953, 7.951841831207275, 4.390157699584961, -2.550877571105957, 2.350285291671753, 
167, 1143422331, 0.9467425, -0.19829786, -0.23531279, -0.09478679, 4.590841293334961, -4.0828680992126465, 7.941906929016113, 4.751297473907471, -2.381718873977661, 2.278672695159912, 
168, 1143438998, 0.94673103, -0.19835518, -0.23536588, -0.094649866, 4.620682239532471, -4.059842586517334, 7.947691440582275, 5.015658378601074, -2.405116081237793, 2.2381277084350586, 
169, 1143455665, 0.9467313, -0.19837327, -0.23542377, -0.09446467, 4.596173286437988, -4.0827412605285645, 7.944459438323975, 5.208226680755615, -2.3387277126312256, 2.1791670322418213, 
170, 1143472332, 0.94674534, -0.1983408, -0.2354802, -0.094251655, 4.610341548919678, -4.048071384429932, 7.959421157836914, 5.506347179412842, -2.2381341457366943, 2.0897789001464844, 
171, 1143488999, 0.94676316, -0.1983051, -0.23552302, -0.094041176, 4.6135358810424805, -4.026258945465088, 7.944343566894531, 5.533777713775635, -2.1392433643341064, 2.0732460021972656, 
172, 1143505666, 0.9467797, -0.19826859, -0.23556355, -0.09384888, 4.6063103675842285, -4.054450035095215, 7.951289653778076, 5.601882457733154, -2.1597208976745605, 2.0792903900146484, 
173, 1143522333, 0.9467974, -0.19822368, -0.2355927, -0.09369274, 4.624584674835205, -4.046535968780518, 7.958512306213379, 5.7728729248046875, -2.1454415321350098, 2.1113574504852295, 
174, 1143539000, 0.9468189, -0.19817857, -0.23561288, -0.09352003, 4.60893440246582, -4.036474704742432, 7.958255767822266, 5.742163181304932, -2.054619073867798, 2.098961114883423, 
175, 1143555667, 0.9468327, -0.19815369, -0.23564123, -0.09336024, 4.595124244689941, -4.025364398956299, 7.956332206726074, 5.682767391204834, -2.176496982574463, 2.162173271179199, 
176, 1143572334, 0.9468596, -0.19811302, -0.23566723, -0.09310844, 4.613519668579102, -4.027407169342041, 7.940380096435547, 5.644181728363037, -2.0374200344085693, 2.199657440185547, 
177, 1143589001, 0.94687164, -0.1981157, -0.23569493, -0.09291099, 4.5976104736328125, -4.040547847747803, 7.948210716247559, 5.481848239898682, -2.1753828525543213, 2.250460147857666, 
178, 1143605668, 0.94688165, -0.19813775, -0.23572028, -0.09269672, 4.5923895835876465, -4.026039123535156, 7.981950283050537, 5.337738037109375, -2.164478302001953, 2.291440486907959, 
179, 1143622335, 0.9468924, -0.1981709, -0.23573063, -0.09249026, 4.601072311401367, -4.03741979598999, 7.953963756561279, 5.3063883781433105, -2.1011953353881836, 2.3516557216644287, 
180, 1143639002, 0.94689775, -0.1982274, -0.23572174, -0.092335895, 4.604154109954834, -4.033748626708984, 7.965481281280518, 5.242343425750732, -2.0554001331329346, 2.364743947982788, 
181, 1143655669, 0.94691193, -0.19827841, -0.23571646, -0.09209376, 4.596738338470459, -4.031896114349365, 7.958731174468994, 5.180783271789551, -2.0003199577331543, 2.470216751098633, 
182, 1143672336, 0.9469275, -0.19832483, -0.23570138, -0.09187301, 4.594709873199463, -4.038768291473389, 7.953866481781006, 5.224209308624268, -1.9333683252334595, 2.395824670791626, 
183, 1143689003, 0.94693774, -0.19839604, -0.23568664, -0.09165182, 4.604620933532715, -4.027410507202148, 7.962160110473633, 5.116470813751221, -1.9976948499679565, 2.5066640377044678, 
184, 1143705670, 0.9469432, -0.19847663, -0.23566742, -0.091470055, 4.590476989746094, -4.044127941131592, 7.987688064575195, 5.1277265548706055, -2.0236916542053223, 2.4835612773895264, 
185, 1143722337, 0.9469493, -0.19857529, -0.23564713, -0.09124425, 4.610905647277832, -4.04232120513916, 7.954582691192627, 4.983283996582031, -2.0170834064483643, 2.6086153984069824, 
186, 1143739004, 0.94695, -0.19870357, -0.23561203, -0.091047235, 4.59727144241333, -4.0409088134765625, 7.962762355804443, 4.85451602935791, -1.9922263622283936, 2.671839952468872, 
187, 1143755671, 0.94694984, -0.19884357, -0.23556532, -0.09086447, 4.586130142211914, -4.067768573760986, 7.941330909729004, 4.8313374519348145, -1.9603132009506226, 2.7277274131774902, 
188, 1143772338, 0.9469533, -0.19894849, -0.23553771, -0.09066963, 4.583217144012451, -4.069260120391846, 7.95949125289917, 5.061440467834473, -2.04410457611084, 2.6379544734954834, 
189, 1143789005, 0.9469618, -0.19903363, -0.23550062, -0.090490155, 4.584878921508789, -4.069604873657227, 7.9568095207214355, 5.127407073974609, -1.9095358848571777, 2.4291346073150635, 
190, 1143805672, 0.9469711, -0.19910881, -0.23547691, -0.09029015, 4.5881428718566895, -4.04107141494751, 7.950178146362305, 5.184945106506348, -1.9792276620864868, 2.4166479110717773, 
191, 1143822339, 0.9469756, -0.19920261, -0.23544405, -0.09012052, 4.580262660980225, -4.04054594039917, 7.961328506469727, 5.163878917694092, -2.005262851715088, 2.5062923431396484, 
192, 1143839006, 0.94697356, -0.19929817, -0.23545091, -0.08991268, 4.584048271179199, -4.048473834991455, 7.967545986175537, 5.114023685455322, -2.245279550552368, 2.4818835258483887, 
193, 1143855673, 0.9469696, -0.19939989, -0.23544885, -0.08973372, 4.590113639831543, -4.057722091674805, 7.959038734436035, 5.110130786895752, -2.2155306339263916, 2.4436819553375244, 
194, 1143872340, 0.9469733, -0.19948466, -0.23545207, -0.089497626, 4.591824531555176, -4.057586193084717, 7.9687371253967285, 5.1442084312438965, -2.1721298694610596, 2.454272985458374, 
195, 1143889007, 0.9469656, -0.19961566, -0.23545066, -0.08929171, 4.575403213500977, -4.03171968460083, 7.966055870056152, 4.904179573059082, -2.235764980316162, 2.5261168479919434, 
196, 1143905674, 0.9469473, -0.19979134, -0.23545404, -0.08908222, 4.588715076446533, -4.0326313972473145, 7.952213764190674, 4.637768268585205, -2.3375492095947266, 2.640733480453491, 
197, 1143922341, 0.9469201, -0.19999729, -0.23546001, -0.088893585, 4.582122325897217, -4.057314395904541, 7.946446895599365, 4.4867048263549805, -2.419523000717163, 2.67683482170105, 
198, 1143939008, 0.94689614, -0.20018175, -0.23547572, -0.08869219, 4.58146858215332, -4.063654899597168, 7.954244136810303, 4.650933742523193, -2.4751665592193604, 2.680612564086914, 
199, 1143955675, 0.9468667, -0.2003891, -0.23546495, -0.08856638, 4.585392951965332, -4.042708396911621, 7.969260215759277, 4.617547512054443, -2.404052972793579, 2.67668080329895, 
200, 1143972342, 0.9468448, -0.20057948, -0.2354544, -0.088396825, 4.57915735244751, -4.066343784332275, 7.932245254516602, 4.655146598815918, -2.3340020179748535, 2.6625168323516846, 
201, 1143989009, 0.94683415, -0.2007227, -0.23547079, -0.088142075, 4.592328071594238, -4.088435649871826, 7.945544242858887, 4.820144176483154, -2.355158567428589, 2.566443920135498, 
202, 1144005676, 0.9468343, -0.20084259, -0.23545443, -0.08791113, 4.603828430175781, -4.075821876525879, 7.933734893798828, 4.982592582702637, -2.112196207046509, 2.4952406883239746, 
203, 1144022343, 0.9468392, -0.20093593, -0.23542544, -0.08772195, 4.587687969207764, -4.07799768447876, 7.9482035636901855, 5.244725227355957, -2.0584607124328613, 2.448113203048706, 
204, 1144039010, 0.94684726, -0.20101568, -0.23539223, -0.08754252, 4.583898544311523, -4.077422618865967, 7.945573806762695, 5.360738277435303, -2.030581474304199, 2.4213223457336426, 
205, 1144055677, 0.94684863, -0.2011075, -0.2353506, -0.08742728, 4.583620071411133, -4.087225437164307, 7.963681697845459, 5.34218168258667, -2.0305042266845703, 2.315298080444336, 
206, 1144072344, 0.9468464, -0.20120427, -0.23531473, -0.08732547, 4.588770866394043, -4.076211452484131, 7.959350109100342, 5.352810859680176, -2.1035773754119873, 2.3186662197113037, 
207, 1144089011, 0.9468433, -0.20130284, -0.23525953, -0.08728094, 4.588368892669678, -4.0819525718688965, 7.9440107345581055, 5.409607410430908, -2.023460865020752, 2.2527523040771484, 
208, 1144105678, 0.94684625, -0.20138355, -0.23522072, -0.0871681, 4.581420421600342, -4.084823131561279, 7.967947006225586, 5.491286754608154, -2.0826008319854736, 2.3576619625091553, 
209, 1144122345, 0.94685644, -0.20143631, -0.23516718, -0.08708001, 4.583013534545898, -4.073219299316406, 7.932337284088135, 5.664377689361572, -1.9457651376724243, 2.2133986949920654, 
210, 1144139012, 0.9468669, -0.20146528, -0.23513143, -0.08699383, 4.574710369110107, -4.103236198425293, 7.932280540466309, 5.863272190093994, -2.065401792526245, 2.1829960346221924, 
211, 1144155679, 0.9468847, -0.20146494, -0.23508787, -0.08692055, 4.589946269989014, -4.067904949188232, 7.962484836578369, 6.041805744171143, -1.9665369987487793, 2.0552785396575928, 
212, 1144172346, 0.946914, -0.2014299, -0.23503953, -0.08681355, 4.588042736053467, -4.078022003173828, 7.928093910217285, 6.193445682525635, -1.8391008377075195, 1.9828327894210815, 
213, 1144189013, 0.94694024, -0.2013927, -0.23499374, -0.08673557, 4.565016746520996, -4.0579657554626465, 7.947958469390869, 6.212116718292236, -1.8538538217544556, 1.8625941276550293, 
214, 1144205680, 0.9469591, -0.20136127, -0.23495635, -0.08670569, 4.576384544372559, -4.053942680358887, 7.995297908782959, 6.237025260925293, -1.9601209163665771, 1.7768683433532715, 
215, 1144222347, 0.9469743, -0.20135234, -0.23495248, -0.08657012, 4.5763654708862305, -4.040643215179443, 7.966171741485596, 5.988902568817139, -2.1378087997436523, 1.9595766067504883, 
216, 1144239014, 0.94698894, -0.2013587, -0.2349397, -0.086430125, 4.607865810394287, -4.048110485076904, 7.963256359100342, 5.894225120544434, -2.096867084503174, 2.0212647914886475, 
217, 1144255681, 0.94700086, -0.20138124, -0.23491402, -0.08631694, 4.585138320922852, -4.055735111236572, 7.960306644439697, 5.7843217849731445, -2.0244345664978027, 1.964827299118042, 
218, 1144272348, 0.94701356, -0.20141049, -0.23487386, -0.08621842, 4.586182594299316, -4.045466899871826, 7.970727920532227, 5.784936428070068, -1.9665369987487793, 2.021085739135742, 
219, 1144289015, 0.94702506, -0.20144428, -0.23482902, -0.086135454, 4.574925899505615, -4.042340278625488, 7.974008560180664, 5.7750115394592285, -1.9529750347137451, 2.006396532058716, 
220, 1144305682, 0.9470395, -0.20147957, -0.23480521, -0.08595933, 4.582468032836914, -4.041796684265137, 7.981782913208008, 5.652787685394287, -2.01375412940979, 2.1089882850646973, 
221, 1144322349, 0.9470481, -0.20152983, -0.23478206, -0.0858078, 4.5771708488464355, -4.062079429626465, 7.962472915649414, 5.60414981842041, -2.071382761001587, 2.125572919845581, 
222, 1144339016, 0.94706225, -0.20156166, -0.2347519, -0.085661, 4.573033332824707, -4.065506935119629, 7.9546332359313965, 5.745147228240967, -2.0174038410186768, 2.1105377674102783, 
223, 1144355683, 0.9470715, -0.20160091, -0.23470578, -0.08559342, 4.581676006317139, -4.04779052734375, 7.956094741821289, 5.777803421020508, -1.97616708278656, 1.996625304222107, 
224, 1144372350, 0.94708526, -0.20162003, -0.23466529, -0.085505225, 4.585486888885498, -4.048495769500732, 7.974196910858154, 5.934117317199707, -2.0099759101867676, 2.058134078979492, 
225, 1144389017, 0.9471002, -0.20163117, -0.23462331, -0.085429415, 4.567986488342285, -4.04785680770874, 7.9759650230407715, 5.973970413208008, -1.9794455766677856, 1.9723187685012817, 
226, 1144405684, 0.9471142, -0.2016455, -0.23456088, -0.08541169, 4.586975574493408, -4.052159786224365, 7.9783453941345215, 6.06640625, -1.9291294813156128, 1.9929243326187134, 
227, 1144422351, 0.9471389, -0.20163342, -0.23450115, -0.085330516, 4.5838398933410645, -4.046594142913818, 7.979116916656494, 6.1506733894348145, -1.8517793416976929, 2.0116090774536133, 
228, 1144439018, 0.94715613, -0.20164882, -0.23441136, -0.085349545, 4.579042434692383, -4.027926445007324, 7.964631080627441, 6.140992164611816, -1.8043447732925415, 2.045123338699341, 
229, 1144455685, 0.9471835, -0.20164844, -0.2343363, -0.08525248, 4.571094036102295, -4.025181770324707, 7.9872260093688965, 6.048016548156738, -1.7414265871047974, 2.0708253383636475, 
230, 1144472352, 0.947201, -0.20167333, -0.23427825, -0.08515858, 4.588344097137451, -4.025357246398926, 7.980432033538818, 5.916494846343994, -1.9092539548873901, 2.1289403438568115, 
231, 1144489019, 0.9472253, -0.201699, -0.23422438, -0.08497466, 4.564870357513428, -4.036211967468262, 7.975549221038818, 5.822779655456543, -1.8724234104156494, 2.2961533069610596, 
232, 1144505686, 0.9472454, -0.20172332, -0.2341759, -0.084826745, 4.579802513122559, -4.036019325256348, 7.955601215362549, 5.84855842590332, -1.920613408088684, 2.177182197570801, 
233, 1144522353, 0.9472671, -0.20173751, -0.23412512, -0.08469111, 4.567475318908691, -4.037676811218262, 7.976327419281006, 5.922245025634766, -1.8990854024887085, 2.1270320415496826, 
234, 1144539020, 0.94729024, -0.20176563, -0.23405543, -0.08455776, 4.569131851196289, -4.0220160484313965, 7.980794429779053, 5.874798774719238, -1.819520115852356, 2.251779079437256, 
235, 1144555687, 0.94730926, -0.20179808, -0.23399225, -0.08444303, 4.5468034744262695, -4.030614852905273, 7.984170436859131, 5.836968421936035, -1.863061547279358, 2.1652207374572754, 
236, 1144572354, 0.94732916, -0.20184593, -0.23391645, -0.0843162, 4.5785627365112305, -4.015527248382568, 7.999108791351318, 5.781260967254639, -1.8299314975738525, 2.3363394737243652, 
237, 1144589021, 0.94734204, -0.20190518, -0.23384634, -0.084222965, 4.564032554626465, -4.026233673095703, 7.976587772369385, 5.726257801055908, -1.8973697423934937, 2.2590532302856445, 
238, 1144605688, 0.9473604, -0.20194913, -0.23376113, -0.08414593, 4.578167915344238, -4.039464473724365, 7.994855880737305, 5.848468780517578, -1.796865701675415, 2.238447904586792, 
239, 1144622355, 0.94739324, -0.20195359, -0.23368658, -0.083972864, 4.564777851104736, -4.022943496704102, 7.991987705230713, 5.9750847816467285, -1.7253165245056152, 2.2607436180114746, 
240, 1144639022, 0.94742304, -0.20195898, -0.23359787, -0.083870955, 4.560548305511475, -4.041426658630371, 7.993558883666992, 6.061963081359863, -1.7027643918991089, 2.1931514739990234, 
241, 1144655689, 0.94744474, -0.20197418, -0.23351778, -0.08381224, 4.583970546722412, -4.022806644439697, 7.982210159301758, 5.999954700469971, -1.7738782167434692, 2.0401413440704346, 
242, 1144672356, 0.9474698, -0.20197585, -0.23347054, -0.08365712, 4.555783271789551, -4.008502960205078, 7.997162342071533, 5.98878812789917, -1.9052586555480957, 2.1303493976593018, 
243, 1144689023, 0.9474903, -0.20199952, -0.23343413, -0.0834691, 4.556268215179443, -4.022289752960205, 7.994672775268555, 5.8363542556762695, -1.9982454776763916, 2.2575552463531494, 
244, 1144705690, 0.9474952, -0.20206693, -0.23336942, -0.08343063, 4.572478771209717, -4.026111125946045, 7.997774124145508, 5.765252590179443, -2.0187737941741943, 2.222222089767456, 
245, 1144722357, 0.9475092, -0.20211059, -0.23330368, -0.08335031, 4.562073230743408, -4.017247676849365, 7.987040042877197, 5.855691432952881, -1.9378124475479126, 2.2188796997070312, 
246, 1144739024, 0.94752586, -0.20214096, -0.233238, -0.0832703, 4.549118518829346, -4.0393242835998535, 7.964375972747803, 5.9263691902160645, -1.9122247695922852, 2.1667189598083496, 
247, 1144755691, 0.947539, -0.20217215, -0.23316105, -0.083261, 4.537525653839111, -4.024846076965332, 7.9912238121032715, 5.967260837554932, -1.872705101966858, 2.0097265243530273, 
248, 1144772358, 0.9475462, -0.20220636, -0.23309126, -0.08329176, 4.560877799987793, -4.004761695861816, 7.994826316833496, 5.968156814575195, -1.9403605461120605, 1.890089511871338, 
249, 1144789025, 0.94755864, -0.20223382, -0.23306783, -0.08314824, 4.551178932189941, -4.0015435218811035, 8.011739730834961, 5.7997145652771, -2.0870959758758545, 2.0615150928497314, 
250, 1144805692, 0.9475674, -0.20228153, -0.23303771, -0.08301717, 4.547671318054199, -3.9920308589935303, 7.984004497528076, 5.698723793029785, -2.089618682861328, 2.123472213745117, 
251, 1144822359, 0.9475671, -0.2023716, -0.23298903, -0.08293604, 4.547879695892334, -4.024870872497559, 7.990009307861328, 5.550208568572998, -2.1103906631469727, 2.2830777168273926, 
252, 1144839026, 0.94756466, -0.20245856, -0.23294151, -0.08288567, 4.553259372711182, -4.00761079788208, 7.976944923400879, 5.585426330566406, -2.1272950172424316, 2.188246965408325, 
253, 1144855693, 0.9475564, -0.20256144, -0.23289144, -0.08287149, 4.555751323699951, -4.012530326843262, 8.00390338897705, 5.522457122802734, -2.16015625, 2.1660149097442627, 
254, 1144872360, 0.947556, -0.20265847, -0.23283418, -0.082797594, 4.555253028869629, -4.015265941619873, 7.996340751647949, 5.4623823165893555, -2.033411741256714, 2.219942569732666, 
255, 1144889027, 0.94754726, -0.20275977, -0.23278466, -0.08279071, 4.56669282913208, -4.00341272354126, 7.987069129943848, 5.534982204437256, -2.166341781616211, 2.1419904232025146, 
256, 1144905694, 0.947534, -0.20286697, -0.232753, -0.08276736, 4.557538986206055, -4.011491298675537, 7.9985857009887695, 5.478019714355469, -2.2806639671325684, 2.1516337394714355, 
257, 1144922361, 0.94752985, -0.20296115, -0.23271286, -0.08269814, 4.558002948760986, -4.011824131011963, 8.007864952087402, 5.4960761070251465, -2.1594903469085693, 2.1959691047668457, 
258, 1144939028, 0.9475263, -0.20305745, -0.23264772, -0.08268568, 4.570586681365967, -4.004968643188477, 7.9854302406311035, 5.601190567016602, -2.0857255458831787, 2.2490131855010986, 
259, 1144955695, 0.9475244, -0.20314568, -0.23256709, -0.08271504, 4.558590888977051, -4.01869535446167, 8.010563850402832, 5.705164909362793, -2.012511730194092, 2.2035887241363525, 
260, 1144972362, 0.94752854, -0.20321731, -0.23249449, -0.08269638, 4.5545549392700195, -4.004119873046875, 8.019288063049316, 5.730253219604492, -1.9851700067520142, 2.18945050239563, 
261, 1144989029, 0.9475354, -0.20327954, -0.23242284, -0.08266704, 4.5554327964782715, -4.005364418029785, 8.002193450927734, 5.796436309814453, -1.9862843751907349, 2.2201859951019287, 
262, 1145005696, 0.9475439, -0.2033361, -0.23232904, -0.08269408, 4.559409141540527, -4.002045631408691, 8.004188537597656, 5.918941497802734, -1.8985223770141602, 2.199349880218506, 
263, 1145022363, 0.94754744, -0.20341012, -0.23223343, -0.08274005, 4.561488628387451, -3.9941775798797607, 8.021929740905762, 5.799637794494629, -1.9041701555252075, 2.164567708969116, 
264, 1145039030, 0.94754845, -0.20349084, -0.23215787, -0.08274285, 4.557157516479492, -3.9748306274414062, 8.02137565612793, 5.693038463592529, -1.9988986253738403, 2.191051721572876, 
265, 1145055697, 0.94754916, -0.20358366, -0.232109, -0.08264293, 4.541372299194336, -3.9961838722229004, 7.991946220397949, 5.436334609985352, -2.062635898590088, 2.239523410797119, 
266, 1145072364, 0.94752955, -0.203729, -0.23203968, -0.082704924, 4.552013874053955, -3.9903361797332764, 8.007416725158691, 5.3471503257751465, -2.1788532733917236, 2.2356557846069336, 
267, 1145089031, 0.9475116, -0.20386563, -0.23200624, -0.082667775, 4.560282230377197, -3.997263193130493, 7.99932861328125, 5.240025043487549, -2.2882707118988037, 2.232774257659912, 
268, 1145105698, 0.9474974, -0.2040004, -0.23197928, -0.08257178, 4.56427526473999, -4.005980968475342, 8.003914833068848, 5.1232452392578125, -2.234163999557495, 2.212630271911621, 
269, 1145122365, 0.94748074, -0.20414439, -0.23193042, -0.082546085, 4.569201946258545, -4.006476402282715, 7.99638032913208, 5.177313327789307, -2.1854870319366455, 2.2188923358917236, 
270, 1145139032, 0.9474627, -0.2043061, -0.2318686, -0.0825252, 4.566036701202393, -4.000948429107666, 7.990910053253174, 5.078768253326416, -2.1334292888641357, 2.2956793308258057, 
271, 1145155699, 0.9474361, -0.2044888, -0.2317928, -0.08259193, 4.553006172180176, -3.997343063354492, 7.999785900115967, 5.098810195922852, -2.183476686477661, 2.3199214935302734, 
272, 1145172366, 0.94742733, -0.20463128, -0.23173457, -0.08250138, 4.543996810913086, -3.9956910610198975, 8.014691352844238, 5.0982465744018555, -2.058678388595581, 2.3315112590789795, 
273, 1145189033, 0.9474077, -0.20480366, -0.23167242, -0.08247389, 4.552358150482178, -4.007029056549072, 8.024613380432129, 5.04129695892334, -2.1741151809692383, 2.4117431640625, 
274, 1145205700, 0.9473931, -0.20496881, -0.23161633, -0.08238972, 4.543560028076172, -4.004423141479492, 7.995700359344482, 4.987933158874512, -2.1331732273101807, 2.4245495796203613, 
275, 1145222367, 0.9473764, -0.20512679, -0.23155855, -0.0823505, 4.5481977462768555, -4.019011497497559, 8.010884284973145, 5.110873699188232, -2.175433874130249, 2.38828182220459, 
276, 1145239034, 0.9473485, -0.2053134, -0.23148304, -0.082419954, 4.549498081207275, -4.014005184173584, 7.983007907867432, 5.070765018463135, -2.204171895980835, 2.3412060737609863, 
277, 1145255701, 0.94732213, -0.20547034, -0.23145881, -0.08240027, 4.541518688201904, -4.005564212799072, 7.998764991760254, 5.142184734344482, -2.4231855869293213, 2.301237106323242, 
278, 1145272368, 0.94730294, -0.20561993, -0.23141369, -0.08237359, 4.538280487060547, -4.025978088378906, 7.988753318786621, 5.1596903800964355, -2.2540132999420166, 2.305731773376465, 
279, 1145289035, 0.94728005, -0.20574869, -0.23139143, -0.082379244, 4.550078868865967, -4.0303239822387695, 7.9671950340271, 5.299575328826904, -2.3895046710968018, 2.113880157470703, 
280, 1145305702, 0.9472535, -0.20589997, -0.23134387, -0.08243842, 4.545528888702393, -4.009708404541016, 7.988419532775879, 5.277548313140869, -2.3407769203186035, 2.231391191482544, 
281, 1145322369, 0.9472318, -0.2060215, -0.23132594, -0.082434714, 4.557638645172119, -4.000810623168945, 8.011362075805664, 5.355961799621582, -2.420419454574585, 2.150019884109497, 
282, 1145339036, 0.9472215, -0.20611984, -0.23132329, -0.08231554, 4.559199810028076, -4.015227317810059, 7.99920129776001, 5.331040859222412, -2.362893581390381, 2.197108507156372, 
283, 1145355703, 0.9472119, -0.2062153, -0.23128784, -0.082285725, 4.573478698730469, -4.0152692794799805, 7.9908342361450195, 5.471539497375488, -2.234689235687256, 2.1451151371002197, 
284, 1145372370, 0.94720167, -0.20631312, -0.23123772, -0.08229868, 4.558833122253418, -3.9986088275909424, 8.002456665039062, 5.559582710266113, -2.2209222316741943, 2.2082760334014893, 
285, 1145389037, 0.9471945, -0.20641622, -0.23119143, -0.082253344, 4.542435646057129, -4.00145959854126, 8.012262344360352, 5.514376640319824, -2.2440505027770996, 2.4099888801574707, 
286, 1145405704, 0.9471826, -0.20654123, -0.23116009, -0.082164384, 4.538314342498779, -3.9920942783355713, 8.0015230178833, 5.258671760559082, -2.286977529525757, 2.3972208499908447, 
287, 1145422371, 0.94715667, -0.20671025, -0.23115145, -0.08206364, 4.547849655151367, -4.001878261566162, 8.014704704284668, 5.019333362579346, -2.5293500423431396, 2.5707337856292725, 
288, 1145439038, 0.9471113, -0.20696984, -0.23114392, -0.081952035, 4.548926830291748, -3.9952950477600098, 8.046735763549805, 4.49289083480835, -2.692938804626465, 2.904275417327881, 
289, 1145455705, 0.94705355, -0.20727678, -0.2311609, -0.081797644, 4.524326801300049, -4.003969669342041, 8.049487113952637, 4.175459384918213, -2.9104034900665283, 3.100942850112915, 
290, 1145472372, 0.9469672, -0.20759197, -0.23127493, -0.08167481, 4.540755271911621, -4.005511283874512, 7.999576568603516, 4.208986759185791, -3.647998094558716, 2.9709837436676025, 
291, 1145489039, 0.94688356, -0.20789747, -0.23139134, -0.081537284, 4.577600479125977, -3.9866487979888916, 7.989750385284424, 4.226570129394531, -3.6209514141082764, 2.926072120666504, 
292, 1145505706, 0.9468058, -0.20821021, -0.23145512, -0.08146131, 4.573679447174072, -4.00834321975708, 7.958701133728027, 4.182092666625977, -3.2818257808685303, 2.83286714553833, 
293, 1145522373, 0.9467315, -0.2085552, -0.23147991, -0.081372604, 4.566689491271973, -3.97680926322937, 7.981606960296631, 3.8690803050994873, -2.981132745742798, 2.849630832672119, 
294, 1145539040, 0.9466443, -0.20896678, -0.23147301, -0.08134972, 4.5735344886779785, -4.021428108215332, 7.970777988433838, 3.472595691680908, -2.8782598972320557, 2.875756025314331, 
295, 1145555707, 0.9465666, -0.20933887, -0.23148292, -0.081269346, 4.566641807556152, -4.064435005187988, 7.961449146270752, 3.5912084579467773, -2.84173583984375, 2.7438502311706543, 
296, 1145572374, 0.9465025, -0.20965125, -0.23146485, -0.08126096, 4.559322834014893, -4.090878009796143, 7.938816547393799, 4.036779880523682, -2.63297963142395, 2.5176775455474854, 
297, 1145589041, 0.94644, -0.20995575, -0.23141812, -0.08133783, 4.560294151306152, -4.0327959060668945, 7.975972652435303, 4.22564697265625, -2.540273666381836, 2.4851746559143066, 
298, 1145605708, 0.9463734, -0.21028808, -0.23140949, -0.08127833, 4.549030780792236, -3.9857707023620605, 7.997157096862793, 3.9110727310180664, -2.726747512817383, 2.740712881088257, 
299, 1145622375, 0.9462893, -0.21068227, -0.23142517, -0.08119082, 4.58447265625, -4.014379978179932, 7.977760314941406, 3.5299301147460938, -2.9841933250427246, 2.9675257205963135, 
300, 1145639042, 0.94620055, -0.2110992, -0.23143685, -0.08110865, 4.554505825042725, -4.05985164642334, 7.9638776779174805, 3.3345437049865723, -2.95350980758667, 2.9301960468292236, 
301, 1145655709, 0.9460993, -0.21154948, -0.23143198, -0.08113159, 4.5743889808654785, -4.048003196716309, 7.966032028198242, 3.2851366996765137, -3.0153515338897705, 2.937777280807495, 
302, 1145672376, 0.94599855, -0.21199758, -0.2314322, -0.08113532, 4.569052696228027, -4.083003520965576, 7.953909873962402, 3.250828266143799, -3.01578688621521, 2.916966676712036, 
303, 1145689043, 0.9459135, -0.21239322, -0.23142727, -0.081106156, 4.571508407592773, -4.08901309967041, 7.950846195220947, 3.5243332386016846, -2.869615316390991, 2.832265615463257, 
304, 1145705710, 0.94584, -0.21274404, -0.23142146, -0.08106032, 4.544350624084473, -4.106909275054932, 7.968735218048096, 3.799452066421509, -2.802368640899658, 2.7810654640197754, 
305, 1145722377, 0.94576055, -0.21310304, -0.23142833, -0.08102547, 4.558080673217773, -4.080883026123047, 7.974090099334717, 3.7320780754089355, -2.8898491859436035, 2.711796283721924, 
306, 1145739044, 0.9456812, -0.21347748, -0.23142874, -0.08096446, 4.576718330383301, -4.103600978851318, 7.961320877075195, 3.6006081104278564, -2.8445658683776855, 2.806332588195801, 
307, 1145755711, 0.94560474, -0.21382706, -0.23142368, -0.080949344, 4.5679612159729, -4.129647254943848, 7.950232028961182, 3.8148839473724365, -2.8240246772766113, 2.6947507858276367, 
308, 1145772378, 0.9455327, -0.21413454, -0.23139608, -0.08105681, 4.574518203735352, -4.1230149269104, 7.92686128616333, 4.228182792663574, -2.739182472229004, 2.448817491531372, 
309, 1145789045, 0.9454738, -0.21440908, -0.23137851, -0.08106985, 4.572671890258789, -4.107212066650391, 7.949368476867676, 4.290050506591797, -2.6471047401428223, 2.4516348838806152, 
310, 1145805712, 0.9454201, -0.21465103, -0.23138058, -0.081048645, 4.573747158050537, -4.1104254722595215, 7.939841270446777, 4.462910175323486, -2.7133004665374756, 2.4116404056549072, 
311, 1145822379, 0.94536704, -0.21488826, -0.2313653, -0.08108468, 4.570911407470703, -4.096199035644531, 7.914376735687256, 4.547522068023682, -2.6356430053710938, 2.325133800506592, 
312, 1145839046, 0.94530743, -0.2151459, -0.23136838, -0.08108577, 4.560051441192627, -4.082184791564941, 7.9621357917785645, 4.3677215576171875, -2.7501447200775146, 2.3865787982940674, 
313, 1145855713, 0.94522285, -0.21548681, -0.23139082, -0.081101894, 4.55120849609375, -4.095439434051514, 7.9492082595825195, 3.8623316287994385, -3.0118298530578613, 2.5318028926849365, 
314, 1145872380, 0.9451239, -0.21584748, -0.23144405, -0.08114425, 4.580600261688232, -4.10233211517334, 7.940464496612549, 3.7522220611572266, -3.261451005935669, 2.45387601852417, 
315, 1145889047, 0.94503605, -0.216181, -0.23153767, -0.08101319, 4.582489967346191, -4.1219868659973145, 7.944597244262695, 3.7012150287628174, -3.3230113983154297, 2.5700297355651855, 
316, 1145905714, 0.94494605, -0.21651676, -0.2316024, -0.080981016, 4.574505805969238, -4.137768268585205, 7.909285068511963, 3.843416213989258, -3.2603368759155273, 2.5430595874786377, 
317, 1145922381, 0.94486547, -0.21682999, -0.23163599, -0.08098676, 4.585846900939941, -4.127997875213623, 7.9247870445251465, 4.00389289855957, -3.037583351135254, 2.4511611461639404, 
318, 1145939048, 0.9447917, -0.21712954, -0.23166174, -0.08097091, 4.586461544036865, -4.147371768951416, 7.90794038772583, 4.021655559539795, -2.9157819747924805, 2.401613473892212, 
319, 1145955715, 0.944729, -0.2173926, -0.23164944, -0.08103286, 4.582508087158203, -4.147409915924072, 7.895634651184082, 4.384177207946777, -2.719038248062134, 2.337043523788452, 
320, 1145972382, 0.94467705, -0.21761636, -0.23162019, -0.08112202, 4.582979679107666, -4.139318943023682, 7.914969444274902, 4.644568920135498, -2.5613019466400146, 2.2024874687194824, 
321, 1145989049, 0.94462055, -0.21786006, -0.2315258, -0.081395224, 4.5809807777404785, -4.145544528961182, 7.926374435424805, 4.8683857917785645, -2.4377658367156982, 2.307051420211792, 
322, 1146005716, 0.94456387, -0.21809423, -0.23143402, -0.081685886, 4.59990119934082, -4.134510517120361, 7.9292449951171875, 4.95115327835083, -2.462181329727173, 2.261294364929199, 
323, 1146022383, 0.9445265, -0.21826953, -0.23140109, -0.08174308, 4.595109462738037, -4.149767875671387, 7.914609432220459, 4.9513840675354, -2.480276584625244, 2.236565351486206, 
324, 1146039050, 0.9444971, -0.21841949, -0.23136362, -0.08178727, 4.599842548370361, -4.137660980224609, 7.910853862762451, 5.128110885620117, -2.431497097015381, 2.267671823501587, 
325, 1146055717, 0.94447833, -0.21852912, -0.23132734, -0.081812255, 4.584766387939453, -4.161381244659424, 7.920608043670654, 5.354475975036621, -2.363149642944336, 2.2000670433044434, 
326, 1146072384, 0.9444692, -0.21860668, -0.23128322, -0.081836335, 4.595851421356201, -4.155925273895264, 7.899181842803955, 5.562209129333496, -2.2718915939331055, 2.1575119495391846, 
327, 1146089051, 0.94448304, -0.21860103, -0.23124702, -0.08179351, 4.604381084442139, -4.14475154876709, 7.927956581115723, 5.993948459625244, -2.1401655673980713, 2.0401670932769775, 
328, 1146105718, 0.9444856, -0.21862514, -0.23114038, -0.08200123, 4.595468044281006, -4.158559799194336, 7.9085540771484375, 6.187414169311523, -2.014343023300171, 1.987302303314209, 
329, 1146122385, 0.9445061, -0.21858981, -0.23102047, -0.08219651, 4.5972676277160645, -4.153017520904541, 7.922631740570068, 6.593900203704834, -1.8715777397155762, 1.981693148612976, 
330, 1146139052, 0.94455105, -0.21847257, -0.23090552, -0.08231685, 4.59028959274292, -4.148375988006592, 7.89906644821167, 6.970740795135498, -1.679866909980774, 1.8222029209136963, 
331, 1146155719, 0.9445946, -0.21834332, -0.23083624, -0.08235332, 4.5306267738342285, -4.129374980926514, 7.9185028076171875, 6.92443323135376, -1.8723719120025635, 1.8116505146026611, 
332, 1146172386, 0.9446056, -0.21829583, -0.23080327, -0.082444996, 4.588872909545898, -4.086732387542725, 7.959865093231201, 6.456476211547852, -2.267793893814087, 1.818322777748108, 
333, 1146189053, 0.9445938, -0.2183309, -0.2307339, -0.08268131, 4.589083671569824, -4.104008674621582, 7.934715747833252, 6.213912010192871, -2.3635342121124268, 2.0417938232421875, 
334, 1146205720, 0.94460136, -0.21830095, -0.23071317, -0.08273182, 4.597935676574707, -4.143397808074951, 7.9222917556762695, 6.407081127166748, -2.427309513092041, 2.109282970428467, 
335, 1146222387, 0.9446302, -0.21820536, -0.23069765, -0.0826986, 4.586699962615967, -4.126883029937744, 7.933444499969482, 6.6179375648498535, -2.210561752319336, 1.90936279296875, 
336, 1146239054, 0.9446345, -0.2181992, -0.23068853, -0.08269017, 4.602407455444336, -4.049947738647461, 7.969515323638916, 6.208481311798096, -2.4997167587280273, 2.287252902984619, 
337, 1146255721, 0.9446226, -0.21828571, -0.23068324, -0.08261275, 4.594402313232422, -4.068854808807373, 7.947149276733398, 5.554255485534668, -2.5976979732513428, 2.6422579288482666, 
338, 1146272388, 0.94460255, -0.21841411, -0.23066695, -0.08254757, 4.587595462799072, -4.127865791320801, 7.932534217834473, 5.363286972045898, -2.64481258392334, 2.852012872695923, 
339, 1146289055, 0.9445879, -0.21848908, -0.2306667, -0.0825179, 4.564489364624023, -4.168044567108154, 7.922593116760254, 5.718944549560547, -2.6965115070343018, 2.6053240299224854, 
340, 1146305722, 0.9445782, -0.21851587, -0.23066935, -0.082551196, 4.593010425567627, -4.11889123916626, 7.934319019317627, 6.132064342498779, -2.7396178245544434, 2.4458723068237305, 
341, 1146322389, 0.94456536, -0.21855631, -0.23066436, -0.082603425, 4.57466983795166, -4.1241912841796875, 7.949734687805176, 6.063525676727295, -2.7222397327423096, 2.459242343902588, 
342, 1146339056, 0.94456214, -0.21856314, -0.23068184, -0.08257432, 4.577280044555664, -4.1052632331848145, 7.946876049041748, 6.108245372772217, -2.6943347454071045, 2.354281187057495, 
343, 1146355723, 0.94454384, -0.2186115, -0.23070195, -0.08260041, 4.597530841827393, -4.089078426361084, 7.925443649291992, 5.933234691619873, -2.8404300212860107, 2.4021005630493164, 
344, 1146372390, 0.94451535, -0.21868584, -0.23069137, -0.082757786, 4.568490505218506, -4.121679782867432, 7.907028675079346, 6.026464462280273, -2.878221273422241, 2.4895803928375244, 
345, 1146389057, 0.9445248, -0.21864448, -0.23075292, -0.08258797, 4.593613147735596, -4.076444625854492, 7.943027019500732, 6.300621509552002, -2.84018611907959, 2.495983123779297, 
346, 1146405724, 0.944498, -0.218731, -0.23080166, -0.08252975, 4.611644268035889, -4.021132469177246, 7.927556037902832, 5.777252197265625, -3.1594226360321045, 2.9071569442749023, 
347, 1146422391, 0.9444724, -0.21884738, -0.23084858, -0.082382366, 4.590437889099121, -4.069459915161133, 7.910934925079346, 5.60728645324707, -3.2041678428649902, 3.3474905490875244, 
348, 1146439058, 0.944438, -0.21899036, -0.23090172, -0.08224655, 4.609488010406494, -4.089295864105225, 7.93877649307251, 5.6374969482421875, -3.4425716400146484, 3.697488307952881, 
349, 1146455725, 0.94440943, -0.21912512, -0.23096447, -0.08203939, 4.5898613929748535, -4.1418890953063965, 7.886885643005371, 5.611640930175781, -3.4363856315612793, 3.7946627140045166, 
350, 1146472392, 0.9443847, -0.21920481, -0.2310352, -0.08191252, 4.558733940124512, -4.193671226501465, 7.882164478302002, 5.990644931793213, -3.443147897720337, 3.4148776531219482, 
351, 1146489059, 0.9443808, -0.21921372, -0.23110858, -0.081726536, 4.597908020019531, -4.121075630187988, 7.898114204406738, 6.182765960693359, -3.1623940467834473, 3.027895450592041, 
352, 1146505726, 0.9443814, -0.21921468, -0.23114939, -0.08160201, 4.579514980316162, -4.102095603942871, 7.929125785827637, 6.3790998458862305, -3.0492372512817383, 3.1023130416870117, 
353, 1146522393, 0.9443645, -0.2192585, -0.23110993, -0.08179116, 4.573146820068359, -4.060853958129883, 7.932512283325195, 6.539435386657715, -2.917562246322632, 2.958869218826294, 
354, 1146539060, 0.9443409, -0.21937774, -0.23113796, -0.08166461, 4.583025932312012, -3.9615020751953125, 7.918611526489258, 5.534892559051514, -3.051644802093506, 3.2641470432281494, 
355, 1146555727, 0.9442205, -0.21986431, -0.23121229, -0.08153805, 4.55115270614624, -3.8263933658599854, 8.05688762664795, 3.156663417816162, -3.81988525390625, 3.9505674839019775, 
356, 1146572394, 0.94394815, -0.22093296, -0.23137297, -0.08134733, 4.605010509490967, -3.9055747985839844, 8.007847785949707, -0.6455745100975037, -5.1048479080200195, 5.18776273727417, 
357, 1146589061, 0.9436415, -0.22218423, -0.23152082, -0.081074774, 4.64409065246582, -3.9978830814361572, 7.916776657104492, -1.7749927043914795, -5.303591728210449, 5.998624324798584, 
358, 1146605728, 0.9433182, -0.2235497, -0.23164606, -0.080726154, 4.621514797210693, -4.128889083862305, 7.871304512023926, -2.5785787105560303, -5.256567001342773, 6.462034225463867, 
359, 1146622395, 0.94301647, -0.22483681, -0.2317609, -0.0803466, 4.607235431671143, -4.276158809661865, 7.822903156280518, -2.2854535579681396, -4.930643558502197, 6.078752517700195, 
360, 1146639062, 0.94277936, -0.22596553, -0.23174755, -0.079999484, 4.637567043304443, -4.166411876678467, 7.786756992340088, -1.2486127614974976, -3.887540578842163, 5.903868198394775, 
361, 1146655729, 0.9425138, -0.22723603, -0.23166478, -0.07976986, 4.640276908874512, -4.201921463012695, 7.893622875213623, -1.9480702877044678, -3.7901744842529297, 6.283795356750488, 
362, 1146672396, 0.94222045, -0.22854482, -0.23166761, -0.07948869, 4.677116870880127, -4.23729133605957, 7.897230625152588, -2.372716188430786, -4.283347129821777, 6.09572172164917, 
363, 1146689063, 0.9418973, -0.22993688, -0.23171154, -0.07917392, 4.624155521392822, -4.258501052856445, 7.914178371429443, -2.8857767581939697, -4.703804969787598, 6.3657941818237305, 
364, 1146705730, 0.9414973, -0.23152988, -0.23184128, -0.078908294, 4.611094951629639, -4.250303268432617, 7.927604675292969, -4.138238430023193, -5.594051361083984, 6.529792308807373, 
365, 1146722397, 0.94104034, -0.23321944, -0.23208961, -0.0786515, 4.572061061859131, -4.4160847663879395, 7.843203067779541, -4.879598617553711, -6.437991142272949, 6.284552097320557, 
366, 1146739064, 0.9405326, -0.23504508, -0.2324115, -0.07834029, 4.639050483703613, -4.182713985443115, 7.895503997802734, -6.035654067993164, -6.893129348754883, 6.170063495635986, 
367, 1146755731, 0.9399329, -0.23711437, -0.23284216, -0.07802422, 4.566826343536377, -4.433115482330322, 7.841427326202393, -7.636897563934326, -7.944198131561279, 6.465442657470703, 
368, 1146772398, 0.9393252, -0.23913756, -0.23332003, -0.077736884, 4.652560234069824, -4.48958683013916, 7.717123985290527, -7.407882213592529, -8.175405502319336, 6.062349796295166, 
369, 1146789065, 0.9387114, -0.24114454, -0.23366648, -0.07791259, 4.675887107849121, -4.465648651123047, 7.711262226104736, -6.720948219299316, -7.794145584106445, 5.548430442810059, 
370, 1146805732, 0.938041, -0.24339215, -0.23407996, -0.0777581, 4.738493919372559, -4.325711250305176, 7.763239860534668, -9.017590522766113, -7.941113471984863, 5.934146404266357, 
371, 1146822399, 0.937351, -0.24577007, -0.23442309, -0.07756454, 4.716620922088623, -4.521825313568115, 7.63407564163208, -9.80331039428711, -7.723533630371094, 6.605851650238037, 
372, 1146839066, 0.9367477, -0.2479229, -0.23462695, -0.077383794, 4.67470121383667, -4.707701683044434, 7.490462303161621, -8.286088943481445, -6.566324710845947, 6.461984634399414, 
373, 1146855733, 0.9362272, -0.24985223, -0.23469765, -0.077264555, 4.7245965003967285, -4.559809684753418, 7.563260078430176, -6.781342029571533, -5.4402995109558105, 6.11867094039917, 
374, 1146872400, 0.9357367, -0.2517152, -0.23473997, -0.0770279, 4.660941123962402, -4.641398906707764, 7.566494941711426, -6.433330059051514, -5.111995697021484, 6.342743873596191, 
375, 1146889067, 0.9352842, -0.2534456, -0.23481575, -0.07662089, 4.665899753570557, -4.648565292358398, 7.572064399719238, -5.724139213562012, -5.045683860778809, 6.3854780197143555, 
376, 1146905734, 0.9348176, -0.2552063, -0.2348371, -0.07640292, 4.633006572723389, -4.645916938781738, 7.567178249359131, -5.561748504638672, -5.064874172210693, 6.450067043304443, 
377, 1146922401, 0.9342968, -0.25719076, -0.23483676, -0.07612216, 4.716057777404785, -4.570456504821777, 7.602262020111084, -7.1463494300842285, -5.1238932609558105, 7.004191875457764, 
378, 1146939068, 0.9337658, -0.25925264, -0.2347282, -0.07597682, 4.60215425491333, -4.867243766784668, 7.471043109893799, -7.609401226043701, -4.5659332275390625, 6.9734954833984375, 
379, 1146955735, 0.93332356, -0.26097354, -0.23463641, -0.07580058, 4.638121604919434, -4.89341926574707, 7.413086891174316, -5.664731025695801, -3.9862658977508545, 5.900873184204102, 
380, 1146972402, 0.9329229, -0.2625072, -0.23457868, -0.07561596, 4.635970115661621, -4.816407203674316, 7.496794700622559, -4.330845832824707, -4.083939552307129, 5.652608394622803, 
381, 1146989069, 0.93245405, -0.2640547, -0.23471309, -0.07559404, 4.518814563751221, -4.933659553527832, 7.5304975509643555, -4.322893142700195, -5.511821269989014, 4.8538498878479, 
382, 1147005736, 0.9319359, -0.26561564, -0.23499773, -0.075630695, 4.67221736907959, -4.870971202850342, 7.463427543640137, -4.548092842102051, -6.4342122077941895, 4.1421122550964355, 
383, 1147022403, 0.9314404, -0.26704487, -0.23533343, -0.07565864, 4.626307010650635, -4.9503278732299805, 7.3900556564331055, -3.8342416286468506, -6.473823547363281, 3.569925308227539, 
384, 1147039070, 0.93098295, -0.2682976, -0.23570691, -0.07569478, 4.657619953155518, -4.887121200561523, 7.409068584442139, -2.533179759979248, -6.641777515411377, 3.324695348739624, 
385, 1147055737, 0.9305429, -0.26930863, -0.23623975, -0.07585454, 4.568882942199707, -5.200531482696533, 7.2943878173828125, -0.8947606086730957, -7.451971054077148, 2.1313741207122803, 
386, 1147072404, 0.93026054, -0.26967475, -0.23685297, -0.07610398, 4.656899929046631, -5.160289764404297, 7.233964443206787, 3.0461575984954834, -6.8451433181762695, -0.15365703403949738, 
387, 1147089071, 0.9301776, -0.26926544, -0.2374055, -0.07684237, 4.613022804260254, -5.4248151779174805, 7.118985652923584, 8.43947696685791, -5.664422988891602, -2.961527109146118, 
388, 1147105738, 0.9304004, -0.2678262, -0.23790908, -0.07761395, 4.659789085388184, -5.3144307136535645, 7.1186676025390625, 14.911203384399414, -3.6460416316986084, -5.549105644226074, 
389, 1147122405, 0.930661, -0.2662725, -0.23827067, -0.07871613, 4.783627510070801, -4.787873268127441, 7.361298561096191, 15.585281372070312, -2.4402718544006348, -6.834148406982422, 
390, 1147139072, 0.93086797, -0.26494738, -0.2385672, -0.079834126, 4.844983100891113, -4.717909812927246, 7.439512729644775, 13.800786018371582, -2.0361790657043457, -6.710257053375244, 
391, 1147155739, 0.931047, -0.26387745, -0.2388009, -0.08058672, 4.885955810546875, -4.533108234405518, 7.530873775482178, 11.946587562561035, -1.7941385507583618, -4.974084854125977, 
392, 1147172406, 0.93111503, -0.26321724, -0.2389846, -0.0814138, 4.871062755584717, -4.558555603027344, 7.531516075134277, 9.820080757141113, -2.524792194366455, -3.4248743057250977, 
393, 1147189073, 0.9310874, -0.26292348, -0.23922804, -0.08196082, 4.748480319976807, -4.614072322845459, 7.546071529388428, 7.12436580657959, -3.1622402667999268, -2.2113685607910156, 
394, 1147205740, 0.9309486, -0.2629294, -0.23951598, -0.08267356, 4.796416759490967, -4.621325492858887, 7.489562034606934, 4.9210710525512695, -3.6514811515808105, -2.661268711090088, 
395, 1147222407, 0.93076915, -0.26306987, -0.23985206, -0.08327123, 4.82149076461792, -4.65769624710083, 7.4710373878479, 4.220947742462158, -4.319793701171875, -1.773327350616455, 
396, 1147239074, 0.9305725, -0.26330113, -0.24016684, -0.0838286, 4.842798233032227, -4.648044109344482, 7.4259352684021, 3.9087414741516113, -4.560245513916016, -0.9590100049972534, 
397, 1147255741, 0.9302963, -0.26378724, -0.24052681, -0.08433315, 4.7961578369140625, -4.759528160095215, 7.455645561218262, 2.026451349258423, -5.0229387283325195, -0.6575741171836853, 
398, 1147272408, 0.92993695, -0.26439923, -0.240991, -0.08505155, 4.8057379722595215, -4.8073506355285645, 7.418073654174805, 1.006604790687561, -5.715365409851074, -1.7062861919403076, 
399, 1147289075, 0.92955226, -0.26510042, -0.24143264, -0.08581773, 4.902747631072998, -4.730844974517822, 7.4084038734436035, 0.3273175060749054, -5.606473445892334, -1.8036271333694458, 
400, 1147305742, 0.929173, -0.26582432, -0.24187325, -0.08644216, 4.8508830070495605, -4.725807189941406, 7.40696382522583, 0.1598488688468933, -5.624453544616699, -1.2645055055618286, 
401, 1147322409, 0.92877376, -0.26658195, -0.24232782, -0.08712557, 4.870758056640625, -4.831259250640869, 7.36397647857666, -0.08483567833900452, -5.741669654846191, -1.470085859298706, 
402, 1147339076, 0.92829126, -0.26750323, -0.24286738, -0.08793791, 4.852550029754639, -4.774811744689941, 7.4278059005737305, -1.3405113220214844, -6.377531051635742, -2.071945905685425, 
403, 1147355743, 0.92770165, -0.2686114, -0.24363817, -0.08864597, 4.883278846740723, -4.748077869415283, 7.433659076690674, -3.120108127593994, -7.704064846038818, -2.6405487060546875, 
404, 1147372410, 0.9270089, -0.2699725, -0.24447317, -0.08945658, 4.906061172485352, -4.736590385437012, 7.409864902496338, -4.4776458740234375, -8.774459838867188, -2.196065664291382, 
405, 1147389077, 0.9262551, -0.27142102, -0.24547121, -0.090143904, 4.965070724487305, -4.829835414886475, 7.362358570098877, -4.767351150512695, -10.26368522644043, -1.5026272535324097, 
406, 1147405744, 0.9253734, -0.27304038, -0.2467271, -0.09087786, 4.853112697601318, -4.972082138061523, 7.38948917388916, -5.853370189666748, -12.284543991088867, -1.856557011604309, 
407, 1147422411, 0.92434967, -0.2746944, -0.24841702, -0.09170374, 4.881930351257324, -5.054893970489502, 7.387929916381836, -6.529983043670654, -14.862032890319824, -3.7479546070098877, 
408, 1147439078, 0.9230809, -0.2766277, -0.25047603, -0.09306159, 4.8345947265625, -5.415342807769775, 7.233320713043213, -9.442014694213867, -16.79371452331543, -7.526322364807129, 
409, 1147455745, 0.9216038, -0.27848727, -0.25328395, -0.09454441, 5.293436527252197, -5.072070121765137, 7.2544989585876465, -9.803980827331543, -20.99053192138672, -11.034635543823242, 
410, 1147472412, 0.92000157, -0.28038767, -0.25636923, -0.09620185, 4.769425392150879, -4.83420991897583, 7.390440940856934, -9.611801147460938, -23.358901977539062, -11.574056625366211, 
411, 1147489079, 0.9180557, -0.2827766, -0.25995457, -0.09815721, 5.134507656097412, -4.813223361968994, 7.356518268585205, -13.407293319702148, -27.004486083984375, -13.622068405151367, 
412, 1147505746, 0.9158851, -0.2855482, -0.26371408, -0.10035751, 5.1428022384643555, -4.948167324066162, 7.268280982971191, -16.741426467895508, -28.140588760375977, -15.235136985778809, 
413, 1147522413, 0.91353625, -0.28813747, -0.26807162, -0.10279012, 4.951075553894043, -5.3186936378479, 7.231541156768799, -15.881166458129883, -31.692026138305664, -18.267822265625, 
414, 1147539080, 0.9109795, -0.29009506, -0.27352545, -0.10557022, 5.069847583770752, -5.403373718261719, 7.202164649963379, -12.756443977355957, -37.33529281616211, -24.710546493530273, 
415, 1147555747, 0.9080516, -0.2917369, -0.28014454, -0.10886313, 5.205010890960693, -5.275073051452637, 7.314023971557617, -11.978107452392578, -43.78705596923828, -31.579397201538086, 
416, 1147572414, 0.90454334, -0.29355657, -0.28787953, -0.11292225, 5.309086799621582, -5.184076309204102, 7.427163124084473, -13.646079063415527, -51.443748474121094, -37.27245330810547, 
417, 1147589081, 0.900314, -0.2955952, -0.29716024, -0.11727742, 5.38456392288208, -5.305891990661621, 7.456320285797119, -16.671186447143555, -61.38730239868164, -43.389259338378906, 
418, 1147605748, 0.8950728, -0.29800826, -0.30826238, -0.12251597, 5.563204288482666, -5.347268104553223, 7.518411159515381, -20.37105369567871, -73.95637512207031, -51.61955642700195, 
419, 1147622415, 0.8883706, -0.3016899, -0.3214106, -0.1283611, 5.793341636657715, -5.2542724609375, 7.540791988372803, -33.90131378173828, -87.19654846191406, -61.37629318237305, 
420, 1147639082, 0.8800211, -0.30692974, -0.33570677, -0.1365953, 5.9891252517700195, -5.492712497711182, 7.222204685211182, -44.707672119140625, -98.58810424804688, -70.34732055664062, 
421, 1147655749, 0.87094957, -0.31168973, -0.35157993, -0.1438332, 6.456023693084717, -5.293752193450928, 7.154505252838135, -50.04362106323242, -104.63197326660156, -78.7961196899414, 
422, 1147672416, 0.8609729, -0.3178374, -0.3668383, -0.1521016, 7.102569580078125, -4.851346492767334, 7.215428352355957, -59.04423904418945, -105.0963134765625, -77.44695281982422, 
423, 1147689083, 0.8508846, -0.324356, -0.3804831, -0.16131122, 7.507826805114746, -7.00251579284668, 6.647022724151611, -65.4613265991211, -94.23980712890625, -78.57801818847656, 
424, 1147705750, 0.8414796, -0.32823205, -0.39334038, -0.17163752, 7.695180892944336, -8.307909965515137, 6.161688804626465, -54.840789794921875, -81.04617309570312, -91.21855163574219, 
425, 1147722417, 0.833149, -0.33039957, -0.40325615, -0.18461728, 7.679094314575195, -7.537107467651367, 6.6269965171813965, -46.282535552978516, -56.72072982788086, -98.99113464355469, 
426, 1147739084, 0.8272993, -0.32968327, -0.40926558, -0.19846009, 6.565248966217041, -6.893013000488281, 8.436371803283691, -36.51477813720703, -19.295114517211914, -103.08143615722656, 
427, 1147755751, 0.82474804, -0.32526335, -0.40946764, -0.21524586, 4.919093608856201, -6.6076273918151855, 9.186144828796387, -23.78911590576172, 34.48883056640625, -112.40487670898438, 
428, 1147772418, 0.8248625, -0.3186259, -0.40430534, -0.23370232, 2.0836801528930664, -5.819795608520508, 8.293457984924316, -17.1805362701416, 79.03643798828125, -111.82679748535156, 
429, 1147789085, 0.82687724, -0.30961284, -0.39700583, -0.25060037, 1.005456566810608, -7.399082183837891, 6.94145393371582, 1.4253368377685547, 96.7333984375, -101.88584899902344, 
430, 1147805752, 0.83069545, -0.29886132, -0.3894424, -0.26260552, 0.9397915005683899, -7.465174198150635, 6.103654861450195, 28.10158348083496, 95.65189361572266, -75.22917175292969, 
431, 1147822419, 0.8354141, -0.29053605, -0.38117954, -0.26902494, 0.19119137525558472, -5.888912200927734, 5.326186656951904, 29.86278533935547, 86.1148910522461, -33.83858108520508, 
432, 1147839086, 0.8406203, -0.28536984, -0.37332237, -0.26935524, 1.0839834213256836, -6.792355060577393, 4.946990489959717, 29.449703216552734, 66.97305297851562, 9.451997756958008, 
433, 1147855753, 0.84643483, -0.28321433, -0.36563766, -0.26390746, 2.048860788345337, -5.946426868438721, 5.22632360458374, 28.446086883544922, 50.552734375, 51.30069351196289, 
434, 1147872420, 0.8526655, -0.28357884, -0.35768872, -0.25417155, 3.5631940364837646, -5.622686386108398, 5.623509883880615, 24.921754837036133, 40.143455505371094, 83.81594848632812, 
435, 1147889087, 0.8593194, -0.28495836, -0.34904066, -0.2419499, 4.98530387878418, -4.983030796051025, 6.215550899505615, 24.703054428100586, 38.59869384765625, 102.95635986328125, 
436, 1147905754, 0.866111, -0.28678316, -0.33913264, -0.22933882, 6.040773391723633, -4.264889240264893, 6.668740272521973, 21.182024002075195, 44.81587600708008, 109.01285552978516, 
437, 1147922421, 0.8727353, -0.28831518, -0.32809427, -0.21808699, 6.73228120803833, -3.887026071548462, 6.724669456481934, 17.633947372436523, 54.25616455078125, 102.20897674560547, 
438, 1147939088, 0.8789321, -0.28924602, -0.31631443, -0.20919, 7.198875904083252, -3.8326406478881836, 6.559001445770264, 13.959676742553711, 63.282630920410156, 87.57154846191406, 
439, 1147955755, 0.8845516, -0.28912726, -0.3048053, -0.20265265, 7.474265098571777, -4.131704330444336, 5.897809028625488, 14.40640926361084, 66.58076477050781, 69.68955993652344, 
440, 1147972422, 0.88928944, -0.2872368, -0.29552293, -0.19830638, 7.1789631843566895, -4.400699138641357, 4.960990905761719, 21.946109771728516, 58.020668029785156, 47.02698516845703, 
441, 1147989089, 0.8928991, -0.28293502, -0.29024863, -0.1960475, 7.1020121574401855, -4.563859462738037, 4.437422275543213, 35.702537536621094, 38.65132141113281, 19.938234329223633, 
442, 1148005756, 0.89514595, -0.2769277, -0.28946546, -0.19553705, 7.362212181091309, -3.993680715560913, 4.148024559020996, 46.108516693115234, 14.088330268859863, -4.748115539550781, 
443, 1148022423, 0.8956024, -0.27085745, -0.29259574, -0.1972826, 8.463619232177734, -2.83083438873291, 4.397926330566406, 43.87558364868164, -9.13999080657959, -28.587574005126953, 
444, 1148039090, 0.8947591, -0.26650453, -0.29682437, -0.2006912, 9.512706756591797, -3.9053142070770264, 5.1590166091918945, 29.024837493896484, -17.693206787109375, -39.140804290771484, 
445, 1148055757, 0.8941854, -0.2588842, -0.30287573, -0.20415173, 8.376544952392578, -2.3284268379211426, 4.656240940093994, 52.03668212890625, -23.690473556518555, -49.06759262084961, 
446, 1148072424, 0.8909584, -0.25652885, -0.31202826, -0.2074239, 7.282390117645264, -0.014543015509843826, 3.7821929454803467, 19.67879867553711, -55.95114517211914, -46.15696334838867, 
447, 1148089091, 0.88544846, -0.260199, -0.32321137, -0.20931315, 8.41383171081543, -1.76066255569458, 3.6028988361358643, -15.43775749206543, -84.26409149169922, -31.558637619018555, 
448, 1148105758, 0.87938756, -0.2664992, -0.33491388, -0.20853965, 10.027573585510254, -3.395699977874756, 3.726898670196533, -25.79881477355957, -97.12930297851562, -11.20758056640625, 
449, 1148122425, 0.8736691, -0.27372122, -0.3458981, -0.20526479, 10.249590873718262, -2.793341636657715, 3.7176270484924316, -26.029752731323242, -97.82268524169922, 7.850218296051025, 
450, 1148139092, 0.868181, -0.2803105, -0.35697803, -0.20063622, 9.007682800292969, -2.703394651412964, 2.9000017642974854, -18.464887619018555, -99.43192291259766, 14.635347366333008, 
451, 1148155759, 0.86219126, -0.28562742, -0.36977986, -0.19571988, 8.420801162719727, -1.4201905727386475, 2.8096697330474854, -8.777887344360352, -109.68025970458984, 9.22796630859375, 
452, 1148172426, 0.855011, -0.2921899, -0.38350376, -0.19106612, 8.695972442626953, -0.34473666548728943, 2.877837657928467, -17.96397590637207, -119.28175354003906, 7.448455333709717, 
453, 1148189093, 0.8467284, -0.30186716, -0.39649385, -0.18633258, 9.398259162902832, -0.45969435572624207, 3.347825527191162, -39.29214859008789, -122.07572937011719, 16.193981170654297, 
454, 1148205760, 0.83867794, -0.31305593, -0.4071143, -0.18130992, 10.240612030029297, -1.7380638122558594, 3.7287068367004395, -49.90459060668945, -110.13480377197266, 27.25571060180664, 
455, 1148222427, 0.83249724, -0.3229031, -0.41444948, -0.17582294, 11.032910346984863, -2.8901267051696777, 4.103976726531982, -40.9734001159668, -85.23921203613281, 35.61620330810547, 
456, 1148239094, 0.8292184, -0.330036, -0.417747, -0.17017922, 10.747456550598145, -2.6801249980926514, 4.278359889984131, -23.451208114624023, -50.89104080200195, 41.28365707397461, 
457, 1148255761, 0.8281917, -0.33518684, -0.41775823, -0.16500475, 9.711820602416992, -1.6061309576034546, 4.089594841003418, -12.25089168548584, -22.28004264831543, 43.046356201171875, 
458, 1148272428, 0.8281154, -0.3393946, -0.41586483, -0.16153178, 8.83215045928955, -0.8469086289405823, 3.77654767036438, -11.760502815246582, -3.6997218132019043, 36.16712951660156, 
459, 1148289095, 0.8278402, -0.34363395, -0.4133539, -0.16042094, 8.162701606750488, -0.7355603575706482, 3.307861328125, -19.866382598876953, 4.736810207366943, 24.08711814880371, 
460, 1148305762, 0.82692343, -0.34802014, -0.4111694, -0.16130531, 7.840036869049072, -1.30848228931427, 2.9806032180786133, -27.548633575439453, 5.622998237609863, 11.724974632263184, 
461, 1148322429, 0.8255779, -0.35212547, -0.40962347, -0.16321054, 8.053337097167969, -2.1974215507507324, 2.9088852405548096, -29.169597625732422, 3.5546371936798096, 3.169459342956543, 
462, 1148339096, 0.82429606, -0.35574943, -0.40835178, -0.16500825, 8.313419342041016, -2.867506265640259, 2.8792929649353027, -25.67938232421875, 2.477560520172119, 1.8683611154556274, 
463, 1148355763, 0.82321733, -0.35913035, -0.40713024, -0.1660832, 8.310328483581543, -2.886836528778076, 2.8200485706329346, -21.72285270690918, 1.2923805713653564, 5.419515609741211, 
464, 1148372430, 0.82243854, -0.3618536, -0.4061245, -0.1664923, 8.193960189819336, -2.833228588104248, 3.0195634365081787, -15.151873588562012, 0.038118138909339905, 7.186118125915527, 
465, 1148389097, 0.8221288, -0.36368898, -0.4050739, -0.16658336, 8.301944732666016, -2.4931814670562744, 3.3449957370758057, -8.133162498474121, 1.8426486253738403, 7.183833599090576, 
466, 1148405764, 0.82207525, -0.3651498, -0.40370235, -0.16698088, 8.433005332946777, -2.5133402347564697, 3.2388219833374023, -6.607188701629639, 5.576334476470947, 5.538543224334717, 
467, 1148422431, 0.82242006, -0.3651776, -0.40257683, -0.16793579, 8.651468276977539, -3.1473090648651123, 3.0198163986206055, 1.2192480564117432, 8.34912109375, -1.714027762413025, 
468, 1148439098, 0.82326055, -0.36378798, -0.4014326, -0.16956529, 8.475961685180664, -2.547703742980957, 2.5695414543151855, 8.588043212890625, 13.175461769104004, -8.803887367248535, 
469, 1148455765, 0.8229259, -0.3640286, -0.40078694, -0.17218049, 7.407021999359131, -1.3213818073272705, 1.8868736028671265, -5.722496509552002, 7.697666645050049, -12.467171669006348, 
470, 1148472432, 0.8195743, -0.3674333, -0.40313506, -0.17542285, 7.747840404510498, -1.5047696828842163, 1.007012128829956, -29.367921829223633, -19.705284118652344, -18.320037841796875, 
471, 1148489099, 0.8189185, -0.36462465, -0.40882277, -0.17113017, 10.805097579956055, -13.11642837524414, -0.5444657206535339, 37.368473052978516, -42.55649948120117, 1.7687883377075195, 
472, 1148505766, 0.8290177, -0.35200095, -0.402749, -0.16315101, 20.74530601501465, 0.9163395762443542, 5.28343391418457, 116.21102905273438, 56.268550872802734, 36.98897933959961, 
473, 1148522433, 0.83698666, -0.35263863, -0.38534778, -0.16311494, 6.860041618347168, -1.7959429025650024, 1.6323881149291992, 0.7236472368240356, 119.35000610351562, 53.62443923950195, 
474, 1148539100, 0.85204655, -0.33892086, -0.36457762, -0.16196503, 17.78104019165039, -13.394829750061035, 9.781890869140625, 99.71732330322266, 170.9588165283203, 38.15683364868164, 
475, 1148555767, 0.86795866, -0.32332438, -0.34204686, -0.15847224, 1.5018316507339478, -12.558816909790039, 7.817320823669434, 116.6624755859375, 180.0564422607422, 52.20402145385742, 
476, 1148572434, 0.8802544, -0.31001836, -0.32233474, -0.15855934, 7.889449119567871, -5.5580973625183105, 6.750846862792969, 89.6524658203125, 160.0934600830078, 25.894424438476562, 
477, 1148589101, 0.8881425, -0.3032406, -0.30238742, -0.16676413, 7.160086154937744, -3.0438082218170166, 7.317564964294434, 22.50092887878418, 161.92364501953125, -13.06386947631836, 
478, 1148605768, 0.8954106, -0.29735857, -0.2824057, -0.17339283, 6.00395393371582, -4.868602752685547, 7.976055145263672, 18.956960678100586, 156.52310180664062, -2.1822397708892822, 
479, 1148622435, 0.9026324, -0.28965825, -0.26454058, -0.17711988, 4.977703094482422, -2.2371983528137207, 9.292475700378418, 38.2101936340332, 139.61318969726562, 7.777218818664551, 
480, 1148639102, 0.90977913, -0.28221205, -0.24813436, -0.17631751, 5.872718811035156, -1.0249769687652588, 9.126093864440918, 46.4617919921875, 121.0526351928711, 33.37621307373047, 
481, 1148655769, 0.91659856, -0.27533385, -0.23230024, -0.17342146, 4.37163782119751, -5.16136360168457, 7.881946563720703, 46.49253845214844, 112.14216613769531, 45.97104263305664, 
482, 1148672436, 0.92220545, -0.26769876, -0.21935922, -0.1724995, 4.57664680480957, -7.326152801513672, 8.117230415344238, 49.27043914794922, 96.5898208618164, 25.389352798461914, 
483, 1148689103, 0.9259245, -0.2596842, -0.2112406, -0.174944, 3.8105101585388184, -5.494306564331055, 9.357367515563965, 48.8740119934082, 69.79443359375, -7.66749382019043, 
484, 1148705770, 0.9280076, -0.25385743, -0.20695312, -0.17756411, 4.151650905609131, -2.957519054412842, 9.531501770019531, 36.3802604675293, 40.68333435058594, -14.428954124450684, 
485, 1148722437, 0.9290847, -0.25118843, -0.20497493, -0.17802085, 4.197879791259766, -2.0476396083831787, 9.53658676147461, 20.347740173339844, 16.864852905273438, -1.3856313228607178, 
486, 1148739104, 0.9293809, -0.25104234, -0.20427309, -0.1774872, 4.588798522949219, -3.3138062953948975, 8.564952850341797, 5.806091785430908, 2.7944226264953613, 5.346434116363525, 
487, 1148755771, 0.92957413, -0.2509241, -0.20381746, -0.17716578, 5.032650947570801, -4.7689080238342285, 7.529111385345459, 5.439062595367432, 1.4017703533172607, 3.48341703414917, 
488, 1148772438, 0.93009883, -0.24950725, -0.20297146, -0.17738466, 5.192068099975586, -4.671621799468994, 7.396373271942139, 13.08789348602295, 6.880613327026367, -0.7150622606277466, 
489, 1148789105, 0.93085736, -0.24719702, -0.20184691, -0.17792188, 4.950154781341553, -4.244647979736328, 7.638086318969727, 18.427997589111328, 10.632067680358887, -3.237072706222534, 
490, 1148805772, 0.93163455, -0.24457723, -0.20100172, -0.17843135, 4.451396465301514, -3.895993232727051, 8.028143882751465, 20.825122833251953, 9.205516815185547, -3.9417312145233154, 
491, 1148822439, 0.93211645, -0.24271986, -0.20069769, -0.17879196, 4.254236221313477, -3.391650915145874, 8.307427406311035, 16.311450958251953, 4.142576694488525, -3.20691180229187, 
492, 1148839106, 0.9324358, -0.2416132, -0.2007443, -0.17857364, 4.595534801483154, -3.1538844108581543, 8.222973823547363, 12.449864387512207, -0.22600015997886658, 0.7564842104911804, 
493, 1148855773, 0.93250215, -0.24150363, -0.20092258, -0.17817353, 4.593050956726074, -3.2675302028656006, 8.238219261169434, 6.039295673370361, -2.948143720626831, 2.772639036178589, 
494, 1148872440, 0.93237334, -0.24220774, -0.20111537, -0.17767376, 4.75782585144043, -3.2684848308563232, 8.082079887390137, 0.6453568339347839, -4.475602149963379, 4.275969982147217, 
495, 1148889107, 0.93203324, -0.24389438, -0.20125791, -0.17698808, 4.512908458709717, -3.3595762252807617, 8.28186321258545, -5.818765640258789, -5.955319404602051, 6.656627178192139, 
496, 1148905774, 0.9314933, -0.24623646, -0.20165017, -0.17613941, 4.670858860015869, -3.558786630630493, 8.073892593383789, -9.831910133361816, -8.907649040222168, 7.949739933013916, 
497, 1148922441, 0.93074137, -0.2496051, -0.20196551, -0.17500849, 4.637178421020508, -3.2874205112457275, 8.212940216064453, -16.47368812561035, -10.430898666381836, 11.05726432800293, 
498, 1148939108, 0.92973804, -0.25419116, -0.20224184, -0.17341413, 4.9746479988098145, -3.7012240886688232, 8.058920860290527, -24.108182907104492, -12.792978286743164, 15.482095718383789, 
499, 1148955775, 0.92875564, -0.25865486, -0.20244527, -0.17183359, 4.615792751312256, -4.6549272537231445, 7.619690895080566, -23.40127944946289, -12.126571655273438, 15.38046646118164, 
500, 1148972442, 0.92804086, -0.2616426, -0.2028025, -0.17074673, 4.709991455078125, -4.817660808563232, 7.507557392120361, -13.999414443969727, -10.114282608032227, 10.211386680603027, 
501, 1148989109, 0.9275614, -0.2634965, -0.2032025, -0.17002445, 4.773295879364014, -4.8423895835876465, 7.459307670593262, -6.792741298675537, -8.07100772857666, 6.499929904937744, 
502, 1149005776, 0.92742896, -0.26356807, -0.20383939, -0.16987315, 4.721764087677002, -4.996575355529785, 7.45742654800415, 4.690121650695801, -5.976461410522461, 0.34125083684921265, 
503, 1149022443, 0.92759347, -0.2622573, -0.20455769, -0.17014034, 4.819889545440674, -4.80044412612915, 7.496220588684082, 13.558206558227539, -3.704015016555786, -4.071352481842041, 
504, 1149039110, 0.9279282, -0.26026884, -0.20516114, -0.17064092, 4.8984174728393555, -4.200292587280273, 7.703613758087158, 17.731489181518555, -1.517291784286499, -6.110986232757568, 
505, 1149055777, 0.9281876, -0.2584995, -0.20589559, -0.17103393, 4.752485275268555, -4.057530403137207, 7.9422454833984375, 16.502525329589844, -2.906986713409424, -5.43790864944458, 
506, 1149072444, 0.9283535, -0.2569529, -0.20683251, -0.1713348, 4.799575328826904, -3.8623909950256348, 7.9939165115356445, 15.28010368347168, -4.758825302124023, -5.002479076385498, 
507, 1149089111, 0.92834526, -0.25603706, -0.20789036, -0.17146952, 4.741715908050537, -3.855043888092041, 7.982996463775635, 11.320577621459961, -6.815563201904297, -3.462743043899536, 
508, 1149105778, 0.92813647, -0.2557694, -0.20912562, -0.1714969, 4.886787414550781, -3.642328977584839, 7.986919403076172, 7.186722755432129, -9.188950538635254, -2.3987138271331787, 
509, 1149122445, 0.92772657, -0.25635, -0.21043026, -0.1712521, 4.840739727020264, -3.48810076713562, 8.028093338012695, 1.8870933055877686, -11.400467872619629, 0.20305757224559784, 
510, 1149139112, 0.92712224, -0.2578194, -0.21176949, -0.17066762, 4.976198673248291, -3.4985461235046387, 7.940962791442871, -3.6010520458221436, -13.54914665222168, 3.368520498275757, 
511, 1149155779, 0.92634815, -0.26022956, -0.21290047, -0.16980396, 4.962460041046143, -3.515026330947876, 8.012431144714355, -9.744368553161621, -14.067015647888184, 6.692400932312012, 
512, 1149172446, 0.9251892, -0.26432934, -0.2139325, -0.16848798, 5.018983364105225, -3.506831407546997, 7.998920917510986, -20.656949996948242, -16.784183502197266, 11.780068397521973, 
513, 1149189113, 0.9237905, -0.26987433, -0.2144431, -0.16671348, 5.159873962402344, -3.5524187088012695, 7.848210334777832, -30.22385025024414, -16.32863426208496, 17.499927520751953, 
514, 1149205780, 0.9223534, -0.2759273, -0.21451895, -0.1646516, 5.123767375946045, -4.058210849761963, 7.6054558753967285, -33.604793548583984, -14.738836288452148, 20.84261703491211, 
515, 1149222447, 0.9210449, -0.28167763, -0.2142506, -0.16257599, 5.083027362823486, -4.575662136077881, 7.380556583404541, -31.813823699951172, -12.0486478805542, 21.286680221557617, 
516, 1149239114, 0.91988873, -0.2867592, -0.21375903, -0.16087598, 5.059826374053955, -4.866472244262695, 7.167961120605469, -28.084630966186523, -8.934395790100098, 18.526899337768555, 
517, 1149255781, 0.9189893, -0.29088366, -0.2130782, -0.15950923, 5.157014846801758, -4.839824199676514, 7.2244462966918945, -22.220651626586914, -5.642339706420898, 15.668911933898926, 
518, 1149272448, 0.9183093, -0.29452187, -0.21203399, -0.15813532, 4.963212013244629, -4.859753131866455, 7.167558193206787, -19.09527587890625, -2.5025136470794678, 15.970553398132324, 
519, 1149289115, 0.91770107, -0.29753816, -0.21118863, -0.15714817, 4.567178726196289, -5.280205249786377, 7.171871185302734, -15.368096351623535, -2.1917779445648193, 12.297506332397461, 
520, 1149305782, 0.9171722, -0.29968983, -0.21086773, -0.15657584, 4.619180202484131, -5.445084095001221, 7.140656471252441, -9.781719207763672, -3.605879783630371, 7.432219982147217, 
521, 1149322449, 0.9167118, -0.30128387, -0.21078044, -0.15633045, 5.058614253997803, -4.822930812835693, 7.226808071136475, -6.341635227203369, -3.707688331604004, 4.1493988037109375, 
522, 1149339116, 0.91630363, -0.30299234, -0.21049756, -0.15580155, 5.022977352142334, -4.548832416534424, 7.367356300354004, -6.754641056060791, -3.1079418659210205, 6.566188812255859, 
523, 1149355783, 0.9158292, -0.3049981, -0.21017268, -0.15511437, 4.876431941986084, -4.721226692199707, 7.355326175689697, -8.58570671081543, -3.587284564971924, 8.014472007751465, 
524, 1149372450, 0.91519946, -0.30718985, -0.21016301, -0.1545185, 4.676060676574707, -5.111749649047852, 7.3775200843811035, -9.88248062133789, -5.804436683654785, 6.884120941162109, 
525, 1149389117, 0.91438925, -0.30950078, -0.21057896, -0.15413685, 4.697492599487305, -5.195761203765869, 7.277122974395752, -10.871747970581055, -8.42048168182373, 4.615578651428223, 
526, 1149405784, 0.9134293, -0.31197888, -0.21125442, -0.15390834, 4.979523181915283, -4.802535533905029, 7.3736138343811035, -12.187155723571777, -10.121079444885254, 3.1812922954559326, 
527, 1149422451, 0.91221535, -0.3149541, -0.21207184, -0.15392517, 4.70520544052124, -5.2990193367004395, 7.249693870544434, -16.0648250579834, -11.382651329040527, 1.793160319328308, 
528, 1149439118, 0.9109181, -0.3178654, -0.21306081, -0.15425597, 4.860218524932861, -5.24567985534668, 7.086777210235596, -16.120969772338867, -11.834985733032227, -0.7310963869094849, 
529, 1149455785, 0.9095911, -0.32084426, -0.21383686, -0.15484463, 5.084178924560547, -4.996750831604004, 7.011785507202148, -17.213224411010742, -10.053568840026855, -1.8147838115692139, 
530, 1149472452, 0.9083514, -0.32375497, -0.21441978, -0.15525675, 5.174777984619141, -4.823757648468018, 6.97357177734375, -16.541873931884766, -9.033334732055664, -0.2884441912174225, 
531, 1149489119, 0.90707165, -0.3267865, -0.21509904, -0.15544863, 5.068636894226074, -4.859306335449219, 7.078125, -16.96246337890625, -10.311066627502441, 1.0130349397659302, 
532, 1149505786, 0.905678, -0.33007517, -0.21601377, -0.15535699, 4.828661918640137, -5.3072638511657715, 6.9552412033081055, -18.1551513671875, -12.861394882202148, 2.515709400177002, 
533, 1149522453, 0.9044903, -0.3325195, -0.21690881, -0.15581693, 5.006838798522949, -5.554005146026611, 6.461063861846924, -13.272252082824707, -10.279596328735352, -1.9083977937698364, 
534, 1149539120, 0.903611, -0.33417243, -0.21729979, -0.1568351, 5.216119289398193, -5.294687271118164, 6.38264274597168, -9.015911102294922, -4.559004783630371, -5.079762935638428, 
535, 1149555787, 0.90291697, -0.33535972, -0.21740721, -0.1581429, 5.013280868530273, -5.398797512054443, 6.649260520935059, -6.434162139892578, -1.348336100578308, -6.722023010253906, 
536, 1149572454, 0.90212077, -0.33632308, -0.21826167, -0.1594582, 4.9132304191589355, -5.458878993988037, 6.98464298248291, -4.477838039398193, -5.877713203430176, -8.93756103515625, 
537, 1149589121, 0.90100443, -0.33734953, -0.2204377, -0.16060497, 4.610734462738037, -5.631999969482422, 7.022810459136963, -3.909508228302002, -15.015584945678711, -11.203642845153809, 
538, 1149605788, 0.8995338, -0.33838055, -0.22406247, -0.16165812, 4.881045818328857, -5.6045308113098145, 7.058271408081055, -3.0201427936553955, -24.753910064697266, -14.375859260559082, 
539, 1149622455, 0.89776444, -0.33905983, -0.22910875, -0.1629927, 5.01995325088501, -5.887671947479248, 6.786527156829834, -0.3957310616970062, -32.964298248291016, -20.299936294555664, 
540, 1149639122, 0.8957114, -0.33934912, -0.23533328, -0.16480812, 5.142613887786865, -5.839010715484619, 6.690518856048584, 1.9136937856674194, -39.12820053100586, -26.953388214111328, 
541, 1149655789, 0.89360493, -0.33893818, -0.24230699, -0.1669693, 5.247246742248535, -5.676422595977783, 6.466828346252441, 6.392584323883057, -42.22898864746094, -32.02989196777344, 
542, 1149672456, 0.8916876, -0.33767575, -0.24940296, -0.16931212, 5.791796684265137, -5.510459899902344, 6.1812896728515625, 11.902259826660156, -41.26520919799805, -34.63762283325195, 
543, 1149689123, 0.8897131, -0.33591408, -0.2572112, -0.17150748, 5.69127082824707, -5.5735955238342285, 6.565550327301025, 15.914820671081543, -45.48646545410156, -36.31128692626953, 
544, 1149705790, 0.88731587, -0.33378857, -0.26663992, -0.17366397, 5.531026840209961, -5.67488956451416, 7.149021625518799, 19.143739700317383, -55.806236267089844, -40.96565246582031, 
545, 1149722457, 0.8837499, -0.33159956, -0.27922598, -0.17624058, 5.403646469116211, -5.848101615905762, 7.828205585479736, 19.843994140625, -76.18075561523438, -52.29440689086914, 
546, 1149739124, 0.87818676, -0.32982633, -0.29662228, -0.17893536, 5.0101637840271, -6.224292755126953, 8.650554656982422, 18.35904312133789, -109.49295043945312, -65.61810302734375, 
547, 1149755791, 0.86997247, -0.32847998, -0.31983367, -0.18153563, 4.792503356933594, -6.4292826652526855, 9.081131935119629, 17.104543685913086, -150.7848663330078, -80.65206909179688, 
548, 1149772458, 0.8590624, -0.32699168, -0.3481976, -0.18397492, 5.273197650909424, -5.720242023468018, 8.343847274780273, 18.635631561279297, -187.7683563232422, -95.03828430175781, 
549, 1149789125, 0.84476, -0.32625368, -0.38073137, -0.18703724, 5.384596347808838, -4.619743347167969, 8.074260711669922, 10.340500831604004, -220.11402893066406, -110.62104034423828, 
550, 1149805792, 0.82689875, -0.32566676, -0.4175333, -0.18932979, 4.103598594665527, -4.312336444854736, 7.104576110839844, 8.95840072631836, -256.2016296386719, -119.9310302734375, 
551, 1149822459, 0.8056059, -0.32328734, -0.45838568, -0.1907017, 6.587026596069336, -4.537726879119873, 5.314469337463379, 19.359012603759766, -288.88092041015625, -133.4154052734375, 
552, 1149839126, 0.7819015, -0.31775498, -0.5014502, -0.19028871, 6.896861553192139, -4.741432189941406, 3.921067714691162, 39.98094940185547, -308.6107482910156, -141.57041931152344, 
553, 1149855793, 0.7567109, -0.30850875, -0.5443768, -0.18938096, 9.3792724609375, -3.677823543548584, 2.327505588531494, 58.21778869628906, -309.238525390625, -153.38490295410156, 
554, 1149872460, 0.7334926, -0.29623768, -0.58144456, -0.19014306, 16.70262336730957, -3.1666738986968994, 1.7713367938995361, 64.24601745605469, -263.8528747558594, -158.39097595214844, 
555, 1149889127, 0.717914, -0.28320664, -0.606693, -0.19057128, 18.094566345214844, -6.418444633483887, 1.4293999671936035, 69.50784301757812, -173.3230438232422, -125.6360855102539, 
556, 1149905794, 0.7112787, -0.27175558, -0.61935776, -0.19138397, 12.273015975952148, -4.820005893707275, 2.91353702545166, 61.02143478393555, -75.19576263427734, -84.73355865478516, 
557, 1149922461, 0.71109796, -0.26270548, -0.6234661, -0.19135171, 7.26889181137085, -4.842909336090088, 3.1070189476013184, 53.668514251708984, -10.624146461486816, -45.920719146728516, 
558, 1149939128, 0.71790916, -0.25269535, -0.61881316, -0.19447826, 3.4481918811798096, -1.5340931415557861, 5.770103454589844, 45.92192459106445, 69.1197738647461, -40.496238708496094, 
559, 1149955795, 0.72711545, -0.23863912, -0.6120715, -0.19930635, -0.6811891794204712, -2.315002679824829, 2.69419527053833, 60.02198791503906, 97.92365264892578, -59.28795623779297, 
560, 1149972462, 0.7373389, -0.22533889, -0.60310113, -0.2045063, 0.28697410225868225, -2.5826122760772705, 2.6314127445220947, 53.30130386352539, 112.88427734375, -52.93581008911133, 
561, 1149989129, 0.7468311, -0.21530275, -0.59452206, -0.2059896, 1.7634164094924927, -3.8578858375549316, 2.2158703804016113, 51.5907096862793, 97.48590087890625, -22.217119216918945, 
562, 1150005796, 0.7570597, -0.20769674, -0.5849576, -0.20383175, 3.189209222793579, -2.147304058074951, 2.9865944385528564, 53.7006950378418, 96.69857025146484, 8.880123138427734, 
563, 1150022463, 0.76673675, -0.20460561, -0.57394964, -0.2020726, 3.7295234203338623, -1.1179544925689697, 3.180990695953369, 25.791004180908203, 96.20887756347656, 26.235567092895508, 
564, 1150039130, 0.7767563, -0.20244892, -0.56213844, -0.19915956, 4.998600006103516, -3.225220203399658, 3.327214479446411, 24.789308547973633, 98.85040283203125, 37.6077766418457, 
565, 1150055797, 0.7873446, -0.20062609, -0.5493709, -0.19501142, 5.494842052459717, -2.4547433853149414, 3.654327154159546, 27.26983642578125, 103.95895385742188, 47.57740020751953, 
566, 1150072464, 0.7979633, -0.20007499, -0.53558886, -0.19070756, 6.375899791717529, -1.3318248987197876, 4.0005950927734375, 19.66275405883789, 107.62689208984375, 54.64822769165039, 
567, 1150089131, 0.8078001, -0.20162363, -0.52142084, -0.18688896, 7.365078926086426, -1.2725340127944946, 3.9446182250976562, 4.776577472686768, 104.76313018798828, 59.220787048339844, 
568, 1150105798, 0.81704444, -0.20370786, -0.50743014, -0.18291107, 8.177495956420898, -2.10904860496521, 3.8271658420562744, 1.7829359769821167, 100.73750305175781, 61.017967224121094, 
569, 1150122465, 0.825745, -0.2042162, -0.4944523, -0.17876838, 7.970322608947754, -2.3799493312835693, 3.881337881088257, 11.729170799255371, 94.90087127685547, 54.33638381958008, 
570, 1150139132, 0.8335021, -0.20310974, -0.48274472, -0.17600633, 7.824682712554932, -1.8418769836425781, 4.050867557525635, 16.44870948791504, 88.40426635742188, 38.05779266357422, 
571, 1150155799, 0.8402858, -0.20025699, -0.47236243, -0.1751879, 7.698409080505371, -2.911094903945923, 4.003014087677002, 20.257457733154297, 82.40509796142578, 18.09557342529297, 
572, 1150172466, 0.84627914, -0.1948345, -0.46354753, -0.17599702, 8.542926788330078, -3.5337297916412354, 4.333608150482178, 30.63137435913086, 76.12074279785156, -2.7712957859039307, 
573, 1150189133, 0.85133773, -0.18951692, -0.45580843, -0.17761226, 9.321938514709473, -2.5095455646514893, 4.6190104484558105, 27.51775550842285, 67.83887481689453, -9.712777137756348, 
574, 1150205800, 0.85495895, -0.18654111, -0.44947836, -0.17949097, 9.135835647583008, -2.587871551513672, 4.296407222747803, 12.847478866577148, 52.58060836791992, -7.507603168487549, 
575, 1150222467, 0.8573211, -0.18512179, -0.44524562, -0.18024163, 9.317099571228027, -3.3243863582611084, 4.0800652503967285, 8.169037818908691, 33.00825881958008, -0.3149286210536957, 
576, 1150239134, 0.85894716, -0.1857589, -0.4423145, -0.17905757, 11.114347457885742, -2.6177570819854736, 5.000747203826904, 2.658872604370117, 18.090862274169922, 14.804503440856934, 
577, 1150255801, 0.8608353, -0.1897019, -0.43847108, -0.17526828, 11.660270690917969, -3.3786702156066895, 4.70008659362793, -9.724151611328125, 16.902441024780273, 41.728858947753906, 
578, 1150272468, 0.86363196, -0.19457383, -0.43375543, -0.16774105, 11.545694351196289, -3.6109280586242676, 4.5635576248168945, -3.8119101524353027, 18.83841323852539, 68.87881469726562, 
579, 1150289135, 0.8665761, -0.20104748, -0.42847112, -0.15823601, 11.085040092468262, -2.3449907302856445, 4.562223434448242, -7.875168800354004, 18.190988540649414, 86.32383728027344, 
580, 1150305802, 0.8687108, -0.21127284, -0.42311978, -0.1472249, 11.523098945617676, -1.368669033050537, 4.376753807067871, -26.984516143798828, 10.069478988647461, 105.57167053222656, 
581, 1150322469, 0.86975116, -0.22400178, -0.4183618, -0.135387, 11.100910186767578, -2.0094285011291504, 3.750258445739746, -40.52741241455078, -0.35962778329849243, 115.84477996826172, 
582, 1150339136, 0.869738, -0.2365304, -0.41529894, -0.123029456, 10.633599281311035, -2.5095977783203125, 3.5487782955169678, -37.88268280029297, -14.103163719177246, 114.80071258544922, 
583, 1150355803, 0.86888385, -0.24801552, -0.41389245, -0.110554166, 10.334400177001953, -2.635918617248535, 3.6629464626312256, -31.2727108001709, -25.684263229370117, 109.13590240478516, 
584, 1150372470, 0.86744934, -0.25881836, -0.41335022, -0.09841904, 9.920402526855469, -2.738525867462158, 4.087652206420898, -28.498394012451172, -31.370359420776367, 103.2630386352539, 
585, 1150389137, 0.86563706, -0.26917738, -0.41301683, -0.08736653, 9.740365028381348, -2.8392903804779053, 4.62269926071167, -29.461088180541992, -31.439350128173828, 94.93685913085938, 
586, 1150405804, 0.863496, -0.28000098, -0.4122185, -0.07778269, 10.125340461730957, -2.3926491737365723, 5.194087505340576, -37.29194641113281, -27.14887237548828, 88.19664764404297, 
587, 1150422471, 0.8611467, -0.2923486, -0.41004106, -0.069465004, 10.770739555358887, -2.7244906425476074, 5.2796950340271, -51.077171325683594, -17.91404914855957, 87.57073211669922, 
588, 1150439138, 0.8592342, -0.30421704, -0.40658766, -0.062088862, 10.719355583190918, -3.417337656021118, 4.899172782897949, -50.63182067871094, -6.988872051239014, 83.45133972167969, 
589, 1150455805, 0.858279, -0.313561, -0.4024254, -0.055591226, 10.523116111755371, -4.0043721199035645, 4.561673641204834, -36.474971771240234, 2.8075382709503174, 73.12450408935547, 
590, 1150472472, 0.8583011, -0.3201356, -0.39789876, -0.050091587, 9.960028648376465, -3.838981866836548, 4.436307907104492, -20.925678253173828, 10.888739585876465, 60.759681701660156, 
591, 1150489139, 0.8587917, -0.32472593, -0.39359754, -0.045945477, 9.277658462524414, -3.648595094680786, 4.285749912261963, -11.8076171875, 14.51766300201416, 47.03812026977539, 
592, 1150505806, 0.85934687, -0.3280896, -0.38990146, -0.04309339, 8.805841445922852, -3.430553674697876, 4.34884786605835, -7.730880260467529, 14.407050132751465, 34.774757385253906, 
593, 1150522473, 0.8597823, -0.33093286, -0.38676137, -0.04090979, 8.722888946533203, -3.560314655303955, 4.376367568969727, -6.5549139976501465, 12.473164558410645, 28.169036865234375, 
594, 1150539140, 0.8602298, -0.33331814, -0.3839319, -0.038732108, 8.80631160736084, -3.9587154388427734, 4.361842155456543, -3.7509140968322754, 10.819995880126953, 26.239578247070312, 
595, 1150555807, 0.8608305, -0.3349377, -0.38144913, -0.035836317, 8.58286190032959, -4.1797637939453125, 4.345839023590088, 3.117337226867676, 7.7429280281066895, 27.737924575805664, 
596, 1150572474, 0.86172944, -0.33519897, -0.37954807, -0.0317385, 8.221142768859863, -4.494901657104492, 4.325324535369873, 15.139606475830078, 2.656374216079712, 30.047269821166992, 
597, 1150589141, 0.863022, -0.33344766, -0.37856054, -0.026414778, 7.974874973297119, -4.928089141845703, 4.315903186798096, 31.370691299438477, -4.1068196296691895, 30.056713104248047, 
598, 1150605808, 0.8646388, -0.32977313, -0.37847784, -0.020100584, 7.79972505569458, -4.8039093017578125, 4.495146751403809, 46.269737243652344, -10.546131134033203, 28.924680709838867, 
599, 1150622475, 0.86636907, -0.32504413, -0.3789297, -0.01278267, 7.868921279907227, -4.838467597961426, 4.440053462982178, 55.48294448852539, -15.554975509643555, 30.96526336669922, 
600, 1150639142, 0.86840796, -0.3190719, -0.37952375, -0.004750401, 7.9398298263549805, -5.131514072418213, 4.161590576171875, 65.4541244506836, -17.078325271606445, 31.70227813720703, 
601, 1150655809, 0.8705503, -0.31210297, -0.38042328, 0.0034782412, 7.632206439971924, -4.669764995574951, 4.163730144500732, 72.15948486328125, -19.022058486938477, 29.618600845336914, 
602, 1150672476, 0.87200624, -0.30625784, -0.38167885, 0.011516759, 7.380130290985107, -3.7682783603668213, 4.267971038818359, 63.45857238769531, -22.503862380981445, 30.682634353637695, 
603, 1150689143, 0.8724074, -0.3026525, -0.38334218, 0.01886591, 7.059680938720703, -3.189528465270996, 4.241015911102295, 45.96723937988281, -26.083009719848633, 31.6702823638916, 
604, 1150705810, 0.8716781, -0.30119878, -0.38579914, 0.024813844, 6.467325210571289, -3.1655564308166504, 4.145022869110107, 26.910654067993164, -30.6213436126709, 27.450149536132812, 
605, 1150722477, 0.86994433, -0.30101445, -0.38958868, 0.028425641, 6.188011169433594, -2.760787010192871, 4.279253005981445, 10.796358108520508, -36.21505355834961, 14.243782997131348, 
606, 1150739144, 0.86744857, -0.302105, -0.39424226, 0.028957544, 6.116271495819092, -2.786273241043091, 4.578311443328857, -6.830613613128662, -36.79988479614258, -2.383446216583252, 
607, 1150755811, 0.86454535, -0.30448887, -0.3989576, 0.026097236, 6.278592109680176, -2.7999086380004883, 4.856531143188477, -24.604909896850586, -30.971553802490234, -19.138763427734375, 
608, 1150772478, 0.8615987, -0.3081728, -0.40284082, 0.019917473, 6.602698802947998, -3.1501457691192627, 4.912223815917969, -41.38985824584961, -18.9660701751709, -33.53599166870117, 
609, 1150789145, 0.8588919, -0.31265286, -0.40551, 0.010722896, 6.704142093658447, -3.4816126823425293, 4.7891740798950195, -53.79179000854492, -4.617956638336182, -46.632110595703125, 
610, 1150805812, 0.8569499, -0.31655777, -0.40672785, -8.1557827E-4, 6.86686372756958, -3.8183751106262207, 4.608427047729492, -55.188751220703125, 11.076241493225098, -59.00012969970703, 
611, 1150822479, 0.8557022, -0.3192959, -0.40697122, -0.014079982, 7.068522930145264, -3.935920238494873, 4.064636707305908, -51.641448974609375, 22.5189208984375, -70.29234313964844, 
612, 1150839146, 0.85450405, -0.32151574, -0.40696558, -0.028801555, 7.316561698913574, -3.376046895980835, 3.5127086639404297, -52.588905334472656, 27.372661590576172, -79.75210571289062, 
613, 1150855813, 0.85273737, -0.32447845, -0.40692803, -0.044299774, 7.678497314453125, -3.6395230293273926, 2.827148199081421, -60.39296340942383, 27.54183578491211, -82.26030731201172, 
614, 1150872480, 0.8505202, -0.32803237, -0.40678802, -0.059446413, 7.6578569412231445, -3.795822858810425, 2.130472183227539, -63.909751892089844, 25.92764663696289, -78.43547821044922, 
615, 1150889147, 0.8473147, -0.33265397, -0.40744087, -0.073424734, 7.711280345916748, -3.3601324558258057, 1.2683651447296143, -68.78367614746094, 15.467308044433594, -70.79247283935547, 
616, 1150905814, 0.8426125, -0.3393832, -0.40923166, -0.08574811, 8.208959579467773, -2.8358447551727295, 0.928053617477417, -79.2640151977539, -0.18676139414310455, -58.58620834350586, 
617, 1150922481, 0.83653194, -0.34879515, -0.41158587, -0.095673285, 8.069129943847656, -3.4242992401123047, 0.6027786731719971, -90.93048095703125, -14.489165306091309, -39.243934631347656, 
618, 1150939148, 0.8301584, -0.35751274, -0.4154841, -0.10195423, 10.209881782531738, -11.346614837646484, 0.8078004121780396, -76.29438781738281, -32.4617805480957, -24.123807907104492, 
619, 1150955815, 0.8339059, -0.3493065, -0.41717365, -0.09247914, 11.999897956848145, -12.887350082397461, 2.481907367706299, 88.6773910522461, -17.770689010620117, 29.943519592285156, 
620, 1150972482, 0.8394507, -0.34998193, -0.40574795, -0.090575896, 11.665053367614746, 1.1765267848968506, 8.988202095031738, 12.041082382202148, 75.15348815917969, 44.598777770996094, 
621, 1150989149, 0.85073113, -0.3437015, -0.3877323, -0.08825782, 11.029105186462402, -16.43736457824707, 5.704442501068115, 63.011138916015625, 132.50010681152344, 47.101261138916016, 
622, 1151005816, 0.8662913, -0.32888666, -0.36702326, -0.0816508, 7.887424468994141, -6.227571487426758, 7.591084003448486, 132.87686157226562, 154.73883056640625, 58.32460403442383, 
623, 1151022483, 0.8797684, -0.31568232, -0.34683996, -0.0778098, 7.5613017082214355, -7.29332971572876, 6.974504470825195, 111.87017059326172, 151.6846160888672, 43.54612731933594, 
624, 1151039150, 0.8901179, -0.30617523, -0.32820207, -0.07893229, 6.522793292999268, -5.248432159423828, 7.135376930236816, 71.69486236572266, 143.66400146484375, 17.29346466064453, 
625, 1151055817, 0.8978963, -0.2991295, -0.31169847, -0.084546424, 5.154550075531006, -6.260890007019043, 7.002961158752441, 42.22803497314453, 132.91001892089844, -10.533584594726562, 
626, 1151072484, 0.904231, -0.29186752, -0.29766002, -0.09261765, 5.277799606323242, -5.936970233917236, 7.577638149261475, 36.75275802612305, 119.765869140625, -32.092594146728516, 
627, 1151089151, 0.91036135, -0.28328812, -0.28473467, -0.09958052, 6.173318862915039, -3.5596671104431152, 7.813601493835449, 47.50363540649414, 111.03211212158203, -30.275585174560547, 
628, 1151105818, 0.91652656, -0.27420086, -0.27219263, -0.10346202, 5.248835563659668, -2.731316566467285, 8.130215644836426, 57.0292854309082, 103.04032135009766, -12.693275451660156, 
629, 1151122485, 0.9223325, -0.26524097, -0.26066962, -0.104888044, 5.197798728942871, -2.742141008377075, 8.551822662353516, 60.85087203979492, 91.21564483642578, 0.8515942692756653, 
630, 1151139152, 0.927244, -0.25770688, -0.2504486, -0.10526859, 5.494775772094727, -3.4071264266967773, 8.374374389648438, 52.97020721435547, 78.40949249267578, 7.025415420532227, 
631, 1151155819, 0.9311242, -0.25166944, -0.24194725, -0.10550668, 4.987767696380615, -3.61372971534729, 8.425468444824219, 43.07879638671875, 64.33041381835938, 6.724527359008789, 
632, 1151172486, 0.933926, -0.24771853, -0.23466295, -0.10654197, 4.136758327484131, -3.8448381423950195, 8.389859199523926, 27.402862548828125, 54.60289764404297, 2.2067806720733643, 
633, 1151189153, 0.93549323, -0.2455207, -0.22982778, -0.108403176, 5.028447151184082, -4.112794876098633, 8.844976425170898, 14.49643325805664, 36.99753189086914, -5.348402976989746, 
634, 1151205820, 0.93628776, -0.2443499, -0.22739285, -0.10932081, 4.311872959136963, -2.6465659141540527, 9.16015911102295, 9.861224174499512, 17.975082397460938, -2.284137487411499, 
635, 1151222487, 0.9361462, -0.24617678, -0.2261725, -0.108966336, 4.962107181549072, -2.0405638217926025, 8.941912651062012, -8.120964050292969, 4.289872646331787, 7.854879856109619, 
636, 1151239154, 0.9354965, -0.24991632, -0.22530295, -0.10782854, 4.9451704025268555, -3.9003381729125977, 8.020371437072754, -19.827648162841797, -1.525681495666504, 14.912553787231445, 
637, 1151255821, 0.9352909, -0.2516919, -0.22451262, -0.107127495, 4.998362064361572, -5.3907012939453125, 7.163856029510498, -7.051966667175293, 0.856796383857727, 9.258135795593262, 
638, 1151272488, 0.9354542, -0.25195044, -0.22339852, -0.107422985, 5.03518009185791, -5.054229736328125, 7.129593372344971, 1.5761288404464722, 6.354537010192871, 1.3317965269088745, 
639, 1151289155, 0.9360784, -0.25044435, -0.22212012, -0.10815577, 5.020932674407959, -4.9483795166015625, 7.391098499298096, 12.938126564025879, 10.18387508392334, -3.57053542137146, 
640, 1151305822, 0.93707544, -0.24756841, -0.22090502, -0.10863094, 4.962972640991211, -4.225503921508789, 7.6466064453125, 22.8419132232666, 10.926319122314453, -3.8422722816467285, 
641, 1151322489, 0.9382222, -0.24429482, -0.21950445, -0.108982146, 4.981415271759033, -3.9090445041656494, 7.784344673156738, 25.710323333740234, 12.43644905090332, -3.2195065021514893, 
642, 1151339156, 0.9393603, -0.24081066, -0.21828796, -0.1093743, 4.6325602531433105, -4.470449924468994, 7.888471603393555, 27.128450393676758, 11.464048385620117, -4.115083694458008, 
643, 1151355823, 0.9404715, -0.2368738, -0.21744724, -0.11009577, 4.723150730133057, -4.077356815338135, 7.9250688552856445, 29.79865074157715, 9.882798194885254, -7.568547248840332, 
644, 1151372490, 0.9414308, -0.23334642, -0.21675512, -0.11079166, 4.727708339691162, -3.515071392059326, 8.096601486206055, 27.05417823791504, 8.343926429748535, -7.148905277252197, 
