sep=,
DeviceTag:,R Lower Leg - 3,,,,,,,,,,,,,,,,,
FirmwareVersion:,3.0.0,,,,,,,,,,,,,,,,,
AppVersion:,2023.6.1,,,,,,,,,,,,,,,,,
StartTime:,2024-05-25 15:19:41.000 +0200,,,,,,,,,,,,,,,,,
 2024,,,,,,,,,,,,,,,,,,,

PacketCounter,SampleTimeFine,Quat_W,Quat_X,Quat_Y,Quat_Z,Acc_X,Acc_Y,Acc_Z,Gyr_X,Gyr_Y,Gyr_Z,
0, 1140624087, 0.5350811, 0.3156189, -0.7059413, 0.34017605, 0.0, 0.0, 0.0, 0.0, 0.0, 0.0, 
1, 1140640754, 0.53596526, 0.315621, -0.70526505, 0.34018508, 9.757488250732422, -1.3666940927505493, -1.83362877368927, 0.7499462366104126, 0.3614271879196167, -0.05960075929760933, 
2, 1140657421, 0.5371938, 0.31553668, -0.7043324, 0.3402579, 9.755918502807617, -1.3434098958969116, -1.8116462230682373, 1.0785698890686035, 0.16225005686283112, -0.027546456083655357, 
3, 1140674088, 0.5383271, 0.31554118, -0.70344204, 0.34030452, 9.692794799804688, -1.255720615386963, -1.8278285264968872, 0.5391665101051331, -0.3581295609474182, 0.3592117130756378, 
4, 1140690755, 0.53920645, 0.3158451, -0.70279074, 0.33997595, 9.732470512390137, -1.387542486190796, -1.9627163410186768, -0.6984455585479736, -0.5047750473022461, 0.3351229429244995, 
5, 1140707422, 0.53942853, 0.3159302, -0.7027318, 0.33966637, 9.65644645690918, -1.4041262865066528, -2.0610039234161377, -0.16979938745498657, -0.46466556191444397, 0.39259785413742065, 
6, 1140724089, 0.5391313, 0.31616336, -0.7029568, 0.33945546, 9.704549789428711, -1.3749444484710693, -2.1063146591186523, -0.4778817296028137, -0.14663270115852356, 0.09500390291213989, 
7, 1140740756, 0.53882676, 0.31619784, -0.7033973, 0.33899415, 9.764841079711914, -1.4271284341812134, -2.178314447402954, -0.5351389050483704, 0.1787446141242981, -0.27546456456184387, 
8, 1140757423, 0.5385381, 0.31591216, -0.7040392, 0.33838612, 9.667106628417969, -1.3701413869857788, -2.0929114818573, -0.25320714712142944, 0.39423704147338867, -0.028724640607833862, 
9, 1140774090, 0.5382711, 0.3157465, -0.7045574, 0.3378865, 9.693849563598633, -1.4202871322631836, -1.9893618822097778, -0.35641348361968994, 0.6147496104240417, -0.22952818870544434, 
10, 1140790757, 0.53793234, 0.3159247, -0.7047705, 0.33781484, 9.695531845092773, -1.4161314964294434, -1.8892452716827393, 0.5976787209510803, 0.7613950967788696, -0.4456097483634949, 
11, 1140807424, 0.5377151, 0.31593892, -0.7049561, 0.33776057, 9.719687461853027, -1.278304100036621, -1.8087482452392578, 1.4672297239303589, 0.3007506728172302, -0.3674013316631317, 
12, 1140824091, 0.53737503, 0.31644648, -0.70483834, 0.3380721, 9.766555786132812, -1.268954873085022, -1.821696162223816, 1.4573817253112793, -0.09019511938095093, -0.32063257694244385, 
13, 1140840758, 0.5371884, 0.31675878, -0.7047608, 0.33823803, 9.70067310333252, -1.3176734447479248, -1.901512861251831, 1.637669563293457, -0.4015814960002899, -0.1925818771123886, 
14, 1140857425, 0.5370386, 0.31695127, -0.70473725, 0.33834442, 9.682123184204102, -1.2845571041107178, -1.9362117052078247, 1.649874210357666, -0.6226959824562073, 0.08130111545324326, 
15, 1140874092, 0.53692794, 0.31708542, -0.7047435, 0.33838126, 9.714737892150879, -1.3150643110275269, -2.0050747394561768, 1.1277589797973633, -0.6308791041374207, 0.1664120852947235, 
16, 1140890759, 0.5367577, 0.3173375, -0.7047066, 0.33849186, 9.706098556518555, -1.33905029296875, -2.0264670848846436, 1.1941602230072021, -0.6374744772911072, 0.11970736086368561, 
17, 1140907426, 0.53665435, 0.31745, -0.7047312, 0.33849913, 9.722112655639648, -1.3411494493484497, -2.014153003692627, 1.7965832948684692, -0.603204607963562, -0.030248593538999557, 
18, 1140924093, 0.5364859, 0.31771213, -0.70468116, 0.33862415, 9.71634292602539, -1.3601806163787842, -1.9746010303497314, 2.1990103721618652, -0.5500839948654175, -0.1622948944568634, 
19, 1140940760, 0.5362879, 0.3180055, -0.70459676, 0.33883834, 9.663907051086426, -1.3484736680984497, -1.966828465461731, 3.0505943298339844, -0.5097439885139465, -0.08946516364812851, 
20, 1140957427, 0.5359696, 0.31852904, -0.7044034, 0.33925185, 9.67919635772705, -1.324505090713501, -1.9809139966964722, 3.876758098602295, -0.6131168603897095, -0.16886456310749054, 
21, 1140974094, 0.53573406, 0.3188271, -0.704315, 0.33952764, 9.701736450195312, -1.2999612092971802, -1.9676578044891357, 4.5193681716918945, -0.7488130927085876, -0.06371159851551056, 
22, 1140990761, 0.53536916, 0.319422, -0.70407397, 0.34004328, 9.701348304748535, -1.3337843418121338, -2.0033366680145264, 5.294689655303955, -0.7163744568824768, -0.1944132298231125, 
23, 1141007428, 0.5349722, 0.3200158, -0.70385003, 0.340573, 9.700020790100098, -1.310790777206421, -1.9863755702972412, 5.8676838874816895, -0.9627558588981628, -0.13216154277324677, 
24, 1141024095, 0.53461033, 0.32046583, -0.7037079, 0.34101158, 9.704955101013184, -1.2440026998519897, -1.9411792755126953, 5.642483711242676, -1.1130638122558594, 0.1326417475938797, 
25, 1141040762, 0.5342381, 0.3209306, -0.70359063, 0.34139967, 9.737167358398438, -1.3042248487472534, -1.9503697156906128, 4.2558512687683105, -1.28793466091156, 0.25765734910964966, 
26, 1141057429, 0.5339162, 0.32130593, -0.7035047, 0.34172705, 9.68953800201416, -1.3365671634674072, -2.0122604370117188, 3.3798329830169678, -1.1171876192092896, 0.44094187021255493, 
27, 1141074096, 0.5337896, 0.32127842, -0.7036089, 0.34173617, 9.716944694519043, -1.3177025318145752, -2.0722625255584717, 2.608672857284546, -1.0559604167938232, 0.5307143330574036, 
28, 1141090763, 0.5336068, 0.32138667, -0.70365435, 0.34182617, 9.69962215423584, -1.355538249015808, -2.0864639282226562, 1.721909761428833, -0.9178438186645508, 0.5840784311294556, 
29, 1141107430, 0.533462, 0.32148612, -0.70368874, 0.3418879, 9.691533088684082, -1.406974196434021, -2.1457009315490723, 1.1725943088531494, -0.6458754539489746, 0.4491507411003113, 
30, 1141124097, 0.5333247, 0.32167897, -0.7036473, 0.34200573, 9.71480655670166, -1.383444905281067, -2.1983022689819336, 0.7690660357475281, -0.18953396379947662, 0.20358891785144806, 
31, 1141140764, 0.5333042, 0.32164395, -0.70369637, 0.34196976, 9.692718505859375, -1.3146241903305054, -2.1803343296051025, 0.2185211330652237, 0.10501845180988312, 0.33322760462760925, 
32, 1141157431, 0.53328764, 0.3216453, -0.70370656, 0.34197345, 9.6781005859375, -1.3262042999267578, -2.1495330333709717, -0.3656340539455414, 0.46978169679641724, 0.42054128646850586, 
33, 1141174098, 0.5333848, 0.32146063, -0.7037866, 0.3418306, 9.717890739440918, -1.3454152345657349, -2.1130576133728027, -0.6066367626190186, 0.6889750957489014, 0.351950466632843, 
34, 1141190765, 0.53343403, 0.3213605, -0.70381665, 0.3417861, 9.732081413269043, -1.327122449874878, -2.051929235458374, -0.39337268471717834, 0.7799131274223328, 0.4599721133708954, 
35, 1141207432, 0.53353965, 0.32115284, -0.70389694, 0.34165123, 9.721362113952637, -1.286810040473938, -2.056347608566284, -1.2013572454452515, 0.8622899055480957, 0.5758759379386902, 
36, 1141224099, 0.5337412, 0.32075268, -0.70406663, 0.34136245, 9.667645454406738, -1.3063668012619019, -2.0285885334014893, -1.838057041168213, 0.9167169332504272, 0.6818997859954834, 
37, 1141240766, 0.53384924, 0.32055768, -0.70414865, 0.34120756, 9.726531982421875, -1.331608772277832, -2.006302833557129, -2.347032308578491, 0.9088218808174133, 0.6799851655960083, 
38, 1141257433, 0.533938, 0.32043335, -0.7041861, 0.34110832, 9.7340726852417, -1.3265104293823242, -2.066895008087158, -2.6395297050476074, 1.0409834384918213, 0.6817652583122253, 
39, 1141274100, 0.53402334, 0.32025284, -0.70426595, 0.34097946, 9.72459888458252, -1.1773945093154907, -2.0286107063293457, -3.025486946105957, 0.9200145602226257, 0.9336147308349609, 
40, 1141290767, 0.5342518, 0.31972972, -0.7045324, 0.3405614, 9.691834449768066, -1.14613938331604, -2.0269155502319336, -4.646604537963867, 0.8204707503318787, 1.2891960144042969, 
41, 1141307434, 0.53447104, 0.31920895, -0.70482093, 0.3401085, 9.71812629699707, -1.2417188882827759, -2.0676443576812744, -5.965326309204102, 0.7575404644012451, 1.4982854127883911, 
42, 1141324101, 0.534676, 0.31867278, -0.70511186, 0.33968627, 9.698527336120605, -1.3241733312606812, -2.0696616172790527, -5.9184675216674805, 0.7873407602310181, 1.7538617849349976, 
43, 1141340768, 0.5348854, 0.3181709, -0.7053552, 0.33932143, 9.684443473815918, -1.394201397895813, -2.064249277114868, -4.82650899887085, 0.9430148601531982, 1.5530710220336914, 
44, 1141357435, 0.53498554, 0.31787404, -0.7054945, 0.33915216, 9.679180145263672, -1.3196561336517334, -2.020803928375244, -3.608689069747925, 0.8765884041786194, 1.4728903770446777, 
45, 1141374102, 0.53514695, 0.3174571, -0.7056821, 0.33889762, 9.718451499938965, -1.3337583541870117, -2.008587121963501, -3.6659462451934814, 0.9251051545143127, 1.4817845821380615, 
46, 1141390769, 0.53531337, 0.31705356, -0.7058488, 0.33866528, 9.740100860595703, -1.4073702096939087, -2.033524513244629, -3.337898015975952, 1.0061628818511963, 1.4062715768814087, 
47, 1141407436, 0.535463, 0.3166799, -0.705992, 0.33848006, 9.689140319824219, -1.3580275774002075, -2.038456916809082, -3.3729493618011475, 1.0973442792892456, 1.4921897649765015, 
48, 1141424103, 0.53565484, 0.3162445, -0.7061577, 0.33823746, 9.712469100952148, -1.2905066013336182, -2.0056488513946533, -4.51007604598999, 1.2988903522491455, 1.6168336868286133, 
49, 1141440770, 0.5359424, 0.31567368, -0.7063733, 0.33786502, 9.683372497558594, -1.4402801990509033, -1.980684518814087, -4.660435676574707, 1.4107283353805542, 1.424111008644104, 
50, 1141457437, 0.53612965, 0.31533307, -0.7064883, 0.3376456, 9.693493843078613, -1.4607179164886475, -1.945762276649475, -2.8364782333374023, 1.1052069664001465, 0.9002414345741272, 
51, 1141474104, 0.53622985, 0.31513268, -0.70655054, 0.33754322, 9.722602844238281, -1.3631763458251953, -1.8897749185562134, -1.7627301216125488, 0.8272325396537781, 0.7716529965400696, 
52, 1141490771, 0.53625655, 0.3150463, -0.7065967, 0.33748507, 9.715096473693848, -1.3670965433120728, -1.7935011386871338, -1.6901819705963135, 0.43777862191200256, 0.66480952501297, 
53, 1141507438, 0.5363248, 0.31479377, -0.7067468, 0.3372977, 9.680099487304688, -1.3926472663879395, -1.833783745765686, -1.628429889678955, 0.08005890250205994, 0.7840880751609802, 
54, 1141524105, 0.53627366, 0.31479558, -0.7067857, 0.33729568, 9.687451362609863, -1.3800469636917114, -1.9276522397994995, -1.4958456754684448, 0.005128942895680666, 0.7062894701957703, 
55, 1141540772, 0.53626287, 0.31472957, -0.70686156, 0.33721554, 9.705629348754883, -1.3891146183013916, -2.0301074981689453, -0.9019255042076111, -0.1638060212135315, 0.44035273790359497, 
56, 1141557439, 0.53623533, 0.3146935, -0.70691174, 0.3371878, 9.721579551696777, -1.3277983665466309, -2.122065544128418, -0.7098559141159058, -0.06632407754659653, 0.516179084777832, 
57, 1141574106, 0.5362831, 0.3145504, -0.70699763, 0.33706543, 9.68209457397461, -1.3433283567428589, -2.153432846069336, -1.0696759223937988, 0.12042450904846191, 0.44398972392082214, 
58, 1141590773, 0.5362772, 0.31455803, -0.7070009, 0.33706042, 9.707215309143066, -1.3855472803115845, -2.0883378982543945, -0.9673148989677429, 0.2816692590713501, 0.3600185215473175, 
59, 1141607440, 0.5363135, 0.31454262, -0.70698696, 0.33704653, 9.739972114562988, -1.4143327474594116, -2.0909690856933594, -0.4531526267528534, 0.4915652573108673, 0.15461745858192444, 
60, 1141624107, 0.53628457, 0.3146834, -0.70688385, 0.3371773, 9.724458694458008, -1.3011350631713867, -2.0279383659362793, 0.09410745650529861, 0.6173748970031738, 0.09660469740629196, 
61, 1141640774, 0.53630024, 0.3147114, -0.7068462, 0.33720523, 9.709024429321289, -1.308884620666504, -1.9768023490905762, -0.11213239282369614, 0.49193668365478516, 0.11651857197284698, 
62, 1141657441, 0.5363137, 0.31476453, -0.7068007, 0.33722946, 9.677506446838379, -1.3885369300842285, -1.9786617755889893, 0.4761976897716522, 0.36474403738975525, -0.12712863087654114, 
63, 1141674108, 0.53639525, 0.31461176, -0.7068551, 0.3371285, 9.672728538513184, -1.3124089241027832, -1.891994833946228, 0.8384764790534973, 0.22441205382347107, 0.03539034724235535, 
64, 1141690775, 0.5363566, 0.3146711, -0.7068508, 0.33714315, 9.718769073486328, -1.299797534942627, -1.9393450021743774, 0.32335391640663147, -0.0776192843914032, 0.04295890033245087, 
65, 1141707442, 0.5362846, 0.31475222, -0.70685756, 0.33716822, 9.712181091308594, -1.3246557712554932, -1.9651974439620972, 0.2969600260257721, -0.2907809913158417, 0.12525250017642975, 
66, 1141724109, 0.53616905, 0.3148795, -0.706849, 0.33725095, 9.70351791381836, -1.313165307044983, -1.943674087524414, 0.8364275097846985, -0.428308367729187, 0.19135887920856476, 
67, 1141740776, 0.53599566, 0.3151482, -0.70678383, 0.33741215, 9.684731483459473, -1.343806266784668, -1.958495855331421, 0.9002543687820435, -0.5118825435638428, 0.03063919208943844, 
68, 1141757443, 0.5358325, 0.31535277, -0.7067573, 0.33753562, 9.675213813781738, -1.351752758026123, -1.9706830978393555, 1.4363410472869873, -0.6976771354675293, 0.045814719051122665, 
69, 1141774110, 0.53561187, 0.31567073, -0.70668733, 0.33773524, 9.6851224899292, -1.3306392431259155, -2.0004031658172607, 1.8891605138778687, -0.8386622071266174, -0.07347002625465393, 
70, 1141790777, 0.5355116, 0.3157645, -0.7067182, 0.33774185, 9.677186965942383, -1.365043044090271, -2.0340993404388428, 1.580399751663208, -0.8053274154663086, -0.15409882366657257, 
71, 1141807444, 0.5353342, 0.31604975, -0.7066503, 0.3378981, 9.697712898254395, -1.3867167234420776, -2.06593918800354, 2.0750322341918945, -0.741602897644043, -0.29778608679771423, 
72, 1141824111, 0.53514034, 0.3164103, -0.7065339, 0.33811107, 9.68121337890625, -1.361202359199524, -2.0723636150360107, 2.586966037750244, -0.6623316407203674, -0.4890232980251312, 
73, 1141840778, 0.5349664, 0.31676957, -0.7064149, 0.33829886, 9.692859649658203, -1.3649122714996338, -2.0374770164489746, 2.669182777404785, -0.6379995346069336, -0.6790823340415955, 
74, 1141857445, 0.5348014, 0.31713805, -0.70627296, 0.33851093, 9.687688827514648, -1.3142071962356567, -2.036125659942627, 3.0672550201416016, -0.5067472457885742, -0.7517199516296387, 
75, 1141874112, 0.5346427, 0.3174848, -0.7061424, 0.33870873, 9.694291114807129, -1.2837746143341064, -2.031864643096924, 3.2408454418182373, -0.5491874814033508, -0.7597752213478088, 
76, 1141890779, 0.5343794, 0.31801677, -0.7059285, 0.33907083, 9.709501266479492, -1.327905535697937, -2.0623042583465576, 3.5930585861206055, -0.598709762096405, -0.6701691746711731, 
77, 1141907446, 0.5341224, 0.31853136, -0.7057215, 0.3394238, 9.68748950958252, -1.3170040845870972, -2.046168804168701, 3.8962366580963135, -0.634247362613678, -0.7060270309448242, 
78, 1141924113, 0.5339392, 0.31893346, -0.7055528, 0.33968484, 9.72408390045166, -1.3175956010818481, -2.081054210662842, 3.8008158206939697, -0.49885857105255127, -0.7915605306625366, 
79, 1141940780, 0.5337865, 0.31931722, -0.7053738, 0.339936, 9.716777801513672, -1.3286093473434448, -2.1017274856567383, 3.5859954357147217, -0.2785893380641937, -0.8184154033660889, 
80, 1141957447, 0.5336384, 0.31972784, -0.70517987, 0.34018487, 9.700613975524902, -1.305222988128662, -2.0921084880828857, 3.080650806427002, -0.17306502163410187, -0.8729959726333618, 
81, 1141974114, 0.5335785, 0.31997406, -0.705064, 0.34028694, 9.7018461227417, -1.2963330745697021, -2.107994556427002, 2.2383387088775635, -0.08590500056743622, -0.8210919499397278, 
82, 1141990781, 0.5335186, 0.32025388, -0.7049095, 0.34043804, 9.69288158416748, -1.3153053522109985, -2.0812628269195557, 1.9268625974655151, 0.2013862431049347, -0.7264145612716675, 
83, 1142007448, 0.53350145, 0.32045734, -0.7047847, 0.34053174, 9.688865661621094, -1.2828999757766724, -2.039872884750366, 2.232652425765991, 0.21085013449192047, -0.8107699751853943, 
84, 1142024115, 0.53341466, 0.32078713, -0.7046087, 0.34072134, 9.722174644470215, -1.2808468341827393, -1.9900555610656738, 2.3783247470855713, 0.12855654954910278, -0.7988601326942444, 
85, 1142040782, 0.53333575, 0.32105157, -0.70448977, 0.34084138, 9.747435569763184, -1.2401225566864014, -2.0252017974853516, 2.16536808013916, -0.12054618448019028, -0.7305382490158081, 
86, 1142057449, 0.5332628, 0.32127544, -0.7044011, 0.3409283, 9.731134414672852, -1.2311372756958008, -2.0241215229034424, 1.6562389135360718, -0.16435670852661133, -0.5698570013046265, 
87, 1142074116, 0.53319615, 0.32148018, -0.7043251, 0.34099665, 9.72014045715332, -1.2554771900177002, -2.0484988689422607, 1.2480747699737549, -0.14898908138275146, -0.4815443456172943, 
88, 1142090783, 0.5332084, 0.3215478, -0.7043183, 0.34092754, 9.697265625, -1.281821370124817, -2.0601806640625, 0.818601131439209, -0.15338163077831268, -0.5652594566345215, 
89, 1142107450, 0.53317696, 0.32172412, -0.70425886, 0.34093308, 9.69734001159668, -1.2751721143722534, -2.0685243606567383, 0.48765939474105835, -0.07312425971031189, -0.560085654258728, 
90, 1142124117, 0.53321964, 0.32173795, -0.7042702, 0.34083, 9.713082313537598, -1.2733944654464722, -2.0996806621551514, -0.22107598185539246, 0.06574138253927231, -0.3364996314048767, 
91, 1142140784, 0.5332808, 0.32179376, -0.7042468, 0.34073004, 9.703450202941895, -1.2834802865982056, -2.1007678508758545, -0.6762648820877075, 0.29109469056129456, -0.508399248123169, 
92, 1142157451, 0.53341466, 0.32172117, -0.70427084, 0.34053922, 9.696587562561035, -1.2730376720428467, -2.078009843826294, -0.5703180432319641, 0.3939553499221802, -0.5458194613456726, 
93, 1142174118, 0.53352773, 0.3216821, -0.70427316, 0.34039396, 9.686551094055176, -1.2659416198730469, -2.035895586013794, -0.3923993706703186, 0.43656203150749207, -0.4836958050727844, 
94, 1142190785, 0.53361106, 0.32168257, -0.7042675, 0.3402747, 9.70617389678955, -1.2639389038085938, -1.990846037864685, -0.23443306982517242, 0.31581100821495056, -0.4813266396522522, 
95, 1142207452, 0.5336182, 0.32179365, -0.70421696, 0.34026313, 9.718507766723633, -1.2404289245605469, -1.9820270538330078, 0.22100557386875153, 0.19173027575016022, -0.386982262134552, 
96, 1142224119, 0.5335409, 0.32199982, -0.7041521, 0.34032366, 9.72978401184082, -1.2133177518844604, -1.931327223777771, 0.4555923044681549, -0.13588818907737732, -0.27196845412254333, 
97, 1142240786, 0.53340834, 0.322258, -0.70408946, 0.34041667, 9.699332237243652, -1.231406331062317, -1.9048783779144287, 0.6894618272781372, -0.4351213276386261, -0.21199630200862885, 
98, 1142257453, 0.5332705, 0.32244813, -0.70408684, 0.3404581, 9.69999885559082, -1.2426034212112427, -1.9131234884262085, 1.339576244354248, -0.8262016773223877, -0.1849236935377121, 
99, 1142274120, 0.5331003, 0.32259068, -0.7041409, 0.3404775, 9.697781562805176, -1.2062091827392578, -1.887310266494751, 1.742105484008789, -1.2379515171051025, 0.01842193491756916, 
100, 1142290787, 0.53283316, 0.322839, -0.70418286, 0.34057364, 9.69515609741211, -1.1780155897140503, -1.9426710605621338, 1.5890311002731323, -1.5921238660812378, 0.2311994582414627, 
101, 1142307454, 0.53258294, 0.3230334, -0.7042718, 0.3405966, 9.696849822998047, -1.2124438285827637, -2.03206729888916, 1.2821781635284424, -1.7785329818725586, 0.22010914981365204, 
102, 1142324121, 0.53231305, 0.3232646, -0.70432574, 0.3406876, 9.690845489501953, -1.255604863166809, -2.1240954399108887, 1.6283338069915771, -1.6473705768585205, 0.3142102062702179, 
103, 1142340788, 0.53201276, 0.3235531, -0.7043439, 0.34084523, 9.731009483337402, -1.2335569858551025, -2.171208381652832, 1.868632197380066, -1.5786004066467285, 0.36934155225753784, 
104, 1142357455, 0.5317709, 0.32369697, -0.7044098, 0.34094992, 9.726336479187012, -1.2015130519866943, -2.1871564388275146, 1.9372103214263916, -1.391666054725647, 0.6261728405952454, 
105, 1142374122, 0.53160524, 0.32371375, -0.7045148, 0.34097552, 9.704182624816895, -1.2198643684387207, -2.174374580383301, 1.578798770904541, -1.1387405395507812, 0.7115784287452698, 
106, 1142390789, 0.5313654, 0.32392928, -0.7045092, 0.3411564, 9.735424041748047, -1.2312803268432617, -2.1308557987213135, 1.8166897296905518, -0.9737052917480469, 0.5985752940177917, 
107, 1142407456, 0.53111726, 0.32418075, -0.70446444, 0.34139603, 9.733796119689941, -1.2482264041900635, -2.0976083278656006, 1.9713008403778076, -0.7637194991111755, 0.6573819518089294, 
108, 1142424123, 0.5308754, 0.32442987, -0.70441604, 0.34163514, 9.714744567871094, -1.2380179166793823, -2.117584705352783, 2.132763147354126, -0.7390545010566711, 0.61025470495224, 
109, 1142440790, 0.53072226, 0.32449925, -0.70444965, 0.3417381, 9.72891902923584, -1.2213841676712036, -2.099043846130371, 1.9288477897644043, -0.6956281661987305, 0.6511708498001099, 
110, 1142457457, 0.53056365, 0.32457134, -0.7044871, 0.34183878, 9.710657119750977, -1.2485172748565674, -2.120054244995117, 1.3971409797668457, -0.6695671677589417, 0.7698473930358887, 
111, 1142474124, 0.53047097, 0.3245329, -0.7045685, 0.34185112, 9.700749397277832, -1.2778162956237793, -2.131678819656372, 1.0491281747817993, -0.547343373298645, 0.7775694727897644, 
112, 1142490791, 0.53041476, 0.32446697, -0.70464766, 0.34183756, 9.690800666809082, -1.2637503147125244, -2.1643786430358887, 0.4751604199409485, -0.31300002336502075, 0.785509467124939, 
113, 1142507458, 0.53028965, 0.32459188, -0.7046147, 0.34198123, 9.674721717834473, -1.2652738094329834, -2.1901512145996094, -0.002510044490918517, 0.004386174958199263, 0.8466469645500183, 
114, 1142524125, 0.5302034, 0.3247048, -0.70457006, 0.34209973, 9.705615043640137, -1.2836867570877075, -2.1986641883850098, -0.4536520838737488, 0.2490130364894867, 0.7452590465545654, 
115, 1142540792, 0.5302366, 0.32461277, -0.7046017, 0.34207043, 9.698260307312012, -1.2817422151565552, -2.2133970260620117, -0.512971043586731, 0.44715288281440735, 0.703407883644104, 
116, 1142557459, 0.5303394, 0.32443908, -0.70464647, 0.34198362, 9.693912506103516, -1.2837531566619873, -2.193450450897217, -0.388711154460907, 0.6866060495376587, 0.5740126967430115, 
117, 1142574126, 0.5304299, 0.3242944, -0.7046625, 0.34194744, 9.725299835205078, -1.3011882305145264, -2.1528992652893066, -0.1611679047346115, 0.8151049613952637, 0.6323326826095581, 
118, 1142590793, 0.5304979, 0.3242782, -0.70459265, 0.3420012, 9.719356536865234, -1.2913514375686646, -2.146932363510132, 0.15963755548000336, 1.0421102046966553, 0.3773711025714874, 
119, 1142607460, 0.53054464, 0.32429576, -0.7044955, 0.34211233, 9.701740264892578, -1.2634437084197998, -2.1145641803741455, 0.6754260063171387, 1.0923880338668823, 0.41472721099853516, 
120, 1142624127, 0.5305507, 0.32437184, -0.70438105, 0.34226623, 9.685086250305176, -1.2406750917434692, -2.0804872512817383, 0.6587907075881958, 0.9995035529136658, 0.4680401086807251, 
121, 1142640794, 0.5306108, 0.3243266, -0.7043296, 0.34232202, 9.695554733276367, -1.2594941854476929, -2.048577308654785, 0.361235111951828, 0.9732120037078857, 0.5309063792228699, 
122, 1142657461, 0.5306463, 0.32432804, -0.70427233, 0.3423834, 9.707047462463379, -1.2520997524261475, -2.035534143447876, 0.3024476170539856, 0.8242807388305664, 0.4438169002532959, 
123, 1142674128, 0.5307524, 0.3241545, -0.7042944, 0.34233785, 9.695483207702637, -1.239857792854309, -2.0401036739349365, -0.05041859298944473, 0.8850147724151611, 0.6746705174446106, 
124, 1142690795, 0.5308253, 0.32403442, -0.70431006, 0.34230626, 9.699423789978027, -1.2364928722381592, -2.0460472106933594, -0.26981696486473083, 0.7332211136817932, 0.6598151326179504, 
125, 1142707462, 0.5308333, 0.32400346, -0.7042991, 0.34234577, 9.71308708190918, -1.259040117263794, -2.066904306411743, -0.31942877173423767, 0.5951685905456543, 0.780771017074585, 
126, 1142724129, 0.5308263, 0.32397792, -0.70428365, 0.34241268, 9.71046257019043, -1.2538384199142456, -2.0516347885131836, 0.2344394475221634, 0.5375401377677917, 0.808061420917511, 
127, 1142740796, 0.5307958, 0.3239845, -0.7042653, 0.34249133, 9.694099426269531, -1.2403887510299683, -2.028454303741455, 0.29948288202285767, 0.40758126974105835, 0.7854582071304321, 
128, 1142757463, 0.53079665, 0.3239436, -0.70427215, 0.34251437, 9.707383155822754, -1.2909907102584839, -2.051891326904297, 0.45903077721595764, 0.3515726923942566, 0.6482061147689819, 
129, 1142774130, 0.5307714, 0.323951, -0.7042504, 0.34259138, 9.702906608581543, -1.276981234550476, -2.067930221557617, 0.9704330563545227, 0.341001033782959, 0.6235474944114685, 
130, 1142790797, 0.53071445, 0.32397678, -0.70423853, 0.34267947, 9.729657173156738, -1.2467297315597534, -2.082226037979126, 1.172824740409851, 0.1299012154340744, 0.668907642364502, 
131, 1142807464, 0.530703, 0.32394797, -0.7042458, 0.34270975, 9.706424713134766, -1.2714686393737793, -2.072382926940918, 0.759423017501831, 0.25172802805900574, 0.6178615689277649, 
132, 1142824131, 0.5306006, 0.3241035, -0.70416045, 0.3428964, 9.696873664855957, -1.3098243474960327, -2.1174850463867188, 0.9866779446601868, 0.2977220118045807, 0.6485134959220886, 
133, 1142840798, 0.5305, 0.32426098, -0.70406806, 0.34309304, 9.710070610046387, -1.2655490636825562, -2.1060984134674072, 0.9083608388900757, 0.3755269944667816, 0.6895644068717957, 
134, 1142857465, 0.5305108, 0.32422268, -0.7040602, 0.34312856, 9.673604011535645, -1.2561525106430054, -2.1391141414642334, 0.28610026836395264, 0.5228384137153625, 0.7045860886573792, 
135, 1142874132, 0.5305695, 0.3241246, -0.7040603, 0.34313023, 9.684247970581055, -1.30881667137146, -2.163026809692383, 0.4787462055683136, 0.6965949535369873, 0.6307063698768616, 
136, 1142890799, 0.5305464, 0.32419395, -0.70397735, 0.34327072, 9.702878952026367, -1.2928088903427124, -2.139702796936035, 0.9844626188278198, 0.6944627165794373, 0.5799355506896973, 
137, 1142907466, 0.5306262, 0.3240919, -0.7039557, 0.34328818, 9.69965934753418, -1.2743173837661743, -2.118516445159912, 1.0295729637145996, 0.8673419952392578, 0.5158846378326416, 
138, 1142924133, 0.5306244, 0.32416, -0.7038428, 0.343458, 9.710198402404785, -1.2707527875900269, -2.0747334957122803, 1.126075029373169, 0.9856278896331787, 0.5868381261825562, 
139, 1142940800, 0.530605, 0.32426864, -0.7037093, 0.34365875, 9.709834098815918, -1.2608007192611694, -2.0936355590820312, 1.0123100280761719, 1.0225038528442383, 0.610177755355835, 
140, 1142957467, 0.53062254, 0.3243091, -0.7036067, 0.3438037, 9.704705238342285, -1.2657171487808228, -2.0923030376434326, 1.1565542221069336, 1.0113173723220825, 0.5513774156570435, 
141, 1142974134, 0.53069293, 0.32420844, -0.70357484, 0.34385544, 9.679536819458008, -1.252469778060913, -2.0622150897979736, 1.3306629657745361, 0.9342552423477173, 0.6367509961128235, 
142, 1142990801, 0.5307102, 0.32429132, -0.7034414, 0.34402353, 9.73470401763916, -1.2754640579223633, -2.045020580291748, 0.8607660531997681, 1.1714223623275757, 0.5066959857940674, 
143, 1143007468, 0.5307605, 0.3242969, -0.70335746, 0.34411222, 9.719923973083496, -1.2565473318099976, -2.119643449783325, 0.5823495388031006, 1.0729479789733887, 0.5074964165687561, 
144, 1143024135, 0.5309265, 0.3240764, -0.7033715, 0.34403512, 9.71904182434082, -1.215147614479065, -2.1128029823303223, 0.005167362280189991, 1.2217450141906738, 0.6281066536903381, 
145, 1143040802, 0.53113323, 0.323811, -0.70339715, 0.3439136, 9.705474853515625, -1.2551566362380981, -2.108225107192993, -0.8690643906593323, 1.4454845190048218, 0.6990025043487549, 
146, 1143057469, 0.53130484, 0.32366827, -0.7033513, 0.34387684, 9.693805694580078, -1.3004446029663086, -2.1105546951293945, -0.6287662386894226, 1.564308524131775, 0.5243048071861267, 
147, 1143074136, 0.5315, 0.3234602, -0.70333254, 0.34380937, 9.717658996582031, -1.2738347053527832, -2.0766077041625977, -0.4632568359375, 1.573157548904419, 0.5974546074867249, 
148, 1143090803, 0.5316781, 0.3233032, -0.70328176, 0.34378546, 9.723193168640137, -1.2509889602661133, -2.0488293170928955, -0.9625253081321716, 1.7328593730926514, 0.6906144618988037, 
149, 1143107470, 0.53188235, 0.3230555, -0.7032832, 0.34369928, 9.728639602661133, -1.2474268674850464, -2.061937093734741, -1.5090490579605103, 1.7065038681030273, 0.9068753123283386, 
150, 1143124137, 0.5320711, 0.32289234, -0.7032297, 0.34366965, 9.734272956848145, -1.3155696392059326, -2.085064649581909, -1.5954086780548096, 1.8821107149124146, 0.7982581257820129, 
151, 1143140804, 0.532292, 0.3227098, -0.7031699, 0.34362155, 9.709760665893555, -1.2913988828659058, -2.0690505504608154, -1.2040915489196777, 1.9801883697509766, 0.6114456653594971, 
152, 1143157471, 0.5324598, 0.3226557, -0.7030499, 0.3436578, 9.69846248626709, -1.256590723991394, -2.070855140686035, -1.4552879333496094, 2.0322587490081787, 0.5765482187271118, 
153, 1143174138, 0.53274316, 0.32237127, -0.70302993, 0.3435264, 9.740335464477539, -1.2663745880126953, -2.0312511920928955, -1.7335829734802246, 2.1298561096191406, 0.650056779384613, 
154, 1143190805, 0.53302604, 0.32208958, -0.703006, 0.34340063, 9.720269203186035, -1.2564918994903564, -2.008009672164917, -1.8039151430130005, 2.166642427444458, 0.6765081882476807, 
155, 1143207472, 0.5332516, 0.32189268, -0.70293766, 0.34337524, 9.702836990356445, -1.2505295276641846, -1.9741770029067993, -1.1856247186660767, 2.1330320835113525, 0.7620738744735718, 
156, 1143224139, 0.53345823, 0.32167935, -0.7029012, 0.34332907, 9.7429780960083, -1.224238395690918, -1.9246546030044556, -0.8065183758735657, 1.834631323814392, 0.7697321176528931, 
157, 1143240806, 0.533623, 0.32150674, -0.70286, 0.34331906, 9.68563461303711, -1.2284021377563477, -1.8817180395126343, -0.7293344140052795, 1.6792774200439453, 0.8698776960372925, 
158, 1143257473, 0.533725, 0.32136256, -0.7028494, 0.34331703, 9.701620101928711, -1.2260316610336304, -1.8707035779953003, -0.7364547252655029, 1.2381436824798584, 1.0262881517410278, 
159, 1143274140, 0.53385174, 0.32112402, -0.70291, 0.343219, 9.758964538574219, -1.225189447402954, -1.896715760231018, -1.0991432666778564, 1.0045363903045654, 1.1027867794036865, 
160, 1143290807, 0.533942, 0.3209561, -0.7029482, 0.34315753, 9.701674461364746, -1.2489248514175415, -1.9475815296173096, -1.059482216835022, 0.8955288529396057, 1.044927716255188, 
161, 1143307474, 0.53398585, 0.32081524, -0.7029885, 0.34313858, 9.697399139404297, -1.2636263370513916, -1.9855232238769531, -0.6346954703330994, 0.6870030164718628, 1.182557463645935, 
162, 1143324141, 0.53397393, 0.32078832, -0.70297027, 0.34321964, 9.735628128051758, -1.317702293395996, -2.0373342037200928, -0.4697369337081909, 0.7301989197731018, 1.2060189247131348, 
163, 1143340808, 0.53399694, 0.32071102, -0.7029595, 0.3432782, 9.7276611328125, -1.2780369520187378, -1.9965643882751465, -0.21533876657485962, 0.8509050607681274, 1.1736122369766235, 
164, 1143357475, 0.53403693, 0.32060128, -0.70296675, 0.34330353, 9.692069053649902, -1.2403312921524048, -2.024995803833008, -0.689167320728302, 0.8871599435806274, 1.2337764501571655, 
165, 1143374142, 0.53408176, 0.32047653, -0.7029823, 0.34331843, 9.708048820495605, -1.2595220804214478, -1.9968291521072388, -0.8794889450073242, 0.9047493934631348, 1.2907456159591675, 
166, 1143390809, 0.53408515, 0.3204045, -0.70298934, 0.34336585, 9.689728736877441, -1.2802510261535645, -1.9413962364196777, -0.626934826374054, 0.7140372395515442, 1.2814992666244507, 
167, 1143407476, 0.53404427, 0.32041657, -0.70296615, 0.34346554, 9.714164733886719, -1.2726866006851196, -1.9078705310821533, -0.3823719918727875, 0.5965646505355835, 1.2027404308319092, 
168, 1143424143, 0.5339671, 0.32046974, -0.7029279, 0.34361428, 9.71558666229248, -1.2879732847213745, -1.9015414714813232, 0.09673276543617249, 0.4870063066482544, 1.2450141906738281, 
169, 1143440810, 0.5339122, 0.32039768, -0.70297647, 0.34366745, 9.722580909729004, -1.2841354608535767, -1.8849502801895142, 0.2938865125179291, 0.15755011141300201, 1.3677245378494263, 
170, 1143457477, 0.53386784, 0.32032627, -0.70303315, 0.3436869, 9.726311683654785, -1.2900978326797485, -1.9301589727401733, 0.23755139112472534, 0.0772671177983284, 1.210654616355896, 
171, 1143474144, 0.53375953, 0.32031435, -0.7030703, 0.34379008, 9.713556289672852, -1.3052330017089844, -1.9940311908721924, 0.861207902431488, -0.09355038404464722, 1.375702977180481, 
172, 1143490811, 0.5336499, 0.32029852, -0.7031096, 0.3438946, 9.718595504760742, -1.3060386180877686, -1.9976246356964111, 0.9191821217536926, -0.10374423116445541, 1.3974609375, 
173, 1143507478, 0.53355217, 0.32029188, -0.703129, 0.34401304, 9.693615913391113, -1.3182376623153687, -2.0350120067596436, 0.7111814022064209, 0.08597543090581894, 1.3987030982971191, 
174, 1143524145, 0.5335338, 0.3201517, -0.7031986, 0.34402952, 9.699800491333008, -1.3276039361953735, -2.0589003562927246, 0.8813970685005188, 0.16796809434890747, 1.3088858127593994, 
175, 1143540812, 0.53350466, 0.32009333, -0.7032116, 0.34410247, 9.706549644470215, -1.332515001296997, -2.0383691787719727, 0.9154107570648193, 0.36225324869155884, 1.1607035398483276, 
176, 1143557479, 0.5334789, 0.32006136, -0.7032014, 0.34419298, 9.713996887207031, -1.332946538925171, -2.0551061630249023, 1.0260319709777832, 0.4602474570274353, 1.0596998929977417, 
177, 1143574146, 0.5334866, 0.31998983, -0.70320266, 0.3442451, 9.694762229919434, -1.3202821016311646, -2.033566474914551, 0.9519087672233582, 0.5399156808853149, 0.9905199408531189, 
178, 1143590813, 0.5335043, 0.31993872, -0.7031861, 0.34429902, 9.70434284210205, -1.3084228038787842, -2.042229175567627, 0.6439544558525085, 0.6753172278404236, 0.9193038940429688, 
179, 1143607480, 0.5334824, 0.32000023, -0.703098, 0.34445545, 9.717893600463867, -1.323381781578064, -2.0387063026428223, 0.6518815755844116, 0.8792711496353149, 0.9142069816589355, 
180, 1143624147, 0.53353715, 0.31994203, -0.70306313, 0.3444957, 9.689793586730957, -1.3192377090454102, -2.0298380851745605, 0.3892490565776825, 0.935209333896637, 0.8045974373817444, 
181, 1143640814, 0.5335631, 0.31995612, -0.7029873, 0.34459743, 9.701379776000977, -1.3428075313568115, -2.0191898345947266, 0.43280982971191406, 1.0116568803787231, 0.7910674214363098, 
182, 1143657481, 0.53364486, 0.31990287, -0.7029281, 0.3446411, 9.708685874938965, -1.300752878189087, -1.9866284132003784, 0.14670953154563904, 1.1945762634277344, 0.7283867597579956, 
183, 1143674148, 0.53374976, 0.3198188, -0.70287585, 0.34466332, 9.71214771270752, -1.313188076019287, -2.0074610710144043, 0.08703195303678513, 1.276319146156311, 0.7206516861915588, 
184, 1143690815, 0.5338402, 0.31976944, -0.70280075, 0.34472218, 9.703371047973633, -1.3186434507369995, -2.003993034362793, 0.0851750299334526, 1.3471125364303589, 0.7494916319847107, 
185, 1143707482, 0.5339391, 0.31974357, -0.70270693, 0.34478402, 9.712291717529297, -1.3001679182052612, -1.9793739318847656, -0.09726423025131226, 1.4572473764419556, 0.6471176743507385, 
186, 1143724149, 0.5339851, 0.31978106, -0.7025969, 0.34490237, 9.7197904586792, -1.3169920444488525, -1.973129391670227, -0.09880098700523376, 1.3338196277618408, 0.7712239623069763, 
187, 1143740816, 0.53408724, 0.3197139, -0.7025386, 0.3449252, 9.719405174255371, -1.335906744003296, -1.9377936124801636, -0.09295490384101868, 1.2895867824554443, 0.6929900646209717, 
188, 1143757483, 0.53429204, 0.31945005, -0.70256734, 0.34479403, 9.717900276184082, -1.324914813041687, -1.9181650876998901, 0.024709852412343025, 1.2934606075286865, 0.640605628490448, 
189, 1143774150, 0.5343931, 0.3193761, -0.7025251, 0.344792, 9.705739974975586, -1.2985601425170898, -1.8858178853988647, 0.04766523092985153, 1.1364097595214844, 0.6168562173843384, 
190, 1143790817, 0.53446496, 0.3193288, -0.70248026, 0.34481576, 9.731291770935059, -1.28187096118927, -1.9385600090026855, -0.19514316320419312, 1.0774173736572266, 0.7514573931694031, 
191, 1143807484, 0.53455144, 0.31922248, -0.70246214, 0.34481704, 9.701726913452148, -1.2751919031143188, -1.944576382637024, -0.0702236145734787, 1.0566006898880005, 0.8765050768852234, 
192, 1143824151, 0.5345563, 0.31929514, -0.70237476, 0.3449203, 9.74859619140625, -1.3341835737228394, -1.9577796459197998, 0.0838431790471077, 0.9160767197608948, 0.6864972114562988, 
193, 1143840818, 0.53457606, 0.319333, -0.70229346, 0.34502006, 9.708773612976074, -1.3381091356277466, -1.9725406169891357, 0.6701306700706482, 0.9227615594863892, 0.6743568181991577, 
194, 1143857485, 0.534658, 0.31926182, -0.70225847, 0.34503013, 9.712061882019043, -1.337921380996704, -1.9795849323272705, 0.4063454866409302, 0.9956041574478149, 0.6655973196029663, 
195, 1143874152, 0.5347412, 0.3191836, -0.7022259, 0.34503973, 9.71336841583252, -1.3232096433639526, -1.9586596488952637, 0.06848835945129395, 1.0564212799072266, 0.7603386640548706, 
196, 1143890819, 0.5348378, 0.3191235, -0.7021871, 0.34502476, 9.73389720916748, -1.3342329263687134, -1.9677034616470337, -0.044354792684316635, 1.0525538921356201, 0.5470361113548279, 
197, 1143907486, 0.5348956, 0.3191552, -0.702098, 0.3450872, 9.7249174118042, -1.3333675861358643, -1.9502986669540405, 0.16087977588176727, 1.112711787223816, 0.5090203881263733, 
198, 1143924153, 0.53495854, 0.31917232, -0.70201516, 0.34514225, 9.71392822265625, -1.318239450454712, -1.9036897420883179, 0.34593793749809265, 1.0864651203155518, 0.49546486139297485, 
199, 1143940820, 0.5350502, 0.3191415, -0.7019586, 0.3451436, 9.698171615600586, -1.3102703094482422, -1.902685284614563, 0.2912035584449768, 1.0463299751281738, 0.423185795545578, 
200, 1143957487, 0.5351047, 0.31915662, -0.7019031, 0.3451581, 9.727529525756836, -1.3320220708847046, -1.9057133197784424, 0.14681197702884674, 0.8490353226661682, 0.4302164912223816, 
201, 1143974154, 0.5352257, 0.31904215, -0.70190066, 0.34508127, 9.713200569152832, -1.3591947555541992, -1.893144130706787, -0.007651793770492077, 0.9269363880157471, 0.4820438027381897, 
202, 1143990821, 0.53531116, 0.31900552, -0.70187354, 0.34503767, 9.70287799835205, -1.3464261293411255, -1.9309755563735962, 0.006877009756863117, 0.8182616233825684, 0.36682507395744324, 
203, 1144007488, 0.53528005, 0.31919608, -0.7017507, 0.3451597, 9.697665214538574, -1.3420253992080688, -1.8924144506454468, 0.14550574123859406, 0.7274903059005737, 0.3215674161911011, 
204, 1144024155, 0.5353764, 0.31915605, -0.70172644, 0.3450965, 9.734450340270996, -1.3523213863372803, -1.8957940340042114, 0.20280134677886963, 0.7725814580917358, 0.2290927916765213, 
205, 1144040822, 0.5354585, 0.3191712, -0.7016694, 0.3450713, 9.735342025756836, -1.3227097988128662, -1.9066499471664429, 0.34308210015296936, 0.8271620869636536, 0.12920325994491577, 
206, 1144057489, 0.53555477, 0.3191263, -0.7016663, 0.34496984, 9.718103408813477, -1.3130438327789307, -1.8995275497436523, 0.27207088470458984, 0.5720211863517761, 0.09649583697319031, 
207, 1144074156, 0.5355874, 0.31921422, -0.7015947, 0.34498328, 9.7371187210083, -1.3285177946090698, -1.892543077468872, 0.4899325668811798, 0.6183162331581116, 0.0934351310133934, 
208, 1144090823, 0.53552794, 0.31943595, -0.70148766, 0.3450876, 9.722290992736816, -1.3178935050964355, -1.8554188013076782, 0.6205189228057861, 0.35049697756767273, 0.12533573806285858, 
209, 1144107490, 0.53556186, 0.31943893, -0.70148945, 0.34502876, 9.716261863708496, -1.2989428043365479, -1.8418970108032227, 0.5887206792831421, 0.2534632682800293, 0.22023078799247742, 
210, 1144124157, 0.5355099, 0.31959182, -0.70144266, 0.3450629, 9.718818664550781, -1.312857747077942, -1.8452188968658447, 0.7750658392906189, 0.028993573039770126, 0.14989830553531647, 
211, 1144140824, 0.53539765, 0.31979528, -0.70140487, 0.34512565, 9.717823028564453, -1.30219304561615, -1.8353228569030762, 1.0697720050811768, -0.3334517180919647, 0.200169637799263, 
212, 1144157491, 0.535335, 0.31986034, -0.70143837, 0.3450942, 9.716131210327148, -1.276617407798767, -1.865896463394165, 1.0000542402267456, -0.4122748076915741, 0.336313933134079, 
213, 1144174158, 0.5352253, 0.31998378, -0.701467, 0.34509212, 9.711710929870605, -1.288958191871643, -1.9071986675262451, 0.8616369366645813, -0.6099344491958618, 0.3877250552177429, 
214, 1144190825, 0.5351603, 0.32003462, -0.7015228, 0.3450319, 9.733685493469238, -1.306107521057129, -1.9968757629394531, 0.6628053784370422, -0.527858555316925, 0.3790166974067688, 
215, 1144207492, 0.5350814, 0.32014957, -0.70154005, 0.3450129, 9.733620643615723, -1.340421438217163, -2.0520153045654297, 0.8554386496543884, -0.45402994751930237, 0.24009345471858978, 
216, 1144224159, 0.53502315, 0.32026097, -0.70153654, 0.34500664, 9.692673683166504, -1.3136804103851318, -2.0363173484802246, 0.7127630114555359, -0.20612460374832153, 0.24740585684776306, 
217, 1144240826, 0.5350466, 0.32027426, -0.70154554, 0.34493983, 9.69458293914795, -1.3565595149993896, -2.0164377689361572, 0.5876064896583557, 0.13764263689517975, 0.1923513561487198, 
218, 1144257493, 0.5350615, 0.32035315, -0.7015002, 0.3449355, 9.717735290527344, -1.3272771835327148, -1.9894477128982544, 0.7456369400024414, 0.35999932885169983, 0.10466630756855011, 
219, 1144274160, 0.535092, 0.3204353, -0.7014372, 0.34494004, 9.719193458557129, -1.2787364721298218, -1.977113962173462, 0.9237667918205261, 0.4968671202659607, 0.023070640861988068, 
220, 1144290827, 0.5351153, 0.32052603, -0.70137477, 0.34494647, 9.73233413696289, -1.2637438774108887, -1.957038164138794, 0.8535879850387573, 0.46510738134384155, 0.02924329787492752, 
221, 1144307494, 0.5350995, 0.3206968, -0.70127684, 0.3450116, 9.72490406036377, -1.286238670349121, -1.8817931413650513, 0.8536521196365356, 0.45837128162384033, 0.014554417692124844, 
222, 1144324161, 0.5350673, 0.32087308, -0.70118695, 0.34508023, 9.730437278747559, -1.294372320175171, -1.8829164505004883, 0.933595597743988, 0.3389072120189667, 0.05532342940568924, 
223, 1144340828, 0.53502506, 0.32102522, -0.7011191, 0.34514213, 9.71330738067627, -1.3119808435440063, -1.9111449718475342, 0.9723988771438599, 0.2210247814655304, 0.18743373453617096, 
224, 1144357495, 0.535034, 0.32105976, -0.70111954, 0.34509528, 9.708857536315918, -1.270695447921753, -1.9059966802597046, 0.9429059028625488, 0.0767996683716774, 0.1576717644929886, 
225, 1144374162, 0.53499645, 0.32118207, -0.7010795, 0.34512097, 9.713509559631348, -1.2815258502960205, -1.9214988946914673, 0.8631479144096375, 0.09480540454387665, 0.20167438685894012, 
226, 1144390829, 0.53491664, 0.3213493, -0.7010338, 0.34518197, 9.733353614807129, -1.2794082164764404, -1.909029483795166, 0.8330914974212646, -0.050412196666002274, 0.295737087726593, 
227, 1144407496, 0.53488636, 0.32139838, -0.7010385, 0.34517354, 9.709884643554688, -1.2685359716415405, -1.9160125255584717, 0.8166736960411072, -0.015066670253872871, 0.4205476939678192, 
228, 1144424163, 0.5348466, 0.32144353, -0.70105976, 0.34514973, 9.715814590454102, -1.2807329893112183, -1.9193928241729736, 0.7121355533599854, -0.14699769020080566, 0.44234415888786316, 
229, 1144440830, 0.534801, 0.3214889, -0.7010933, 0.34511036, 9.73076343536377, -1.2843865156173706, -1.9497332572937012, 0.6878610253334045, -0.26504021883010864, 0.41484248638153076, 
230, 1144457497, 0.53479075, 0.32145172, -0.7011601, 0.34502506, 9.728012084960938, -1.27322518825531, -1.9477341175079346, 0.6423280835151672, -0.2180665135383606, 0.5162367224693298, 
231, 1144474164, 0.5347285, 0.32152367, -0.70116943, 0.34503552, 9.723811149597168, -1.3056410551071167, -1.9644213914871216, 0.61117023229599, -0.1327442228794098, 0.5525555610656738, 
232, 1144490831, 0.5346381, 0.32166728, -0.7011429, 0.34509555, 9.710610389709473, -1.336097240447998, -1.9623587131500244, 0.7810592651367188, -0.12719906866550446, 0.46496012806892395, 
233, 1144507498, 0.5345764, 0.32176325, -0.70113206, 0.34512383, 9.690546035766602, -1.3021742105484009, -1.970962405204773, 1.0671402215957642, -0.10804717242717743, 0.41611671447753906, 
234, 1144524165, 0.53454757, 0.32180962, -0.7011365, 0.34511623, 9.706377983093262, -1.2739681005477905, -1.9537521600723267, 0.9225629568099976, -0.011743423528969288, 0.4149833619594574, 
235, 1144540832, 0.53449196, 0.32194942, -0.7010868, 0.34517318, 9.72243881225586, -1.3287724256515503, -2.0063445568084717, 0.8664007782936096, 0.11233729869127274, 0.31275665760040283, 
236, 1144557499, 0.5344774, 0.3220271, -0.70104617, 0.3452054, 9.70751667022705, -1.3112258911132812, -2.0109853744506836, 1.0719298124313354, 0.27431198954582214, 0.32102957367897034, 
237, 1144574166, 0.53447986, 0.3220314, -0.7010531, 0.34518373, 9.708704948425293, -1.2921233177185059, -1.9547107219696045, 1.1476922035217285, 0.12753844261169434, 0.4000319540500641, 
238, 1144590833, 0.53444237, 0.32212237, -0.7010231, 0.3452179, 9.703228950500488, -1.3184453248977661, -1.9065029621124268, 0.9044740200042725, 0.1373993158340454, 0.38745611906051636, 
239, 1144607500, 0.5343903, 0.3222219, -0.70099413, 0.34526417, 9.711803436279297, -1.2916076183319092, -1.8890478610992432, 0.8531461954116821, 0.09394737333059311, 0.4538954198360443, 
240, 1144624167, 0.5343359, 0.32229158, -0.7009973, 0.34527707, 9.735780715942383, -1.2675777673721313, -1.8734846115112305, 0.6639708876609802, -0.06380123645067215, 0.5286333560943604, 
241, 1144640834, 0.53426987, 0.32232445, -0.7010409, 0.34526002, 9.731425285339355, -1.241426706314087, -1.8917099237442017, 0.20344166457653046, -0.23548957705497742, 0.7350716590881348, 
242, 1144657501, 0.5342241, 0.32228592, -0.70113766, 0.34517032, 9.724210739135742, -1.2730424404144287, -1.9321093559265137, 0.22089673578739166, -0.44229933619499207, 0.7364932298660278, 
243, 1144674168, 0.5341558, 0.32228783, -0.70121485, 0.34511724, 9.719982147216797, -1.278563380241394, -1.9330874681472778, 0.43640196323394775, -0.4637371301651001, 0.7194222807884216, 
244, 1144690835, 0.53402793, 0.32237217, -0.70126545, 0.34513357, 9.73958969116211, -1.316983938217163, -1.9382272958755493, 0.5205397009849548, -0.5884069800376892, 0.8048535585403442, 
245, 1144707502, 0.53388655, 0.32247588, -0.70131046, 0.34516415, 9.706981658935547, -1.3487999439239502, -1.941348671913147, 0.5502376556396484, -0.6273062229156494, 0.8106291890144348, 
246, 1144724169, 0.53372335, 0.32264575, -0.70131385, 0.34525073, 9.71204662322998, -1.328553557395935, -1.9653701782226562, 0.5341912508010864, -0.5126445293426514, 0.7842481136322021, 
247, 1144740836, 0.5336484, 0.32265794, -0.70139277, 0.34519494, 9.7084321975708, -1.3112844228744507, -1.9739917516708374, 0.3021146059036255, -0.5117865800857544, 0.7129679322242737, 
248, 1144757503, 0.53354174, 0.3227558, -0.7014168, 0.3452195, 9.714653015136719, -1.3081704378128052, -2.0282368659973145, 0.3043941557407379, -0.3559205234050751, 0.7222525477409363, 
249, 1144774170, 0.533492, 0.3227926, -0.7014563, 0.3451816, 9.715560913085938, -1.3245701789855957, -2.052525043487549, 0.37529006600379944, -0.23826853930950165, 0.5409530401229858, 
250, 1144790837, 0.53346044, 0.32283187, -0.7014708, 0.34516442, 9.715971946716309, -1.3146567344665527, -2.0286428928375244, 0.5938560366630554, -0.029230492189526558, 0.48771703243255615, 
251, 1144807504, 0.53343743, 0.32288873, -0.70146364, 0.34516093, 9.720396041870117, -1.3325132131576538, -2.010533332824707, 0.5253740549087524, 0.11609595268964767, 0.4291727840900421, 
252, 1144824171, 0.53341407, 0.32299188, -0.70141274, 0.34520426, 9.727209091186523, -1.3336716890335083, -1.9897233247756958, 0.4991787374019623, 0.34776926040649414, 0.37717264890670776, 
253, 1144840838, 0.5334471, 0.3230175, -0.7013824, 0.3451908, 9.705819129943848, -1.3121247291564941, -1.9804856777191162, 0.5709455013275146, 0.48578327894210815, 0.3045862317085266, 
254, 1144857505, 0.53347963, 0.32304353, -0.7013334, 0.34521568, 9.734496116638184, -1.3133164644241333, -1.975184440612793, 0.7215480804443359, 0.6490257382392883, 0.41524583101272583, 
255, 1144874172, 0.5334996, 0.3231012, -0.70127827, 0.345243, 9.71886920928955, -1.2884658575057983, -1.9640343189239502, 0.7138772010803223, 0.5682305097579956, 0.32206687331199646, 
256, 1144890839, 0.5335112, 0.32315916, -0.70122236, 0.34528446, 9.713510513305664, -1.294229507446289, -1.9689520597457886, 0.9450188875198364, 0.5389935374259949, 0.36430221796035767, 
257, 1144907506, 0.5334729, 0.3232812, -0.7011479, 0.34538046, 9.707870483398438, -1.2801717519760132, -1.9319968223571777, 0.8628661632537842, 0.44349661469459534, 0.4698009192943573, 
258, 1144924173, 0.53343076, 0.32340953, -0.70107204, 0.34547943, 9.698840141296387, -1.2819424867630005, -1.9323140382766724, 0.7413083910942078, 0.44409865140914917, 0.4906368851661682, 
259, 1144940840, 0.5334258, 0.323449, -0.70104223, 0.34551054, 9.71694278717041, -1.2905406951904297, -1.9295473098754883, 0.8941649794578552, 0.3696296811103821, 0.49750110507011414, 
260, 1144957507, 0.53342867, 0.32344952, -0.7010253, 0.34554014, 9.715188980102539, -1.3000949621200562, -1.942751169204712, 0.9966029524803162, 0.4036305546760559, 0.6292784810066223, 
261, 1144974174, 0.533401, 0.32348636, -0.7010027, 0.34559396, 9.711750030517578, -1.2967514991760254, -1.9454106092453003, 1.2435990571975708, 0.2576765716075897, 0.6202754974365234, 
262, 1144990841, 0.5333365, 0.32358533, -0.70094556, 0.3457167, 9.711105346679688, -1.3043081760406494, -1.92656672000885, 1.0876432657241821, 0.33776748180389404, 0.7558819651603699, 
263, 1145007508, 0.53330433, 0.32362083, -0.7009236, 0.34577778, 9.71582317352295, -1.297492504119873, -1.962964653968811, 1.0118552446365356, 0.2875281572341919, 0.7156956791877747, 
264, 1145024175, 0.53324556, 0.3236852, -0.7008964, 0.3458633, 9.734207153320312, -1.2813103199005127, -1.9436428546905518, 0.7000846862792969, 0.2535400986671448, 0.8341544270515442, 
265, 1145040842, 0.53323597, 0.3236412, -0.7009224, 0.34586635, 9.728655815124512, -1.2844313383102417, -1.949141025543213, 0.34104594588279724, 0.27249351143836975, 0.9299331307411194, 
266, 1145057509, 0.53325135, 0.32357228, -0.7009651, 0.34582072, 9.725424766540527, -1.294836163520813, -1.9470263719558716, 0.1198546290397644, 0.25127336382865906, 0.8097583055496216, 
267, 1145074176, 0.53318924, 0.32363054, -0.70095825, 0.3458757, 9.70864200592041, -1.3214565515518188, -1.9791072607040405, 0.13153402507305145, 0.15949030220508575, 0.8736876845359802, 
268, 1145090843, 0.5332141, 0.32355276, -0.7010035, 0.34581858, 9.737283706665039, -1.3227382898330688, -1.9941627979278564, -0.004053209442645311, 0.28514617681503296, 0.7971696257591248, 
269, 1145107510, 0.5332629, 0.3234487, -0.70104206, 0.34576258, 9.711607933044434, -1.337738037109375, -2.013589859008789, -0.29628127813339233, 0.5153787136077881, 0.8853029012680054, 
270, 1145124177, 0.53331864, 0.32339737, -0.7010384, 0.34573194, 9.705924987792969, -1.3464761972427368, -2.04915189743042, -0.15822885930538177, 0.6750611066818237, 0.6637146472930908, 
271, 1145140844, 0.5333601, 0.3234092, -0.7009707, 0.3457942, 9.700257301330566, -1.324415922164917, -2.037295341491699, 0.49678394198417664, 0.9304454326629639, 0.6268580555915833, 
272, 1145157511, 0.5334403, 0.32336625, -0.70091486, 0.34582373, 9.718985557556152, -1.3200279474258423, -1.9903892278671265, 0.6303669214248657, 1.0447803735733032, 0.5896555185317993, 
273, 1145174178, 0.5334874, 0.32337636, -0.70083565, 0.3459025, 9.726801872253418, -1.2975441217422485, -1.9567378759384155, 0.6606796383857727, 1.0328450202941895, 0.6451327204704285, 
274, 1145190845, 0.5335221, 0.32338205, -0.700768, 0.3459807, 9.730949401855469, -1.2723842859268188, -1.920475959777832, 0.5402103066444397, 0.9519087672233582, 0.7303077578544617, 
275, 1145207512, 0.53355634, 0.323373, -0.70070624, 0.3460614, 9.72397232055664, -1.282996654510498, -1.8964804410934448, 0.49911463260650635, 0.9657139182090759, 0.8271620869636536, 
276, 1145224179, 0.53358907, 0.32333654, -0.7006774, 0.34610355, 9.716994285583496, -1.314309000968933, -1.9037986993789673, 0.5357152223587036, 0.7608380317687988, 0.8228079080581665, 
277, 1145240846, 0.5336206, 0.32329097, -0.70065606, 0.34614044, 9.732704162597656, -1.2871041297912598, -1.8975977897644043, 0.6674541234970093, 0.7036320567131042, 0.8278024196624756, 
278, 1145257513, 0.5335915, 0.32328707, -0.70064265, 0.34621605, 9.71929931640625, -1.2621238231658936, -1.870380163192749, 0.6365524530410767, 0.43846383690834045, 1.019628643989563, 
279, 1145274180, 0.53357327, 0.3232384, -0.7006581, 0.3462584, 9.723363876342773, -1.298835039138794, -1.9025641679763794, 0.4089323580265045, 0.3868542015552521, 1.1185322999954224, 
280, 1145290847, 0.5335588, 0.3231814, -0.7006768, 0.3462959, 9.705100059509277, -1.3391283750534058, -1.964735984802246, 0.8744175434112549, 0.3221181035041809, 1.0417580604553223, 
281, 1145307514, 0.5335086, 0.32320884, -0.7006482, 0.34640548, 9.719659805297852, -1.3260819911956787, -1.9798129796981812, 1.1686691045761108, 0.36402052640914917, 0.9799291491508484, 
282, 1145324181, 0.5334634, 0.32322815, -0.7006173, 0.3465196, 9.700460433959961, -1.3195843696594238, -2.0075392723083496, 1.2390527725219727, 0.4155788719654083, 1.0029035806655884, 
283, 1145340848, 0.5334564, 0.32318544, -0.70059884, 0.3466076, 9.706958770751953, -1.343390941619873, -2.0067596435546875, 1.331629753112793, 0.5644782781600952, 1.0359183549880981, 
284, 1145357515, 0.53343946, 0.3232006, -0.7005258, 0.34676704, 9.723845481872559, -1.3522992134094238, -1.990562915802002, 1.4341830015182495, 0.8248441219329834, 1.0318330526351929, 
285, 1145374182, 0.5334222, 0.32321322, -0.70044464, 0.34694588, 9.710089683532715, -1.3246482610702515, -1.9745508432388306, 1.5234177112579346, 0.9080854058265686, 1.1044834852218628, 
286, 1145390849, 0.53347135, 0.32310566, -0.70041525, 0.3470298, 9.724040031433105, -1.2967517375946045, -1.9279017448425293, 1.2024649381637573, 0.9909425377845764, 1.1284058094024658, 
287, 1145407516, 0.53355634, 0.32292035, -0.7004343, 0.34703308, 9.722915649414062, -1.2876535654067993, -1.9291001558303833, 0.45000237226486206, 0.9749987125396729, 1.2090858221054077, 
288, 1145424183, 0.5335967, 0.32279235, -0.7004239, 0.3471112, 9.709928512573242, -1.3093525171279907, -1.9104983806610107, 0.16955606639385223, 1.0437047481536865, 1.4386781454086304, 
289, 1145440850, 0.53365445, 0.32261252, -0.70045304, 0.34713066, 9.715538024902344, -1.3082432746887207, -1.9380338191986084, -0.41015538573265076, 0.9729881286621094, 1.5183719396591187, 
290, 1145457517, 0.533757, 0.3223726, -0.7004916, 0.34711814, 9.749788284301758, -1.33659029006958, -1.9809484481811523, -0.7957674264907837, 1.2106611728668213, 1.584337592124939, 
291, 1145474184, 0.53387535, 0.3220776, -0.7005551, 0.34708145, 9.7289457321167, -1.3275737762451172, -1.9650819301605225, -1.1497093439102173, 1.2653697729110718, 1.7654834985733032, 
292, 1145490851, 0.5340067, 0.32179525, -0.7006076, 0.3470354, 9.682021141052246, -1.3473739624023438, -1.9433889389038086, -1.324375033378601, 1.343936800956726, 1.646909475326538, 
293, 1145507518, 0.5341308, 0.32153293, -0.7006518, 0.3469982, 9.71196174621582, -1.3218175172805786, -1.9456063508987427, -1.4527586698532104, 1.3512746095657349, 1.6326943635940552, 
294, 1145524185, 0.53427464, 0.32122728, -0.70072925, 0.34690404, 9.733942985534668, -1.2716071605682373, -1.9559212923049927, -2.1256041526794434, 1.3227806091308594, 1.6811022758483887, 
295, 1145540852, 0.53445244, 0.3208591, -0.7008254, 0.3467765, 9.728721618652344, -1.358411192893982, -1.9206594228744507, -2.4168591499328613, 1.459450125694275, 1.7820162773132324, 
296, 1145557519, 0.5346037, 0.3205492, -0.70087963, 0.34672025, 9.689345359802246, -1.3910681009292603, -1.9247069358825684, -1.6911232471466064, 1.5029019117355347, 1.7320204973220825, 
297, 1145574186, 0.5346826, 0.3203377, -0.7008896, 0.3467741, 9.706002235412598, -1.309507966041565, -1.8927143812179565, -0.4135362505912781, 1.3043267726898193, 1.717267632484436, 
298, 1145590853, 0.534746, 0.32015067, -0.70090795, 0.3468119, 9.740891456604004, -1.2868536710739136, -1.881051778793335, -0.7995837330818176, 1.1677086353302002, 1.6694871187210083, 
299, 1145607520, 0.5348479, 0.31986952, -0.7009868, 0.34675476, 9.761882781982422, -1.3257535696029663, -1.924971580505371, -1.3511018753051758, 1.075195550918579, 1.7291004657745361, 
300, 1145624187, 0.534942, 0.3195376, -0.7010927, 0.3467014, 9.71311092376709, -1.3778718709945679, -1.9012994766235352, -1.44838547706604, 1.0464069843292236, 2.0438294410705566, 
301, 1145640854, 0.5350807, 0.31914577, -0.70123243, 0.34656608, 9.727617263793945, -1.3785704374313354, -1.8950186967849731, -1.9665237665176392, 1.0575355291366577, 1.9479609727859497, 
302, 1145657521, 0.53516835, 0.3188463, -0.70133483, 0.34649867, 9.714634895324707, -1.3365124464035034, -1.8855159282684326, -1.8472325801849365, 0.9905582070350647, 1.9303905963897705, 
303, 1145674188, 0.53527766, 0.31848854, -0.70145905, 0.34640783, 9.709904670715332, -1.3676295280456543, -1.8955976963043213, -1.9003660678863525, 1.043704628944397, 2.051769256591797, 
304, 1145690855, 0.53532815, 0.3182524, -0.7015187, 0.34642577, 9.704636573791504, -1.4297977685928345, -1.9061864614486694, -0.8056411147117615, 0.9711183309555054, 1.8939056396484375, 
305, 1145707522, 0.53534997, 0.3180601, -0.7015563, 0.34649253, 9.745733261108398, -1.3578083515167236, -1.8784043788909912, -0.26879891753196716, 0.9137203097343445, 1.876258373260498, 
306, 1145724189, 0.5353775, 0.31777748, -0.70165884, 0.34650177, 9.724700927734375, -1.3213289976119995, -1.8268712759017944, -0.8065503239631653, 0.7525907754898071, 2.1833033561706543, 
307, 1145740856, 0.53537405, 0.31749114, -0.70178986, 0.3465041, 9.708417892456055, -1.3958513736724854, -1.8393679857254028, -1.0707964897155762, 0.5213465094566345, 2.3514251708984375, 
308, 1145757523, 0.5353467, 0.3172216, -0.70190644, 0.3465573, 9.708420753479004, -1.4247654676437378, -1.8376010656356812, -0.38335171341896057, 0.4849252998828888, 2.433680295944214, 
309, 1145774190, 0.5352535, 0.31703612, -0.70200884, 0.34666336, 9.706415176391602, -1.381212830543518, -1.8354889154434204, 0.022782497107982635, 0.18232400715351105, 2.4062235355377197, 
310, 1145790857, 0.5351847, 0.3167988, -0.7021376, 0.34672594, 9.742817878723145, -1.373830795288086, -1.8855700492858887, -0.23110979795455933, 0.1869727075099945, 2.4446940422058105, 
311, 1145807524, 0.53508204, 0.3165968, -0.7022529, 0.34683514, 9.699271202087402, -1.3794306516647339, -1.898469090461731, -0.13647086918354034, 0.1476956307888031, 2.5624606609344482, 
312, 1145824191, 0.5349881, 0.31637606, -0.7023812, 0.34692165, 9.73023796081543, -1.4130616188049316, -1.9064351320266724, -0.45264044404029846, 0.14909151196479797, 2.5925557613372803, 
313, 1145840858, 0.53495705, 0.31604385, -0.70255816, 0.34691384, 9.74730396270752, -1.3550227880477905, -1.9029598236083984, -1.0175094604492188, 0.24777725338935852, 2.6434099674224854, 
314, 1145857525, 0.5349362, 0.3157126, -0.7027299, 0.3469001, 9.72992992401123, -1.3714773654937744, -1.9184123277664185, -1.1158236265182495, 0.3121163547039032, 2.595783233642578, 
315, 1145874192, 0.5348913, 0.31539246, -0.70290107, 0.34691367, 9.693818092346191, -1.4810749292373657, -1.8575172424316406, -0.38716796040534973, 0.1519729495048523, 2.6026856899261475, 
316, 1145890859, 0.53477573, 0.31518936, -0.7030332, 0.34700838, 9.712238311767578, -1.4530160427093506, -1.8615353107452393, -0.008561044000089169, -0.04148617014288902, 2.5436227321624756, 
317, 1145907526, 0.5346821, 0.31494057, -0.7031721, 0.34709725, 9.708187103271484, -1.424383521080017, -1.8754311800003052, -0.1352158486843109, 0.11334900557994843, 2.6820850372314453, 
318, 1145924193, 0.5345963, 0.31465334, -0.70335096, 0.3471274, 9.702046394348145, -1.4730110168457031, -1.878111720085144, -0.8531782031059265, -0.0037202448584139347, 2.749894857406616, 
319, 1145940860, 0.5345305, 0.3143386, -0.70351833, 0.34717494, 9.67137622833252, -1.5289336442947388, -1.9299192428588867, -0.4127422869205475, 0.16039954125881195, 2.7892870903015137, 
320, 1145957527, 0.53441834, 0.3141129, -0.70364237, 0.34730056, 9.676278114318848, -1.5059565305709839, -1.9183931350708008, 0.15450862050056458, 0.10908448696136475, 2.718186378479004, 
321, 1145974194, 0.5343145, 0.31388673, -0.7037525, 0.3474413, 9.695326805114746, -1.4837393760681152, -1.9180715084075928, 0.6010660529136658, 0.17371812462806702, 2.6623375415802, 
322, 1145990861, 0.5341793, 0.3137069, -0.7038368, 0.34764117, 9.711323738098145, -1.4557435512542725, -1.9241441488265991, 0.7441002130508423, 0.20597735047340393, 2.752840042114258, 
323, 1146007528, 0.5340309, 0.31352422, -0.7039255, 0.34785414, 9.708064079284668, -1.459241509437561, -1.9308643341064453, 0.8820372819900513, 0.1505386382341385, 2.8412423133850098, 
324, 1146024195, 0.5338733, 0.31333002, -0.70401716, 0.34808525, 9.686380386352539, -1.485796570777893, -1.9255906343460083, 1.4170352220535278, 0.08397122472524643, 2.901944398880005, 
325, 1146040862, 0.53370833, 0.31317058, -0.7040765, 0.3483617, 9.699835777282715, -1.5146574974060059, -1.9060097932815552, 1.8122775554656982, 0.18907295167446136, 2.860259532928467, 
326, 1146057529, 0.533486, 0.31307727, -0.7041074, 0.34872368, 9.716567993164062, -1.498465657234192, -1.898491382598877, 2.2888665199279785, 0.1045510470867157, 2.994982957839966, 
327, 1146074196, 0.5332688, 0.3129191, -0.7041721, 0.34906724, 9.68981647491455, -1.473138451576233, -1.8387285470962524, 2.5402166843414307, 0.004059613216668367, 3.1754629611968994, 
328, 1146090863, 0.53295743, 0.31286982, -0.7041929, 0.3495443, 9.705363273620605, -1.506324291229248, -1.8409937620162964, 2.944705009460449, -0.10408362001180649, 3.4513630867004395, 
329, 1146107530, 0.5325905, 0.312893, -0.70418215, 0.35010412, 9.675614356994629, -1.4845086336135864, -1.8109045028686523, 3.9193713665008545, -0.2776865065097809, 3.4425392150878906, 
330, 1146124197, 0.532169, 0.31292, -0.7041998, 0.35068485, 9.687758445739746, -1.4774868488311768, -1.7776590585708618, 4.240707874298096, -0.638262152671814, 3.667290449142456, 
331, 1146140864, 0.53171587, 0.31291118, -0.7042513, 0.3512762, 9.708024024963379, -1.4370641708374023, -1.7855342626571655, 4.3350396156311035, -0.8424979448318481, 3.9941089153289795, 
332, 1146157531, 0.53127956, 0.31280568, -0.7043843, 0.35176313, 9.768424987792969, -1.4014347791671753, -1.8534376621246338, 3.7638254165649414, -1.1459187269210815, 4.120789527893066, 
333, 1146174198, 0.530763, 0.31276944, -0.7045074, 0.35232848, 9.67640209197998, -1.4745782613754272, -1.9100406169891357, 3.884434938430786, -1.3749345541000366, 4.383946895599365, 
334, 1146190865, 0.53021747, 0.31277016, -0.7046182, 0.35292712, 9.653133392333984, -1.6099770069122314, -1.942026972770691, 4.4192795753479, -1.5122828483581543, 4.34037971496582, 
335, 1146207532, 0.5296378, 0.31282735, -0.70467633, 0.35362998, 9.664624214172363, -1.6592918634414673, -1.9263688325881958, 5.622448921203613, -1.450056791305542, 4.361701965332031, 
336, 1146224199, 0.52900445, 0.31295192, -0.7046977, 0.35442415, 9.668255805969238, -1.5309392213821411, -1.940993309020996, 5.951892852783203, -1.4434359073638916, 4.517159461975098, 
337, 1146240866, 0.5284238, 0.31292313, -0.7048062, 0.35509947, 9.673351287841797, -1.4570494890213013, -1.9501116275787354, 4.93080472946167, -1.4679858684539795, 4.812371730804443, 
338, 1146257533, 0.5278621, 0.31281796, -0.70495516, 0.35573182, 9.680333137512207, -1.6001173257827759, -1.9075908660888672, 4.599939823150635, -1.4843140840530396, 5.011445999145508, 
339, 1146274200, 0.5272027, 0.3128726, -0.7050159, 0.35654008, 9.669694900512695, -1.6621068716049194, -1.815783977508545, 5.821307182312012, -1.52902090549469, 5.044268608093262, 
340, 1146290867, 0.52644295, 0.31301674, -0.70505667, 0.3574543, 9.664451599121094, -1.6043609380722046, -1.741593599319458, 7.1474690437316895, -1.98397958278656, 5.153097629547119, 
341, 1146307534, 0.52561784, 0.31313652, -0.7051503, 0.358378, 9.713129997253418, -1.527856707572937, -1.7580583095550537, 7.068389892578125, -2.406346082687378, 5.588001251220703, 
342, 1146324201, 0.5247807, 0.3131204, -0.70535153, 0.3592218, 9.67397403717041, -1.4471668004989624, -1.7787352800369263, 6.034545421600342, -2.709843397140503, 6.210274696350098, 
343, 1146340868, 0.52393985, 0.31298798, -0.7056453, 0.35998684, 9.630949020385742, -1.5360941886901855, -1.910949468612671, 5.611461639404297, -3.0672943592071533, 6.589573383331299, 
344, 1146357535, 0.52298546, 0.31298253, -0.7058959, 0.36088675, 9.659445762634277, -1.638946533203125, -1.9448243379592896, 6.83842658996582, -3.4415860176086426, 6.697402477264404, 
345, 1146374202, 0.5220058, 0.31295806, -0.7061409, 0.36184585, 9.639060974121094, -1.5900888442993164, -1.903442144393921, 7.47281551361084, -3.4439938068389893, 6.986276626586914, 
346, 1146390869, 0.5209531, 0.3129626, -0.7063838, 0.36288363, 9.629754066467285, -1.6301358938217163, -2.085986614227295, 7.65201473236084, -3.607819080352783, 7.401342391967773, 
347, 1146407536, 0.51981676, 0.31301668, -0.7065877, 0.3640676, 9.614442825317383, -1.5297963619232178, -2.0867550373077393, 8.380146026611328, -3.5834548473358154, 7.893734931945801, 
348, 1146424203, 0.518654, 0.31317562, -0.7067277, 0.36531508, 9.613500595092773, -1.8842172622680664, -2.0608088970184326, 9.295673370361328, -3.61173152923584, 7.542469501495361, 
349, 1146440870, 0.5173645, 0.31358266, -0.7066958, 0.3668531, 9.630501747131348, -2.0093517303466797, -1.9787424802780151, 12.612112998962402, -3.67612361907959, 7.258798122406006, 
350, 1146457537, 0.5160495, 0.31396082, -0.7066605, 0.3684464, 9.690505981445312, -1.8322609663009644, -1.8678573369979858, 12.999979019165039, -3.6363210678100586, 7.617055416107178, 
351, 1146474204, 0.5148486, 0.31409022, -0.7067479, 0.36984557, 9.611608505249023, -1.700394868850708, -1.8389424085617065, 10.841479301452637, -3.3635451793670654, 8.068965911865234, 
352, 1146490871, 0.51364154, 0.31409642, -0.7069505, 0.3711293, 9.584547996520996, -1.7292407751083374, -1.851420521736145, 9.682286262512207, -3.767521619796753, 8.505433082580566, 
353, 1146507538, 0.512421, 0.31415886, -0.70712185, 0.37243503, 9.608748435974121, -1.838594675064087, -1.8765193223953247, 10.38578987121582, -3.892486333847046, 8.220926284790039, 
354, 1146524205, 0.5110526, 0.31434044, -0.7072395, 0.37393558, 9.698965072631836, -1.6921467781066895, -1.8141803741455078, 11.320488929748535, -4.107248783111572, 8.7677583694458, 
355, 1146540872, 0.50976783, 0.314167, -0.707631, 0.3750923, 9.70123291015625, -1.4882909059524536, -1.6127369403839111, 7.76125431060791, -4.566753387451172, 9.619854927062988, 
356, 1146557539, 0.50865996, 0.31340173, -0.7085244, 0.37555, 9.823780059814453, -1.3235139846801758, -1.7243891954421997, 0.8330918550491333, -5.505983829498291, 10.644285202026367, 
357, 1146574206, 0.50756234, 0.31215727, -0.7098548, 0.37555885, 9.529195785522461, -1.425838828086853, -1.618550181388855, -3.984487295150757, -6.765990734100342, 12.299817085266113, 
358, 1146590873, 0.5063287, 0.31095546, -0.7113106, 0.37546661, 9.263084411621094, -1.969874620437622, -1.7343965768814087, -4.727410316467285, -8.143482208251953, 12.457029342651367, 
359, 1146607540, 0.50480783, 0.30992064, -0.7127689, 0.37560448, 9.378077507019043, -2.068068265914917, -1.943627953529358, -2.404362440109253, -9.490147590637207, 13.172276496887207, 
360, 1146624207, 0.50326765, 0.30870432, -0.71429884, 0.3757668, 9.386507987976074, -2.102076530456543, -2.244107723236084, -2.7509284019470215, -9.404513359069824, 14.285819053649902, 
361, 1146640874, 0.50222677, 0.307172, -0.7158594, 0.3754452, 9.310096740722656, -2.667449474334717, -2.7138569355010986, -6.02719259262085, -7.6187424659729, 12.63891887664795, 
362, 1146657541, 0.5013785, 0.30571088, -0.71719605, 0.3752207, 9.535293579101562, -2.999084949493408, -3.1023013591766357, -6.5582966804504395, -5.506497383117676, 11.951149940490723, 
363, 1146674208, 0.5008608, 0.30432987, -0.71823144, 0.37505406, 9.589519500732422, -3.0740628242492676, -3.090242385864258, -5.853407859802246, -2.925708055496216, 10.235325813293457, 
364, 1146690875, 0.5006117, 0.30303654, -0.71902156, 0.37491992, 9.639618873596191, -3.0053908824920654, -2.7685093879699707, -5.224395751953125, -0.9227553606033325, 8.662755012512207, 
365, 1146707542, 0.5005747, 0.3017553, -0.71969557, 0.37470928, 9.669575691223145, -2.7134227752685547, -2.4940268993377686, -5.8214545249938965, 0.40153032541275024, 7.557463645935059, 
366, 1146724209, 0.5007691, 0.30016547, -0.72049606, 0.37418786, 9.567388534545898, -2.273263454437256, -2.23783540725708, -8.849594116210938, 1.1575791835784912, 7.58434534072876, 
367, 1146740876, 0.5011138, 0.2982012, -0.7216552, 0.3730616, 9.652199745178223, -2.2188029289245605, -1.933518886566162, -13.83150577545166, 0.21863022446632385, 7.5857720375061035, 
368, 1146757543, 0.50141287, 0.29618227, -0.7229966, 0.371668, 9.620211601257324, -2.41383957862854, -1.9010800123214722, -16.8416805267334, -0.7330426573753357, 7.688006401062012, 
369, 1146774210, 0.501694, 0.29411578, -0.7244428, 0.37011045, 9.359989166259766, -2.535747528076172, -1.9892961978912354, -17.13161849975586, -1.6666268110275269, 7.396533966064453, 
370, 1146790877, 0.50193745, 0.2921999, -0.7258582, 0.36852145, 9.449315071105957, -2.56024169921875, -2.134699583053589, -16.52079200744629, -2.2416069507598877, 6.537981986999512, 
371, 1146807544, 0.50205827, 0.29052326, -0.7271949, 0.36704415, 9.400023460388184, -2.459951877593994, -2.111112594604492, -15.14928150177002, -2.824910879135132, 5.983401775360107, 
372, 1146824211, 0.5020913, 0.28903326, -0.72847086, 0.36564252, 9.31554126739502, -2.658419609069824, -2.222046375274658, -14.146449089050293, -3.2968499660491943, 5.486487865447998, 
373, 1146840878, 0.5020584, 0.2878103, -0.7295199, 0.36455938, 9.267579078674316, -2.673732280731201, -2.322540283203125, -11.208680152893066, -2.786682367324829, 5.024062156677246, 
374, 1146857545, 0.5019529, 0.28668517, -0.7305198, 0.36358756, 9.380023956298828, -2.2589948177337646, -2.293476104736328, -10.422483444213867, -2.930382251739502, 5.081728458404541, 
375, 1146874212, 0.50186276, 0.28543478, -0.7316099, 0.36250207, 9.522245407104492, -2.104567050933838, -2.15641713142395, -11.320466995239258, -3.1761748790740967, 5.367156505584717, 
376, 1146890879, 0.5016303, 0.28428, -0.73274416, 0.36143887, 9.468560218811035, -2.2312064170837402, -2.040907144546509, -10.584844589233398, -4.280377388000488, 5.378784656524658, 
377, 1146907546, 0.501249, 0.28316817, -0.7339508, 0.3603911, 9.41279411315918, -2.2825186252593994, -1.9441022872924805, -9.97040843963623, -5.42047643661499, 5.657054901123047, 
378, 1146924213, 0.5006821, 0.28208792, -0.73527396, 0.35932747, 9.470327377319336, -2.1720316410064697, -1.8551902770996094, -10.788056373596191, -6.613606929779053, 6.368832111358643, 
379, 1146940880, 0.5000548, 0.28074536, -0.73689395, 0.35793108, 9.4332857131958, -2.075070381164551, -1.942236304283142, -13.855813026428223, -7.969521999359131, 7.247211456298828, 
380, 1146957547, 0.49935743, 0.279352, -0.7386637, 0.35634327, 9.265835762023926, -2.538811206817627, -2.1783061027526855, -14.764249801635742, -9.26623249053955, 7.178903579711914, 
381, 1146974214, 0.49856803, 0.2780589, -0.7403804, 0.35489464, 9.661849975585938, -2.6731410026550293, -2.3081374168395996, -12.702900886535645, -9.73888111114502, 7.072064399719238, 
382, 1146990881, 0.49767327, 0.27674425, -0.7421661, 0.35344508, 9.734220504760742, -2.1935532093048096, -2.174976348876953, -13.29504108428955, -10.317549705505371, 7.70300817489624, 
383, 1147007548, 0.49663487, 0.27518868, -0.7442584, 0.3517164, 9.433599472045898, -1.8983535766601562, -2.1170148849487305, -16.12637710571289, -12.01591682434082, 8.94469928741455, 
384, 1147024215, 0.49541035, 0.2736733, -0.7465044, 0.34986094, 9.235457420349121, -2.3589768409729004, -2.060391664505005, -16.951854705810547, -13.722830772399902, 9.150039672851562, 
385, 1147040882, 0.49381438, 0.27254704, -0.7486264, 0.34845966, 9.424201011657715, -2.637482166290283, -1.9490736722946167, -11.577041625976562, -15.548104286193848, 9.131556510925293, 
386, 1147057549, 0.49173525, 0.27178726, -0.7506836, 0.3475664, 9.428030014038086, -2.3151228427886963, -1.6272028684616089, -7.930211067199707, -17.37128448486328, 10.381421089172363, 
387, 1147074216, 0.48949552, 0.27084962, -0.7530231, 0.34639716, 9.120100975036621, -2.2573094367980957, -1.854283332824707, -9.01291561126709, -19.66714096069336, 10.869552612304688, 
388, 1147090883, 0.4869809, 0.2702129, -0.7553499, 0.3453712, 9.02925968170166, -3.0794692039489746, -2.3095247745513916, -6.994734764099121, -21.427663803100586, 10.508772850036621, 
389, 1147107550, 0.48437095, 0.2700864, -0.7573158, 0.34483466, 9.103540420532227, -3.3795762062072754, -3.123445749282837, -1.4567443132400513, -21.101438522338867, 8.950437545776367, 
390, 1147124217, 0.4818204, 0.27009258, -0.7590376, 0.34461728, 9.217086791992188, -2.4368011951446533, -3.548327684402466, 0.3138713240623474, -19.453126907348633, 8.964727401733398, 
391, 1147140884, 0.47962672, 0.26958975, -0.76102734, 0.3436817, 9.164596557617188, -2.3568365573883057, -3.7462856769561768, -6.131209850311279, -18.65669822692871, 8.810348510742188, 
392, 1147157551, 0.47765827, 0.2690509, -0.7629744, 0.34252653, 9.139095306396484, -3.05600905418396, -3.941535472869873, -7.804297924041748, -17.625389099121094, 7.689942836761475, 
393, 1147174218, 0.47581273, 0.26868725, -0.7645805, 0.3417985, 9.303221702575684, -3.0928869247436523, -3.9100894927978516, -4.738393306732178, -15.35202693939209, 7.3620781898498535, 
394, 1147190885, 0.47422856, 0.26788348, -0.76620936, 0.3409825, 9.276333808898926, -2.0620460510253906, -3.587949752807617, -6.998504161834717, -13.218937873840332, 8.741891860961914, 
395, 1147207552, 0.4729255, 0.26649538, -0.7682535, 0.3392765, 9.08506965637207, -2.2556896209716797, -3.3501532077789307, -15.072351455688477, -13.354158401489258, 9.035086631774902, 
396, 1147224219, 0.47164446, 0.26516685, -0.77031034, 0.33743155, 9.071155548095703, -3.1897683143615723, -3.3955039978027344, -15.646371841430664, -13.679388999938965, 8.233804702758789, 
397, 1147240886, 0.47017023, 0.26433045, -0.7720441, 0.33618042, 9.154913902282715, -3.325467586517334, -3.2725439071655273, -9.841767311096191, -13.701042175292969, 7.411280632019043, 
398, 1147257553, 0.46866646, 0.26352307, -0.7737552, 0.33497807, 9.38840389251709, -2.569232702255249, -3.0083818435668945, -9.40611457824707, -13.756705284118652, 7.434990406036377, 
399, 1147274220, 0.4672312, 0.2623639, -0.77581877, 0.33311525, 9.032384872436523, -2.5229620933532715, -3.032397747039795, -14.942225456237793, -14.940430641174316, 7.64112663269043, 
400, 1147290887, 0.46574536, 0.2613004, -0.7779905, 0.3309599, 8.955008506774902, -3.1355831623077393, -3.3013980388641357, -16.392654418945312, -16.29958724975586, 6.516844272613525, 
401, 1147307554, 0.46409103, 0.26057747, -0.78000385, 0.32910937, 9.134601593017578, -3.2861762046813965, -3.4153521060943604, -13.011420249938965, -16.922998428344727, 5.758525848388672, 
402, 1147324221, 0.4623677, 0.25998116, -0.78196293, 0.327353, 9.256381034851074, -2.780028820037842, -3.254652500152588, -11.908454895019531, -17.22573471069336, 5.443060398101807, 
403, 1147340888, 0.46053597, 0.2591673, -0.784175, 0.32528242, 9.338166236877441, -2.516174077987671, -3.2504639625549316, -14.644231796264648, -18.700563430786133, 6.296977996826172, 
404, 1147357555, 0.4585947, 0.25824824, -0.78658915, 0.3229185, 9.07862663269043, -2.6368048191070557, -3.382068634033203, -16.703760147094727, -20.26542091369629, 6.492739677429199, 
405, 1147374222, 0.45652312, 0.25755966, -0.7890101, 0.32048827, 8.885849952697754, -3.0569114685058594, -3.415257453918457, -16.205360412597656, -21.5997257232666, 5.374006748199463, 
406, 1147390889, 0.4541307, 0.25737017, -0.79127955, 0.31843805, 9.198954582214355, -3.343792200088501, -3.541956663131714, -11.664966583251953, -23.30282974243164, 4.279136657714844, 
407, 1147407556, 0.45151332, 0.25753993, -0.7934081, 0.31672156, 9.393765449523926, -2.9546117782592773, -3.472296953201294, -8.066009521484375, -24.277851104736328, 3.613288402557373, 
408, 1147424223, 0.44884402, 0.25760537, -0.7956898, 0.31473207, 9.312131881713867, -2.5788514614105225, -3.3008675575256348, -10.072701454162598, -25.320735931396484, 3.688084363937378, 
409, 1147440890, 0.44602314, 0.25729707, -0.79825735, 0.312485, 9.219409942626953, -2.7796621322631836, -3.0898468494415283, -12.962071418762207, -26.704545974731445, 5.759341716766357, 
410, 1147457557, 0.4428108, 0.25720122, -0.80093944, 0.3102616, 9.146512985229492, -2.060331344604492, -2.9540417194366455, -11.73095989227295, -29.641586303710938, 5.700856685638428, 
411, 1147474224, 0.4391759, 0.2568023, -0.8040575, 0.30768317, 9.142854690551758, -1.7622007131576538, -2.7325944900512695, -14.836017608642578, -33.2862548828125, 7.989881992340088, 
412, 1147490891, 0.43503937, 0.2560215, -0.8076667, 0.3047429, 9.025468826293945, -1.1537612676620483, -2.272509813308716, -18.17388343811035, -37.392547607421875, 10.964957237243652, 
413, 1147507558, 0.4303001, 0.25435528, -0.8122064, 0.30077597, 9.223165512084961, -0.9468984603881836, -2.1314191818237305, -27.418418884277344, -43.5096435546875, 15.73841381072998, 
414, 1147524225, 0.4247798, 0.25227293, -0.81738, 0.29632866, 9.427992820739746, -1.3345181941986084, -2.3446316719055176, -31.224210739135742, -49.788841247558594, 19.35894775390625, 
415, 1147540892, 0.4183103, 0.25001842, -0.822961, 0.2919635, 9.487771987915039, -1.3829963207244873, -2.5554325580596924, -30.50119972229004, -55.847259521484375, 23.253427505493164, 
416, 1147557559, 0.4109892, 0.24738388, -0.82902336, 0.28741884, 9.542438507080078, -1.0412917137145996, -2.797400951385498, -32.061927795410156, -61.66146469116211, 27.40876579284668, 
417, 1147574226, 0.40283343, 0.24408986, -0.8357332, 0.28230393, 9.666476249694824, -0.7155424952507019, -3.121192693710327, -37.017127990722656, -67.96742248535156, 32.31538772583008, 
418, 1147590893, 0.3939514, 0.24015956, -0.843047, 0.27640128, 9.866724014282227, -0.6883407831192017, -3.4934144020080566, -43.224308013916016, -73.95829772949219, 36.214290618896484, 
419, 1147607560, 0.38428187, 0.23581277, -0.8507796, 0.26998872, 10.042709350585938, -0.815812885761261, -3.9986777305603027, -46.81329345703125, -79.74905395507812, 39.469505310058594, 
420, 1147624227, 0.37383807, 0.231272, -0.8586749, 0.2635074, 10.048904418945312, -0.9793426394462585, -4.291516304016113, -47.134925842285156, -84.36297607421875, 42.432395935058594, 
421, 1147640894, 0.36277792, 0.22665152, -0.86665267, 0.25677738, 9.979645729064941, -1.1584221124649048, -4.805593967437744, -47.96413803100586, -88.51193237304688, 43.53902816772461, 
422, 1147657561, 0.35132906, 0.22197925, -0.87457937, 0.24980842, 9.690217971801758, -1.56734037399292, -5.409380912780762, -48.80686950683594, -91.02639770507812, 43.88251495361328, 
423, 1147674228, 0.3400414, 0.21700169, -0.8823564, 0.24234153, 9.412469863891602, -2.231032609939575, -5.991436958312988, -52.51522445678711, -89.96925354003906, 44.025238037109375, 
424, 1147690895, 0.3291702, 0.2117125, -0.8897459, 0.23489843, 9.198336601257324, -3.2447593212127686, -6.659591197967529, -53.069244384765625, -86.01483917236328, 44.703067779541016, 
425, 1147707562, 0.31874233, 0.20653383, -0.8964187, 0.22843121, 8.747593879699707, -4.052593231201172, -7.4343719482421875, -46.343082427978516, -80.46630096435547, 44.46608352661133, 
426, 1147724229, 0.3093493, 0.20167302, -0.9020412, 0.22350138, 8.316927909851074, -4.196249008178711, -7.684086322784424, -36.00518035888672, -70.11688232421875, 42.7396240234375, 
427, 1147740896, 0.3022485, 0.19694245, -0.90649056, 0.21939625, 7.887639045715332, -3.516577959060669, -7.538018703460693, -32.00651550292969, -52.47249984741211, 38.515933990478516, 
428, 1147757563, 0.29833066, 0.19222522, -0.90990686, 0.2147511, 7.4429521560668945, -2.459099054336548, -7.4482221603393555, -38.10742950439453, -31.250850677490234, 31.09796142578125, 
429, 1147774230, 0.2979131, 0.18755181, -0.9124794, 0.20845547, 7.0296173095703125, -1.8775763511657715, -7.183138847351074, -51.721500396728516, -9.877457618713379, 21.15298080444336, 
430, 1147790897, 0.30085528, 0.18342711, -0.91424644, 0.19998597, 6.693183422088623, -2.5103697776794434, -7.199352264404297, -67.40833282470703, 9.25045394897461, 7.4030442237854, 
431, 1147807564, 0.30638272, 0.18130255, -0.914484, 0.19229764, 6.422216892242432, -3.8461623191833496, -7.849616050720215, -59.51932907104492, 26.89507293701172, -9.049426078796387, 
432, 1147824231, 0.31384933, 0.18224348, -0.9125034, 0.18874209, 6.2277116775512695, -4.607461452484131, -8.174209594726562, -26.577510833740234, 44.867183685302734, -24.973472595214844, 
433, 1147840898, 0.32290462, 0.18619771, -0.9082763, 0.18999259, 5.9796223640441895, -4.460306644439697, -8.143769264221191, 10.97765064239502, 61.811458587646484, -38.41535568237305, 
434, 1147857565, 0.33334163, 0.19271028, -0.9021013, 0.19483137, 6.1046905517578125, -3.5725362300872803, -7.7677321434021, 39.821903228759766, 76.04542541503906, -50.75111389160156, 
435, 1147874232, 0.34494787, 0.20064825, -0.89454764, 0.20133543, 6.364490985870361, -2.5588510036468506, -7.309412479400635, 53.70753479003906, 86.78142547607422, -59.179927825927734, 
436, 1147890899, 0.35743418, 0.20866835, -0.886379, 0.20743787, 6.830411911010742, -1.8892706632614136, -6.908902645111084, 51.07373046875, 93.00650024414062, -62.703712463378906, 
437, 1147907566, 0.37097445, 0.21593915, -0.87796783, 0.21194604, 7.108757495880127, -1.6809186935424805, -6.587922096252441, 38.35934066772461, 98.82511901855469, -63.895469665527344, 
438, 1147924233, 0.38532236, 0.22203939, -0.86957294, 0.21463495, 7.305092811584473, -1.798713207244873, -6.535361289978027, 23.177865982055664, 102.676025390625, -62.61255645751953, 
439, 1147940900, 0.3998901, 0.227025, -0.8612771, 0.21621677, 7.705233573913574, -2.1235671043395996, -6.46998405456543, 13.131573677062988, 103.6991195678711, -59.04844665527344, 
440, 1147957567, 0.41443938, 0.23133752, -0.8529245, 0.21735407, 7.940369606018066, -2.7213363647460938, -6.448263645172119, 8.762815475463867, 104.06739807128906, -56.347713470458984, 
441, 1147974234, 0.42845872, 0.2356274, -0.84434116, 0.21906875, 8.125557899475098, -3.1178112030029297, -6.469429969787598, 13.2686767578125, 102.58747100830078, -54.1572380065918, 
442, 1147990901, 0.44176573, 0.24032298, -0.835298, 0.22218286, 8.049386024475098, -3.2166225910186768, -6.265918731689453, 24.42599868774414, 101.48357391357422, -52.08066940307617, 
443, 1148007568, 0.45453182, 0.24510702, -0.825933, 0.22618191, 7.883453369140625, -2.8662335872650146, -6.060250759124756, 31.155235290527344, 100.70699310302734, -49.628597259521484, 
444, 1148024235, 0.4667976, 0.24922495, -0.8167042, 0.23017702, 7.848383903503418, -2.0956175327301025, -5.861777305603027, 29.675539016723633, 98.49675750732422, -44.868919372558594, 
445, 1148040902, 0.47861686, 0.25210187, -0.8079593, 0.23360708, 7.940666675567627, -1.7419275045394897, -5.35636043548584, 22.517391204833984, 95.46207427978516, -38.18840789794922, 
446, 1148057569, 0.4898367, 0.25379124, -0.79987246, 0.23633462, 7.873198986053467, -1.6679136753082275, -5.435772895812988, 14.689199447631836, 90.68339538574219, -31.8057804107666, 
447, 1148074236, 0.50063235, 0.25481135, -0.7922076, 0.2384231, 7.465210914611816, -1.2703574895858765, -5.397889137268066, 8.97493839263916, 86.93305206298828, -28.860288619995117, 
448, 1148090903, 0.51079875, 0.25534838, -0.7849245, 0.24036545, 7.168238639831543, -1.4791505336761475, -5.041293621063232, 6.994636058807373, 82.76534271240234, -25.036602020263672, 
449, 1148107570, 0.5203242, 0.25537392, -0.77805907, 0.24222186, 7.16191291809082, -2.111633777618408, -4.771149158477783, 5.16964054107666, 78.57212829589844, -20.794498443603516, 
450, 1148124237, 0.52897525, 0.2558828, -0.7712234, 0.24479315, 7.393932819366455, -2.4143433570861816, -4.9256744384765625, 12.205127716064453, 74.27316284179688, -19.33548927307129, 
451, 1148140904, 0.5367565, 0.25776413, -0.76389045, 0.24884045, 7.424365043640137, -2.5028867721557617, -4.839171409606934, 27.386281967163086, 71.79806518554688, -20.68111801147461, 
452, 1148157571, 0.54391223, 0.2604062, -0.756378, 0.25345764, 7.443865776062012, -1.990533471107483, -4.4744672775268555, 34.59970474243164, 68.923583984375, -21.848651885986328, 
453, 1148174238, 0.55072105, 0.2629566, -0.74913806, 0.25758958, 7.3217244148254395, -1.5052924156188965, -4.370621204376221, 31.877573013305664, 65.4283218383789, -22.113317489624023, 
454, 1148190905, 0.55733514, 0.2649543, -0.7424168, 0.26075724, 7.261682987213135, -1.3419370651245117, -4.092968940734863, 24.252382278442383, 61.736366271972656, -21.647302627563477, 
455, 1148207572, 0.5637804, 0.26611573, -0.73640156, 0.2627677, 7.442681789398193, -1.467476725578308, -4.211421489715576, 14.183631896972656, 57.59695053100586, -20.235145568847656, 
456, 1148224239, 0.56982374, 0.2662413, -0.7311097, 0.264377, 7.390829563140869, -1.4025434255599976, -3.8946311473846436, 7.567054748535156, 53.93500900268555, -14.509856224060059, 
457, 1148240906, 0.57524407, 0.2655779, -0.7266554, 0.26558363, 7.519872665405273, -1.5763943195343018, -3.4133687019348145, 2.0707852840423584, 48.25557327270508, -9.46901798248291, 
458, 1148257573, 0.5803065, 0.26477572, -0.722672, 0.26623982, 7.830875873565674, -1.6498758792877197, -3.210104465484619, -1.4342316389083862, 43.882286071777344, -9.45518684387207, 
459, 1148274240, 0.5851632, 0.26413223, -0.71885264, 0.2665886, 7.990475177764893, -1.443115234375, -3.0826528072357178, -2.254725933074951, 41.383209228515625, -10.812738418579102, 
460, 1148290907, 0.58995193, 0.2634156, -0.7151622, 0.26666814, 8.061750411987305, -0.7767472267150879, -2.801469087600708, -3.9918980598449707, 40.19908142089844, -11.189275741577148, 
461, 1148307574, 0.59464985, 0.26236197, -0.7117977, 0.26627377, 8.200371742248535, -0.55157870054245, -2.6279964447021484, -8.120667457580566, 38.21289825439453, -10.699458122253418, 
462, 1148324241, 0.59910756, 0.26134473, -0.7086269, 0.26573837, 8.49173641204834, -0.7100600600242615, -2.7891039848327637, -8.581501960754395, 35.944488525390625, -10.665388107299805, 
463, 1148340908, 0.60311204, 0.26057202, -0.7055322, 0.26567358, 8.541238784790039, -0.6251077651977539, -2.441075325012207, -4.605234622955322, 33.84542465209961, -8.955314636230469, 
464, 1148357575, 0.60656315, 0.25968054, -0.70289755, 0.26567346, 8.551961898803711, -0.5200485587120056, -2.0118374824523926, -4.631431579589844, 29.605541229248047, -6.27752685546875, 
465, 1148374242, 0.6094967, 0.25870767, -0.7007578, 0.265561, 8.651734352111816, -0.710028886795044, -1.8756773471832275, -5.492681980133057, 25.001890182495117, -4.5225348472595215, 
466, 1148390909, 0.61165226, 0.25826138, -0.69890344, 0.265926, 8.661249160766602, -0.651226818561554, -1.442360520362854, -0.1229923665523529, 19.95672035217285, -3.134230375289917, 
467, 1148407576, 0.61304754, 0.25804824, -0.6975735, 0.26641157, 9.002578735351562, -0.7008416652679443, -1.1435723304748535, 1.8290104866027832, 13.891845703125, -1.428446888923645, 
468, 1148424243, 0.6135707, 0.25795794, -0.69679034, 0.2673427, 9.29216194152832, -0.2677469849586487, -0.8920992612838745, 5.0296831130981445, 7.969432353973389, 2.425318717956543, 
469, 1148440910, 0.6133199, 0.2570396, -0.6969964, 0.26826397, 9.18167495727539, 0.6364164352416992, -0.6023980379104614, 1.0435001850128174, 1.590254545211792, 9.531832695007324, 
470, 1148457577, 0.6126421, 0.2544954, -0.6984168, 0.2685438, 8.66938304901123, 1.4126845598220825, -0.3813841938972473, -10.369573593139648, -3.717573404312134, 17.57066535949707, 
471, 1148474244, 0.61155474, 0.24950193, -0.7016385, 0.26730686, 8.540231704711914, 1.4478788375854492, 0.10991258174180984, -30.576414108276367, -11.41326904296875, 26.884092330932617, 
472, 1148490911, 0.6090247, 0.24099264, -0.70799726, 0.26410505, 8.746414184570312, -1.7996526956558228, 0.49103057384490967, -58.12699890136719, -28.489309310913086, 43.65005111694336, 
473, 1148507578, 0.60403895, 0.23375197, -0.7156221, 0.2614997, 8.521247863769531, -3.6683802604675293, -2.674006462097168, -48.142948150634766, -47.08625411987305, 46.514495849609375, 
474, 1148524245, 0.59563553, 0.23265895, -0.72151226, 0.26553407, 9.984455108642578, -0.47167056798934937, -0.9278085827827454, 18.668819427490234, -57.05694580078125, 47.15289306640625, 
475, 1148540912, 0.58850646, 0.2303986, -0.7261889, 0.27060398, 14.155455589294434, -1.50753653049469, 1.1544082164764404, 19.203784942626953, -41.9883918762207, 52.92490005493164, 
476, 1148557579, 0.58433443, 0.22596338, -0.72985256, 0.27351248, 15.985522270202637, -2.5084991455078125, 0.9495864510536194, -3.1925392150878906, -22.555112838745117, 47.93467330932617, 
477, 1148574246, 0.57971954, 0.22171804, -0.7333213, 0.2775003, 13.516996383666992, -1.491881012916565, -0.7881788611412048, 4.0343337059021, -22.732141494750977, 51.84479522705078, 
478, 1148590913, 0.5743706, 0.21428423, -0.7387067, 0.2801668, 10.352470397949219, 3.116940498352051, -1.3548388481140137, -17.87735939025879, -30.025863647460938, 66.98600769042969, 
479, 1148607580, 0.569876, 0.2066007, -0.74512297, 0.27811748, 9.49031925201416, 1.0862133502960205, -2.4725875854492188, -46.049808502197266, -36.23142623901367, 49.57575607299805, 
480, 1148624247, 0.5640319, 0.20418227, -0.7501387, 0.27833351, 9.23731517791748, -3.6148815155029297, -4.6470489501953125, -9.210708618164062, -44.49752426147461, 32.10999298095703, 
481, 1148640914, 0.55619764, 0.20770027, -0.75273794, 0.28441256, 10.31861400604248, -5.8888397216796875, -5.296740531921387, 51.47117614746094, -48.479801177978516, 24.615076065063477, 
482, 1148657581, 0.5493913, 0.21398468, -0.75238425, 0.293765, 11.909931182861328, -6.22039270401001, -4.308143138885498, 83.29733276367188, -32.562889099121094, 16.52842140197754, 
483, 1148674248, 0.5450354, 0.21837203, -0.7507168, 0.3027781, 13.1934175491333, -3.8126730918884277, -2.268725633621216, 73.4175033569336, -11.574097633361816, 18.122650146484375, 
484, 1148690915, 0.54151434, 0.21894045, -0.7509503, 0.3080603, 15.012369155883789, 0.5952093005180359, -2.811328649520874, 34.63314437866211, -12.055365562438965, 24.955707550048828, 
485, 1148707582, 0.53827363, 0.21740308, -0.7532373, 0.3092429, 12.790725708007812, 0.5818631649017334, -4.057551383972168, 0.8650782108306885, -19.972389221191406, 23.120986938476562, 
486, 1148724249, 0.5349898, 0.21718466, -0.7552084, 0.31028533, 9.449951171875, -4.591157913208008, -4.320524215698242, 5.769742965698242, -22.02543067932129, 15.44241714477539, 
487, 1148740916, 0.53167886, 0.21909583, -0.7555599, 0.3137576, 8.600973129272461, -6.5445966720581055, -3.691251516342163, 29.7152156829834, -17.09722137451172, 10.92741870880127, 
488, 1148757583, 0.52909493, 0.22082943, -0.7553261, 0.31745163, 8.612421989440918, -4.3743510246276855, -3.048654317855835, 30.37833595275879, -10.446577072143555, 10.148040771484375, 
489, 1148774250, 0.5275597, 0.2209304, -0.7557436, 0.31893933, 8.745176315307617, -2.335756301879883, -2.736030101776123, 9.963302612304688, -7.147625923156738, 9.269570350646973, 
490, 1148790917, 0.52659416, 0.2205661, -0.7565811, 0.3188014, 9.57667064666748, -2.5794970989227295, -3.02510404586792, -1.955581545829773, -7.1549482345581055, 5.180176258087158, 
491, 1148807584, 0.5257402, 0.22137594, -0.75657827, 0.31965548, 10.27375316619873, -3.2061238288879395, -3.4369544982910156, 9.129016876220703, -4.5941643714904785, 1.1442798376083374, 
492, 1148824251, 0.52477366, 0.22296175, -0.7558474, 0.3218624, 9.783761978149414, -2.2361974716186523, -3.3438198566436768, 20.74404525756836, -2.187033176422119, 1.130642294883728, 
493, 1148840918, 0.5240891, 0.223986, -0.7553412, 0.3234511, 9.282654762268066, -1.5505222082138062, -2.9447169303894043, 14.579310417175293, -1.2267403602600098, 1.5440753698349, 
494, 1148857585, 0.52392435, 0.22369355, -0.75549394, 0.32356402, 9.38797664642334, -1.490242600440979, -2.603835105895996, -0.09027835726737976, -0.24048402905464172, 2.9366366863250732, 
495, 1148874252, 0.5238385, 0.22236389, -0.7561122, 0.32317486, 9.5956392288208, -1.3488620519638062, -2.051755905151367, -7.588257312774658, 0.03009493090212345, 7.070643901824951, 
496, 1148890919, 0.52369237, 0.22021832, -0.75736016, 0.32195655, 9.79378890991211, -1.157366156578064, -1.4560565948486328, -16.141942977905273, -2.01417875289917, 9.441109657287598, 
497, 1148907586, 0.5232019, 0.21773145, -0.7590772, 0.32039812, 9.250602722167969, -1.8568365573883057, -1.5735870599746704, -19.658212661743164, -5.270047187805176, 11.488931655883789, 
498, 1148924253, 0.52234125, 0.21515368, -0.7610739, 0.3188027, 9.385543823242188, -1.8461936712265015, -1.6553512811660767, -20.240507125854492, -8.075549125671387, 13.074690818786621, 
499, 1148940920, 0.52135664, 0.21212696, -0.7635107, 0.31660852, 9.390336036682129, -2.031182289123535, -1.8157767057418823, -25.7678279876709, -10.219598770141602, 14.207503318786621, 
500, 1148957587, 0.5201966, 0.2091975, -0.76603746, 0.31435442, 9.035935401916504, -3.315768241882324, -2.2662296295166016, -25.67500877380371, -11.771683692932129, 14.004573822021484, 
501, 1148974254, 0.5187987, 0.2072076, -0.76792765, 0.31336913, 9.043416976928711, -3.9977712631225586, -2.7240145206451416, -13.916139602661133, -10.958904266357422, 13.183442115783691, 
502, 1148990921, 0.51714873, 0.2062841, -0.7691908, 0.31360778, 9.300667762756348, -3.5212528705596924, -2.5046675205230713, -1.944024682044983, -10.606514930725098, 11.550016403198242, 
503, 1149007588, 0.51538, 0.20604391, -0.7701191, 0.31439817, 9.2518949508667, -3.714876651763916, -2.6339452266693115, 4.289745807647705, -10.738971710205078, 9.669363975524902, 
504, 1149024255, 0.51346904, 0.20649792, -0.77063465, 0.31595987, 9.068781852722168, -3.6840808391571045, -2.8857197761535645, 11.923575401306152, -10.440835952758789, 8.435826301574707, 
505, 1149040922, 0.5116397, 0.20695665, -0.77105474, 0.3175981, 9.234445571899414, -2.5401089191436768, -2.5143046379089355, 12.435194969177246, -9.571968078613281, 8.354793548583984, 
506, 1149057589, 0.5099616, 0.20684922, -0.7719898, 0.3180953, 9.6160306930542, -2.220613718032837, -2.480680227279663, 3.0536882877349854, -10.972530364990234, 7.748409271240234, 
507, 1149074256, 0.50812453, 0.2064216, -0.7732167, 0.31833258, 9.354852676391602, -2.743802309036255, -2.6719374656677246, 0.1415230929851532, -12.5154447555542, 9.308623313903809, 
508, 1149090923, 0.5062995, 0.20590158, -0.7745051, 0.31844527, 9.220856666564941, -2.6726322174072266, -2.768057346343994, -0.9965844750404358, -12.643174171447754, 9.427529335021973, 
509, 1149107590, 0.50442743, 0.20530558, -0.775928, 0.31833732, 8.99095630645752, -2.5937180519104004, -2.976017475128174, -2.6633450984954834, -13.510101318359375, 9.360539436340332, 
510, 1149124257, 0.5026427, 0.20467477, -0.7774418, 0.31787246, 8.983716011047363, -2.9156453609466553, -3.2982194423675537, -5.009547710418701, -13.7853364944458, 8.24848747253418, 
511, 1149140924, 0.50091994, 0.20387194, -0.77896386, 0.31738138, 8.973732948303223, -2.831007719039917, -3.290501594543457, -5.847750186920166, -13.139705657958984, 8.953094482421875, 
512, 1149157591, 0.49930325, 0.20248108, -0.7807682, 0.31638372, 9.312613487243652, -2.3320059776306152, -3.0133023262023926, -11.350091934204102, -12.965985298156738, 10.521859169006348, 
513, 1149174258, 0.49780536, 0.20021346, -0.783114, 0.31438375, 9.155335426330566, -1.967831015586853, -3.292443037033081, -21.080623626708984, -13.67629337310791, 12.291258811950684, 
514, 1149190925, 0.4963061, 0.19755137, -0.78582615, 0.31165862, 8.791890144348145, -2.651012897491455, -3.560032844543457, -27.12054443359375, -15.0807466506958, 12.453584671020508, 
515, 1149207592, 0.49487248, 0.19497526, -0.7883864, 0.3090841, 8.79984188079834, -3.450960636138916, -3.601963520050049, -25.77578353881836, -14.181065559387207, 12.159710884094238, 
516, 1149224259, 0.49333268, 0.19264807, -0.79068506, 0.30712688, 8.873797416687012, -3.3014159202575684, -3.091029167175293, -20.883251190185547, -13.56392765045166, 12.778992652893066, 
517, 1149240926, 0.49161175, 0.19039991, -0.7929854, 0.30535272, 8.784351348876953, -3.0757694244384766, -2.6595003604888916, -19.386323928833008, -14.481094360351562, 13.350849151611328, 
518, 1149257593, 0.4895845, 0.18842758, -0.7952756, 0.30387306, 8.515237808227539, -3.0888450145721436, -2.355264663696289, -16.428993225097656, -16.317514419555664, 13.471919059753418, 
519, 1149274260, 0.4871687, 0.18645525, -0.797718, 0.30256766, 8.90168285369873, -2.6999292373657227, -1.9723732471466064, -15.294276237487793, -18.739309310913086, 15.063769340515137, 
520, 1149290927, 0.4845553, 0.18430637, -0.80040914, 0.30096963, 9.380215644836426, -2.757497787475586, -2.4240646362304688, -17.759309768676758, -20.681537628173828, 15.78763198852539, 
521, 1149307594, 0.48171154, 0.18215775, -0.8031911, 0.29942706, 9.101435661315918, -3.04093599319458, -3.4599387645721436, -17.351850509643555, -22.197021484375, 16.56755256652832, 
522, 1149324261, 0.47858337, 0.18007669, -0.8059701, 0.29823267, 8.414613723754883, -2.7529242038726807, -3.6255030632019043, -14.842084884643555, -23.463645935058594, 17.931865692138672, 
523, 1149340928, 0.47529083, 0.17790109, -0.8088952, 0.2968811, 8.55251407623291, -2.5309090614318848, -3.286492109298706, -16.118988037109375, -24.85384178161621, 18.45836639404297, 
524, 1149357595, 0.4717426, 0.17545977, -0.8120076, 0.29549363, 9.021742820739746, -2.473989963531494, -2.7589831352233887, -17.256301879882812, -26.392961502075195, 20.575397491455078, 
525, 1149374262, 0.46771464, 0.17265643, -0.8154545, 0.29405278, 9.246164321899414, -2.086172580718994, -2.442000389099121, -18.82958221435547, -29.498106002807617, 23.811687469482422, 
526, 1149390929, 0.46306843, 0.16933197, -0.8194856, 0.29212612, 8.943543434143066, -1.9128142595291138, -2.51916241645813, -23.677104949951172, -34.385677337646484, 27.128684997558594, 
527, 1149407596, 0.45780116, 0.16538426, -0.8240681, 0.2897894, 8.598773002624512, -1.7369519472122192, -2.5073153972625732, -28.35544776916504, -38.882205963134766, 31.241100311279297, 
528, 1149424263, 0.4520939, 0.16051643, -0.82928085, 0.2865987, 8.77826976776123, -1.9565218687057495, -2.9643425941467285, -36.843849182128906, -42.51530838012695, 35.377159118652344, 
529, 1149440930, 0.4461879, 0.15485302, -0.83486414, 0.28273472, 7.914948463439941, -2.2234435081481934, -3.931704521179199, -43.66396713256836, -43.99071502685547, 38.63590621948242, 
530, 1149457597, 0.43979964, 0.14874223, -0.84074837, 0.2785579, 7.236423969268799, -2.5616044998168945, -3.9586212635040283, -46.90005874633789, -47.14741134643555, 41.51025390625, 
531, 1149474264, 0.43290266, 0.14293166, -0.8467613, 0.2741558, 7.512789726257324, -3.3712048530578613, -4.266587734222412, -47.01795196533203, -51.28386306762695, 40.20329284667969, 
532, 1149490931, 0.42531115, 0.13779321, -0.85241437, 0.2711332, 7.9728875160217285, -2.990943193435669, -3.654994010925293, -35.626041412353516, -54.16746520996094, 41.346866607666016, 
533, 1149507598, 0.41712835, 0.13254891, -0.85823816, 0.2680714, 7.896656036376953, -2.611823320388794, -3.958441972732544, -35.92495346069336, -57.98478317260742, 43.12034225463867, 
534, 1149524265, 0.408892, 0.12635772, -0.8643605, 0.26404956, 6.452657699584961, -2.5611345767974854, -4.856766223907471, -44.80604934692383, -58.29743957519531, 46.33143615722656, 
535, 1149540932, 0.40032917, 0.11938554, -0.87088525, 0.25892618, 6.24669885635376, -3.1781210899353027, -5.061686038970947, -53.99026107788086, -60.902870178222656, 48.82098388671875, 
536, 1149557599, 0.39146432, 0.11278241, -0.8774251, 0.25330105, 7.401966094970703, -4.176100254058838, -4.984802722930908, -55.756526947021484, -63.817115783691406, 45.77490997314453, 
537, 1149574266, 0.38152286, 0.10779505, -0.8835143, 0.24944562, 8.15178108215332, -4.95583438873291, -4.1595563888549805, -39.116943359375, -70.54618072509766, 42.308494567871094, 
538, 1149590933, 0.37066513, 0.10487945, -0.88903594, 0.24743289, 7.961340427398682, -5.302587985992432, -4.361170291900635, -20.851587295532227, -76.83222961425781, 35.69734191894531, 
539, 1149607600, 0.35904074, 0.10325536, -0.8940583, 0.24715978, 7.214691638946533, -4.594876289367676, -5.0055413246154785, -5.541528701782227, -81.20947265625, 33.168785095214844, 
540, 1149624267, 0.3467242, 0.10175839, -0.899108, 0.24704777, 6.801987648010254, -4.089309215545654, -5.180722713470459, -3.80434250831604, -85.64497375488281, 33.974063873291016, 
541, 1149640934, 0.3339472, 0.10031739, -0.9044058, 0.2458987, 6.643318176269531, -4.1357831954956055, -5.240896701812744, -10.187180519104004, -89.91142272949219, 32.107295989990234, 
542, 1149657601, 0.32122374, 0.098849185, -0.90984315, 0.24337153, 5.462533950805664, -5.292418956756592, -6.449521541595459, -19.10053253173828, -90.81383514404297, 29.116619110107422, 
543, 1149674268, 0.30836388, 0.097969785, -0.9149895, 0.24105631, 5.117110252380371, -6.054858207702637, -7.155532360076904, -15.906342506408691, -91.85868072509766, 25.91504669189453, 
544, 1149690935, 0.29530025, 0.09833817, -0.91955984, 0.23986903, 6.6410675048828125, -5.497450828552246, -6.883119106292725, -5.08958625793457, -93.21720123291016, 20.384197235107422, 
545, 1149707602, 0.2815674, 0.099117376, -0.92409, 0.23864898, 8.126434326171875, -4.525947570800781, -6.161512851715088, -3.9583892822265625, -98.07315063476562, 18.78937339782715, 
546, 1149724269, 0.26670408, 0.09981732, -0.92906564, 0.23609857, 9.415282249450684, -4.028236389160156, -6.491534233093262, -12.534180641174316, -106.92188262939453, 18.885866165161133, 
547, 1149740936, 0.25034714, 0.100861855, -0.93438, 0.23256719, 11.092334747314453, -3.495633125305176, -6.2341508865356445, -17.69707489013672, -118.35584259033203, 17.562978744506836, 
548, 1149757603, 0.23279718, 0.10248956, -0.9401078, 0.22693372, 11.084295272827148, -4.097161769866943, -7.458460807800293, -30.0310001373291, -129.18194580078125, 12.426054954528809, 
549, 1149774270, 0.21486606, 0.104589924, -0.9459916, 0.21907449, 9.018860816955566, -4.783814430236816, -9.489012718200684, -43.63600158691406, -134.258544921875, 6.540976047515869, 
550, 1149790937, 0.19698802, 0.10885313, -0.951007, 0.2119734, 9.254952430725098, -4.413006782531738, -10.079649925231934, -34.23735046386719, -135.3734588623047, -7.097613334655762, 
551, 1149807604, 0.180457, 0.11548986, -0.95470357, 0.20649081, 8.724346160888672, -4.4868292808532715, -10.549840927124023, -19.51546287536621, -127.06151580810547, -23.356765747070312, 
552, 1149824271, 0.16513307, 0.12308612, -0.95745623, 0.20213498, 6.995743751525879, -4.137787818908691, -10.36703872680664, -10.537060737609863, -118.46617889404297, -30.704330444335938, 
553, 1149840938, 0.15088625, 0.13119943, -0.9590392, 0.20065862, 5.830809593200684, -4.358686923980713, -10.323113441467285, 9.730764389038086, -108.34902954101562, -33.31288528442383, 
554, 1149857605, 0.13694757, 0.13918473, -0.9595611, 0.2027693, 3.4339520931243896, -5.6390156745910645, -11.019265174865723, 34.44391632080078, -101.81708526611328, -30.120851516723633, 
555, 1149874272, 0.124756046, 0.14742562, -0.9593832, 0.20563461, -0.22511647641658783, -7.622115135192871, -11.325820922851562, 38.96284103393555, -89.25321960449219, -34.2047233581543, 
556, 1149890939, 0.115654565, 0.15624656, -0.9589202, 0.20659882, -2.7626266479492188, -7.923534870147705, -10.977620124816895, 24.165851593017578, -71.32969665527344, -44.347415924072266, 
557, 1149907606, 0.10774245, 0.16549467, -0.95752037, 0.21013747, -0.7305812835693359, -7.302397727966309, -10.367597579956055, 41.501182556152344, -60.51935577392578, -47.850276947021484, 
558, 1149924273, 0.10336063, 0.17446163, -0.95498896, 0.21650797, 1.101302981376648, -5.167511463165283, -9.14399242401123, 57.52798080444336, -32.772605895996094, -50.31482696533203, 
559, 1149940940, 0.10312477, 0.18249843, -0.95235, 0.22156096, 2.8978431224823, -2.304565668106079, -7.694559097290039, 43.39466094970703, -5.6522111892700195, -51.45290756225586, 
560, 1149957607, 0.10754764, 0.18932933, -0.9502895, 0.2225711, 4.348815441131592, -1.0114136934280396, -7.026356220245361, 9.355334281921387, 21.202102661132812, -52.78798294067383, 
561, 1149974274, 0.115725, 0.19449416, -0.94910944, 0.21902332, 3.2741947174072266, -1.290755271911621, -7.338707447052002, -27.865921020507812, 41.68046569824219, -49.85588455200195, 
562, 1149990941, 0.12648362, 0.19869699, -0.94815916, 0.21334502, 2.324885845184326, -2.5477828979492188, -8.249890327453613, -46.31065368652344, 56.93496322631836, -48.847564697265625, 
563, 1150007608, 0.13915652, 0.20324913, -0.946295, 0.20940636, 2.7199459075927734, -2.992145538330078, -8.624929428100586, -35.929832458496094, 72.0816421508789, -53.67340850830078, 
564, 1150024275, 0.15368934, 0.2084975, -0.9431961, 0.20806158, 2.9315922260284424, -2.9430224895477295, -8.272747039794922, -19.202512741088867, 87.99418640136719, -60.12963104248047, 
565, 1150040942, 0.16953747, 0.21457322, -0.93903553, 0.20839389, 2.897989273071289, -3.189877986907959, -8.26022720336914, -7.812690734863281, 98.8726577758789, -67.1313247680664, 
566, 1150057609, 0.1862553, 0.22132657, -0.9337561, 0.21076836, 3.3094494342803955, -3.2754132747650146, -8.525774002075195, 6.484438419342041, 107.8447265625, -72.02922821044922, 
567, 1150074276, 0.20405434, 0.22823074, -0.9275265, 0.21439998, 3.529177188873291, -2.932767629623413, -8.211479187011719, 14.483375549316406, 117.7083511352539, -74.40734100341797, 
568, 1150090943, 0.22268403, 0.23484774, -0.9208886, 0.21730801, 3.69962477684021, -2.495920181274414, -7.773308753967285, 8.767684936523438, 122.87757873535156, -75.4601821899414, 
569, 1150107610, 0.24164177, 0.24072659, -0.91437364, 0.21813072, 4.3289570808410645, -2.4533326625823975, -7.709838390350342, -6.27388858795166, 122.51209259033203, -74.27519989013672, 
570, 1150124277, 0.2609453, 0.24584088, -0.90795344, 0.21700366, 5.095134735107422, -3.0376696586608887, -7.8551926612854, -20.511306762695312, 122.45592498779297, -73.07196044921875, 
571, 1150140944, 0.28084528, 0.25079122, -0.9008291, 0.2161872, 5.527259349822998, -3.6854889392852783, -7.952879428863525, -18.822965621948242, 128.21923828125, -73.57809448242188, 
572, 1150157611, 0.30066916, 0.2558299, -0.8926952, 0.21735826, 5.930180549621582, -4.0888352394104, -8.328865051269531, -4.71481990814209, 132.999267578125, -71.92750549316406, 
573, 1150174278, 0.3200463, 0.26078656, -0.8836006, 0.2209314, 6.065247058868408, -3.431750535964966, -8.13975715637207, 12.075767517089844, 136.60023498535156, -67.49573516845703, 
574, 1150190945, 0.33965126, 0.26595998, -0.873467, 0.22573845, 5.878983020782471, -2.7628674507141113, -7.628411293029785, 21.216588973999023, 142.16688537597656, -68.31812286376953, 
575, 1150207612, 0.35897535, 0.2710332, -0.8628896, 0.23043312, 6.257864475250244, -2.171231985092163, -7.532526969909668, 21.512537002563477, 141.48025512695312, -68.36369323730469, 
576, 1150224279, 0.37800175, 0.27515346, -0.8524104, 0.23409757, 6.633553981781006, -1.9578310251235962, -7.2401838302612305, 13.451126098632812, 139.07684326171875, -64.6015396118164, 
577, 1150240946, 0.39662692, 0.27851865, -0.8419308, 0.23720717, 6.370425701141357, -2.318418264389038, -7.005617141723633, 9.00101089477539, 136.90626525878906, -60.97555160522461, 
578, 1150257613, 0.41405913, 0.28193814, -0.8311923, 0.2412164, 6.707427978515625, -2.9209418296813965, -7.343281269073486, 17.06591796875, 132.35922241210938, -57.39537048339844, 
579, 1150274280, 0.43005678, 0.28534728, -0.82029915, 0.2464497, 7.113401412963867, -2.5573372840881348, -6.972505569458008, 27.069257736206055, 127.01280212402344, -51.78718185424805, 
580, 1150290947, 0.44499385, 0.28922182, -0.80908376, 0.252418, 7.337561130523682, -1.9311704635620117, -6.134904384613037, 35.21942901611328, 122.65910339355469, -51.085472106933594, 
581, 1150307614, 0.4588813, 0.29323485, -0.79796726, 0.25824338, 8.055585861206055, -1.734331727027893, -5.649348735809326, 36.76493835449219, 116.00762176513672, -50.28139114379883, 
582, 1150324281, 0.4720711, 0.2963429, -0.7874695, 0.2631, 8.56851863861084, -1.388683557510376, -5.171487808227539, 28.90462303161621, 109.89288330078125, -45.88962173461914, 
583, 1150340948, 0.4849279, 0.29836953, -0.77748865, 0.2670807, 8.44363021850586, -1.4354835748672485, -5.054532051086426, 20.40026092529297, 106.59255981445312, -41.222496032714844, 
584, 1150357615, 0.4973656, 0.29958463, -0.7677874, 0.2708858, 8.290627479553223, -1.4758074283599854, -4.876428604125977, 17.103256225585938, 104.5610122680664, -36.130062103271484, 
585, 1150374282, 0.5096532, 0.29984087, -0.7584446, 0.274064, 8.361801147460938, -1.4216476678848267, -4.535338401794434, 10.159191131591797, 103.0510482788086, -32.198429107666016, 
586, 1150390949, 0.52182555, 0.29918045, -0.74955606, 0.27632418, 8.757436752319336, -1.377790093421936, -4.087189674377441, 1.5430521965026855, 100.70645904541016, -29.485383987426758, 
587, 1150407616, 0.53349465, 0.29809684, -0.7411173, 0.27796933, 9.211894989013672, -1.3701602220535278, -3.515632390975952, -2.961789846420288, 96.04956817626953, -27.63443374633789, 
588, 1150424283, 0.5444533, 0.2967969, -0.7331566, 0.27921993, 9.514236450195312, -1.51798677444458, -3.1605968475341797, -5.221324443817139, 90.28564453125, -25.645540237426758, 
589, 1150440950, 0.5545471, 0.29550254, -0.7256608, 0.28030753, 9.613821029663086, -1.5231907367706299, -2.6197750568389893, -5.148149490356445, 83.84716796875, -23.680686950683594, 
590, 1150457617, 0.5636098, 0.2945366, -0.7185498, 0.28156456, 9.690774917602539, -1.5707093477249146, -2.473681688308716, -1.696060061454773, 76.94906616210938, -21.910737991333008, 
591, 1150474284, 0.5717703, 0.294159, -0.71157753, 0.283208, 9.64284896850586, -1.3637248277664185, -2.2505617141723633, 4.051938056945801, 71.59833526611328, -21.299785614013672, 
592, 1150490951, 0.57901865, 0.29473847, -0.7046471, 0.2852002, 9.685498237609863, -1.1642838716506958, -2.0592687129974365, 11.28560733795166, 65.8159408569336, -22.757219314575195, 
593, 1150507618, 0.58511674, 0.2966356, -0.69773984, 0.28775865, 9.690374374389648, -0.8957889080047607, -1.8199419975280762, 21.562074661254883, 58.716514587402344, -24.589248657226562, 
594, 1150524285, 0.5902058, 0.29928827, -0.69116724, 0.2904685, 9.765571594238281, -0.5262287855148315, -1.7257879972457886, 26.724266052246094, 51.34433364868164, -24.92819595336914, 
595, 1150540952, 0.5943849, 0.30217937, -0.6851801, 0.29312554, 9.707452774047852, -0.18225771188735962, -1.5274924039840698, 28.144840240478516, 44.06161117553711, -23.25417137145996, 
596, 1150557619, 0.59762156, 0.30539036, -0.6798267, 0.29567075, 9.668776512145996, -0.283620148897171, -1.460924506187439, 29.608217239379883, 36.15644836425781, -21.998825073242188, 
597, 1150574286, 0.59991515, 0.30956274, -0.67468584, 0.2984491, 9.854839324951172, -0.5602086782455444, -1.6567381620407104, 36.19635009765625, 29.411542892456055, -23.169288635253906, 
598, 1150590953, 0.6014124, 0.31498986, -0.66934854, 0.30175683, 9.961421012878418, -0.729735255241394, -1.8318231105804443, 45.92618179321289, 25.083417892456055, -25.59300994873047, 
599, 1150607620, 0.6018905, 0.32203892, -0.66364473, 0.3059325, 9.834912300109863, -0.7674422860145569, -1.68039071559906, 59.594451904296875, 20.42996597290039, -28.152973175048828, 
600, 1150624287, 0.60124886, 0.33054787, -0.6576151, 0.31109565, 9.790714263916016, -0.24200114607810974, -1.426873803138733, 73.30699920654297, 15.789847373962402, -29.100643157958984, 
601, 1150640954, 0.5999893, 0.33909383, -0.65183556, 0.3164472, 9.883757591247559, 0.6465800404548645, -1.2144134044647217, 75.1812744140625, 12.313422203063965, -26.6018009185791, 
602, 1150657621, 0.5984821, 0.34667376, -0.64679927, 0.3213836, 9.8594331741333, 1.2785266637802124, -0.7445515990257263, 68.29439544677734, 9.271161079406738, -21.706016540527344, 
603, 1150674288, 0.5968744, 0.3528436, -0.64289045, 0.32547545, 9.783384323120117, 1.5752946138381958, -0.5543696880340576, 56.484375, 5.286269664764404, -15.9887113571167, 
604, 1150690955, 0.59546876, 0.3569593, -0.6403698, 0.32851738, 9.557160377502441, 1.9233402013778687, -0.22231262922286987, 39.81630325317383, 2.528282642364502, -8.28662109375, 
605, 1150707622, 0.59473187, 0.35835183, -0.6395458, 0.32993853, 9.308101654052734, 2.0326998233795166, -0.04202442616224289, 16.05811309814453, 0.6942328214645386, -0.25986024737358093, 
606, 1150724289, 0.5947484, 0.35721156, -0.6402218, 0.32983428, 8.92348861694336, 1.650874376296997, -0.04068070650100708, -6.264541149139404, -0.14608846604824066, 6.64676570892334, 
607, 1150740956, 0.5953926, 0.35400358, -0.64210725, 0.32846254, 8.65772819519043, 1.033889651298523, -0.23799873888492584, -24.58386993408203, -0.7586950063705444, 12.129194259643555, 
608, 1150757623, 0.59662676, 0.34901488, -0.64487725, 0.32612658, 8.524789810180664, 0.7150461077690125, -0.40155327320098877, -39.56344223022461, -0.10398182272911072, 16.875137329101562, 
609, 1150774290, 0.5983121, 0.34256414, -0.6483552, 0.32296738, 8.461587905883789, 0.3808388411998749, -0.6701915264129639, -51.88096237182617, 0.29311493039131165, 20.67565155029297, 
610, 1150790957, 0.600221, 0.33532548, -0.65219474, 0.3192707, 8.26662826538086, -0.2693425118923187, -0.6626132130622864, -58.84647750854492, 0.28557276725769043, 22.33740234375, 
611, 1150807624, 0.6020781, 0.3279538, -0.6560946, 0.31541792, 8.479002952575684, -0.8114873766899109, -1.0066317319869995, -60.108829498291016, -0.2628861665725708, 22.54271697998047, 
612, 1150824291, 0.6037756, 0.32049173, -0.65998393, 0.3117073, 8.79006290435791, -0.6421170234680176, -1.157808780670166, -59.45859909057617, -0.4190618395805359, 23.85523223876953, 
613, 1150840958, 0.6051974, 0.31296036, -0.6639982, 0.308056, 8.692620277404785, -0.5093424916267395, -1.0356885194778442, -59.13639831542969, -1.9050045013427734, 25.279451370239258, 
614, 1150857625, 0.60619515, 0.30527225, -0.66833276, 0.30441388, 8.807767868041992, -0.491766095161438, -1.120781660079956, -59.51238250732422, -4.818774700164795, 27.61798667907715, 
615, 1150874292, 0.60636616, 0.29719973, -0.6733219, 0.3010484, 8.81814956665039, 0.01134727243334055, -1.1130653619766235, -59.477752685546875, -9.956329345703125, 33.64175796508789, 
616, 1150890959, 0.60598475, 0.28784186, -0.6795553, 0.2968742, 8.609201431274414, 0.13258568942546844, -1.2033003568649292, -70.02696228027344, -16.68886947631836, 39.9124870300293, 
617, 1150907626, 0.6049589, 0.27754378, -0.68684196, 0.29196334, 8.165679931640625, -0.8446152210235596, -1.713484287261963, -78.2599868774414, -23.623727798461914, 44.64215850830078, 
618, 1150924293, 0.60286564, 0.26728818, -0.6946403, 0.28737628, 8.240181922912598, -0.9255225658416748, -2.0541796684265137, -75.54401397705078, -30.24972915649414, 48.90609359741211, 
619, 1150940960, 0.5997903, 0.25628668, -0.7032322, 0.28290167, 8.652487754821777, -1.3910694122314453, -1.1443698406219482, -77.85948181152344, -36.539093017578125, 56.33184051513672, 
620, 1150957627, 0.5954682, 0.24777055, -0.7114025, 0.27916655, 9.032746315002441, -4.552321910858154, -3.082719564437866, -61.01656723022461, -44.35834503173828, 49.04157638549805, 
621, 1150974294, 0.58991563, 0.24469945, -0.71663606, 0.28027573, 9.937503814697266, -2.755906820297241, -2.897465467453003, -7.294997215270996, -40.53523635864258, 39.566673278808594, 
622, 1150990961, 0.583857, 0.24346758, -0.7203571, 0.28446457, 12.379770278930664, -1.2069175243377686, -0.03141550347208977, 19.1053524017334, -35.24325180053711, 41.407833099365234, 
623, 1151007628, 0.57815176, 0.24317895, -0.72323984, 0.28901333, 14.605304718017578, -1.803446650505066, 1.1964877843856812, 25.721097946166992, -31.389892578125, 36.09049606323242, 
624, 1151024295, 0.5726846, 0.24165168, -0.7258396, 0.29460806, 13.930429458618164, -2.3126118183135986, 1.8161298036575317, 26.160261154174805, -24.90791893005371, 45.465545654296875, 
625, 1151040962, 0.5674565, 0.2380107, -0.7292789, 0.29915944, 11.381274223327637, 0.799968957901001, 1.1220916509628296, 10.52808952331543, -24.512096405029297, 52.81572723388672, 
626, 1151057629, 0.56295943, 0.2312926, -0.73456246, 0.29999793, 11.535248756408691, 0.8213172554969788, 0.4990609288215637, -25.0872859954834, -27.817861557006836, 55.300174713134766, 
627, 1151074296, 0.55767167, 0.22492313, -0.74054426, 0.3000101, 10.906412124633789, -1.876012921333313, -1.0352264642715454, -28.094709396362305, -36.5712776184082, 53.11024856567383, 
628, 1151090963, 0.5506651, 0.22296822, -0.74537206, 0.30244616, 9.127946853637695, -3.5260438919067383, -3.2636497020721436, 6.208981990814209, -46.26575469970703, 41.69111251831055, 
629, 1151107630, 0.54298514, 0.22588433, -0.7478744, 0.307941, 9.456658363342285, -4.446572303771973, -4.978982925415039, 46.19535827636719, -46.340362548828125, 26.12848472595215, 
630, 1151124297, 0.53526574, 0.23120484, -0.74840385, 0.31611198, 10.648435592651367, -2.7262229919433594, -4.457153797149658, 73.17206573486328, -40.0886344909668, 20.753305435180664, 
631, 1151140964, 0.5282505, 0.23464985, -0.7494904, 0.32273075, 11.193132400512695, -1.5972425937652588, -3.2923500537872314, 55.95423889160156, -36.887874603271484, 24.04344367980957, 
632, 1151157631, 0.5227716, 0.23490052, -0.75185955, 0.32594323, 10.621524810791016, -1.6401450634002686, -3.261812210083008, 21.47739601135254, -32.03272247314453, 26.802867889404297, 
633, 1151174298, 0.5183881, 0.2331948, -0.75493824, 0.327051, 10.711833000183105, -2.3917579650878906, -2.8954102993011475, 0.21035826206207275, -27.929466247558594, 28.051286697387695, 
634, 1151190965, 0.5140609, 0.23144926, -0.7581668, 0.32765222, 11.469886779785156, -2.5539214611053467, -3.459224224090576, -2.988435745239258, -28.892915725708008, 26.570926666259766, 
635, 1151207632, 0.50942105, 0.23025863, -0.7612628, 0.32855785, 10.534477233886719, -2.288041353225708, -3.974924087524414, 1.3585177659988403, -30.816905975341797, 25.252431869506836, 
636, 1151224299, 0.5045759, 0.22872396, -0.764727, 0.32906097, 9.29247760772705, -2.279585599899292, -3.4976963996887207, -2.4573426246643066, -33.03119659423828, 26.696762084960938, 
637, 1151240966, 0.5004219, 0.22636795, -0.7685959, 0.32801804, 8.929254531860352, -4.0511555671691895, -3.479888916015625, -15.434828758239746, -31.3687744140625, 24.727338790893555, 
638, 1151257633, 0.4972122, 0.22399446, -0.77189803, 0.3267721, 8.419717788696289, -6.324793815612793, -4.635950088500977, -16.760498046875, -24.698537826538086, 21.09707260131836, 
639, 1151274300, 0.49469498, 0.2230341, -0.773798, 0.32675615, 8.707237243652344, -5.905483245849609, -5.147546291351318, -3.320289134979248, -17.494564056396484, 14.054777145385742, 
640, 1151290967, 0.49283293, 0.22379695, -0.7741926, 0.3281105, 9.267776489257812, -5.314953804016113, -5.078737735748291, 12.20540714263916, -10.641692161560059, 5.738142013549805, 
641, 1151307634, 0.4911479, 0.22594994, -0.7734343, 0.3309377, 9.104710578918457, -4.4342780113220215, -4.513484001159668, 27.08445167541504, -6.646173477172852, 1.134748101234436, 
642, 1151324301, 0.48951033, 0.22882096, -0.77204204, 0.33462173, 9.370834350585938, -3.2096402645111084, -3.1617393493652344, 35.43374252319336, -4.545205593109131, -0.8968519568443298, 
643, 1151340968, 0.48803076, 0.23131149, -0.7708873, 0.3377184, 9.843953132629395, -2.324967384338379, -2.2880022525787354, 30.23940658569336, -4.555874347686768, -0.8461950421333313, 
644, 1151357635, 0.48644271, 0.23301804, -0.770339, 0.34007958, 9.120813369750977, -2.1302149295806885, -2.528569221496582, 22.474885940551758, -6.523657321929932, 2.0650086402893066, 
645, 1151374302, 0.4847851, 0.23424271, -0.7701892, 0.34193948, 9.209431648254395, -1.6221482753753662, -2.4389567375183105, 17.389328002929688, -7.906951427459717, 3.7494866847991943, 
