sep=,
DeviceTag:,R Upper Leg - 5,,,,,,,,,,,,,,,,,
FirmwareVersion:,3.0.0,,,,,,,,,,,,,,,,,
AppVersion:,2023.6.1,,,,,,,,,,,,,,,,,
StartTime:,2024-05-25 15:19:41.000 +0200,,,,,,,,,,,,,,,,,
 2024,,,,,,,,,,,,,,,,,,,

PacketCounter,SampleTimeFine,Quat_W,Quat_X,Quat_Y,Quat_Z,Acc_X,Acc_Y,Acc_Z,Gyr_X,Gyr_Y,Gyr_Z,
0, 1476474597, 0.58034295, -0.3072149, -0.71206194, -0.24857344, 0.0, 0.0, 0.0, 0.0, 0.0, 0.0, 
1, 1476491264, 0.5802502, -0.30757663, -0.71208495, -0.24827759, 9.611769676208496, -0.18084165453910828, -2.0535175800323486, -2.6243667602539062, 1.0843969583511353, -1.6129341125488281, 
2, 1476507931, 0.5802747, -0.30840766, -0.7120358, -0.2473277, 9.608996391296387, -0.17098884284496307, -2.1209208965301514, -2.0198302268981934, 1.2980067729949951, -2.4077985286712646, 
3, 1476524598, 0.580016, -0.30916387, -0.71226525, -0.24632785, 9.600927352905273, -0.19680342078208923, -2.1143476963043213, -1.1067121028900146, 1.7110885381698608, -2.7951653003692627, 
4, 1476541265, 0.57980007, -0.30983666, -0.7124016, -0.24559556, 9.627996444702148, -0.27462098002433777, -2.0784711837768555, -0.658797025680542, 1.972594141960144, -2.6586496829986572, 
5, 1476557932, 0.57965976, -0.31104338, -0.71207225, -0.24535634, 9.624856948852539, -0.319281667470932, -2.0477161407470703, 0.5502952933311462, 1.9071154594421387, -2.1350619792938232, 
6, 1476574599, 0.57977784, -0.3118231, -0.71182954, -0.24479197, 9.682767868041992, -0.3178686499595642, -2.056894540786743, 2.246957540512085, 1.0755605697631836, -1.8248536586761475, 
7, 1476591266, 0.5801352, -0.3120011, -0.711762, -0.24391267, 9.610300064086914, -0.21004530787467957, -2.1707582473754883, 3.221341133117676, 0.9852501153945923, -1.653645634651184, 
8, 1476607933, 0.5802021, -0.3124572, -0.71162224, -0.24357723, 9.61303424835205, -0.10073362290859222, -2.0975818634033203, 2.0513916015625, 1.268949270248413, -1.388169765472412, 
9, 1476624600, 0.580246, -0.31265166, -0.71152484, -0.24350756, 9.66169548034668, 0.022397322580218315, -2.047828435897827, 0.9325776100158691, 1.7032382488250732, -1.4692853689193726, 
10, 1476641267, 0.58021045, -0.31275597, -0.71143144, -0.24373081, 9.608630180358887, 0.1251300871372223, -1.9737772941589355, 1.3004400730133057, 1.4698551893234253, -1.4982917308807373, 
11, 1476657934, 0.5800221, -0.3129423, -0.71130687, -0.24430333, 9.720303535461426, 0.09188827872276306, -1.9828799962997437, 1.1860792636871338, 0.7646735310554504, -1.497241497039795, 
12, 1476674601, 0.58001304, -0.31260514, -0.7112976, -0.24478324, 9.646123886108398, 0.03241920843720436, -2.1129090785980225, 0.42964664101600647, 1.4843521118164062, -2.036811590194702, 
13, 1476691268, 0.58002657, -0.31213725, -0.71133876, -0.24522866, 9.588274955749512, -0.06965592503547668, -2.1018383502960205, 1.059936761856079, 1.8000540733337402, -2.4000892639160156, 
14, 1476707935, 0.5801036, -0.31145442, -0.7115312, -0.24535584, 9.615337371826172, -0.1324211210012436, -2.0752618312835693, 2.482722520828247, 1.3774958848953247, -2.3984758853912354, 
15, 1476724602, 0.58020896, -0.3108602, -0.7117007, -0.24536876, 9.631027221679688, -0.19578656554222107, -2.0147147178649902, 3.709071159362793, 1.2355120182037354, -2.0436246395111084, 
16, 1476741269, 0.5803332, -0.3103428, -0.71188176, -0.24520448, 9.657403945922852, -0.19307513535022736, -2.0254156589508057, 3.6547207832336426, 0.660519540309906, -1.2792519330978394, 
17, 1476757936, 0.58048886, -0.30998236, -0.7119833, -0.2449966, 9.647475242614746, -0.1360352635383606, -2.0508713722229004, 4.095669269561768, 0.6905760765075684, -0.6448894143104553, 
18, 1476774603, 0.5807528, -0.3094433, -0.7121538, -0.24455671, 9.633269309997559, -0.010840700939297676, -1.9620836973190308, 4.129029750823975, 0.774688184261322, -0.2457154393196106, 
19, 1476791270, 0.5808728, -0.3092799, -0.71215814, -0.24446593, 9.645825386047363, 0.027327997609972954, -1.9225687980651855, 2.5771944522857666, 0.6848899722099304, -0.0647617056965828, 
20, 1476807937, 0.5810106, -0.3091218, -0.71213, -0.24442068, 9.670416831970215, 0.05159508436918259, -1.9935524463653564, 1.4222155809402466, 0.8471465110778809, 0.18686383962631226, 
21, 1476824604, 0.58117414, -0.30897385, -0.7120691, -0.24439625, 9.65999984741211, 0.030830353498458862, -1.9726427793502808, 1.2808846235275269, 1.1034142971038818, 0.38166120648384094, 
22, 1476841271, 0.5813632, -0.30877376, -0.7120503, -0.2442541, 9.635881423950195, -0.01599126122891903, -2.0321359634399414, 1.8191803693771362, 0.8648000359535217, 0.6869198083877563, 
23, 1476857938, 0.58151144, -0.30862215, -0.7120331, -0.24414279, 9.614508628845215, -0.09218040853738785, -1.9701471328735352, 1.3058699369430542, 0.6855559349060059, 0.735936164855957, 
24, 1476874605, 0.5816692, -0.30857605, -0.71196723, -0.24401739, 9.615290641784668, -0.1838623732328415, -2.0309102535247803, 2.3815391063690186, 0.6845569610595703, 1.0309174060821533, 
25, 1476891272, 0.58193266, -0.30828226, -0.71203893, -0.243551, 9.618515014648438, -0.14838416874408722, -1.9900614023208618, 4.261511325836182, 0.397938072681427, 1.1731833219528198, 
26, 1476907939, 0.58218646, -0.30799973, -0.7121411, -0.24300246, 9.634294509887695, -0.11281129717826843, -1.9427473545074463, 4.558619499206543, 0.039398740977048874, 1.4045429229736328, 
27, 1476924606, 0.5824348, -0.30781096, -0.71219504, -0.24248841, 9.662535667419434, -0.042089492082595825, -1.9923186302185059, 4.464659214019775, 0.08194144815206528, 1.6604522466659546, 
28, 1476941273, 0.58267576, -0.307718, -0.7121901, -0.24204157, 9.682473182678223, -1.6384059563279152E-5, -1.9994471073150635, 4.054727554321289, 0.2603594958782196, 1.9043492078781128, 
29, 1476957940, 0.58285993, -0.3078824, -0.7120346, -0.24184678, 9.68334674835205, 0.004333344288170338, -1.9725747108459473, 1.9563941955566406, 0.6891033053398132, 2.3109378814697266, 
30, 1476974607, 0.5829513, -0.3082867, -0.71175075, -0.24194622, 9.671122550964355, 0.006146382540464401, -1.9869275093078613, -0.9976401925086975, 0.9639660716056824, 2.4943630695343018, 
31, 1476991274, 0.58307534, -0.30870044, -0.7114117, -0.24211681, 9.678257942199707, 0.02559584565460682, -2.0012266635894775, -2.339144229888916, 1.4965054988861084, 2.6568374633789062, 
32, 1477007941, 0.5831875, -0.30912393, -0.7110752, -0.24229512, 9.632725715637207, -0.0149847362190485, -2.0071003437042236, -2.595885992050171, 1.442168116569519, 2.7229952812194824, 
33, 1477024608, 0.58323234, -0.30957863, -0.71077144, -0.24249792, 9.624055862426758, 0.0058812303468585014, -1.9940613508224487, -2.5678012371063232, 0.9938048124313354, 2.5360608100891113, 
34, 1477041275, 0.5832027, -0.3101286, -0.710406, -0.24293688, 9.666625022888184, -0.0264706090092659, -2.0478787422180176, -3.713226795196533, 1.2245880365371704, 1.9516685009002686, 
35, 1477057942, 0.58316207, -0.31063, -0.710027, -0.24350104, 9.658917427062988, -0.04117607697844505, -2.0165114402770996, -3.600710153579712, 1.593436360359192, 1.1098557710647583, 
36, 1477074609, 0.58314914, -0.31089014, -0.7097828, -0.24391143, 9.607232093811035, -0.08127602934837341, -1.9030786752700806, -2.013427257537842, 1.2876721620559692, 0.39085620641708374, 
37, 1477091276, 0.58309853, -0.31112203, -0.70957106, -0.24435252, 9.634934425354004, -0.11293045431375504, -1.9359716176986694, -2.547323703765869, 1.0721796751022339, 0.07520529627799988, 
38, 1477107943, 0.58303, -0.31134146, -0.7093465, -0.24488781, 9.682421684265137, -0.12955045700073242, -2.0117056369781494, -3.5894923210144043, 1.2602795362472534, -0.27771857380867004, 
39, 1477124610, 0.58297294, -0.31157425, -0.7090853, -0.24548343, 9.624639511108398, -0.10176337510347366, -2.0086586475372314, -3.3669817447662354, 1.5771340131759644, -0.5163777470588684, 
40, 1477141277, 0.58291155, -0.31176227, -0.70886153, -0.2460361, 9.609176635742188, -0.12657669186592102, -2.0073208808898926, -2.3117127418518066, 1.3974865674972534, -0.7958762645721436, 
41, 1477157944, 0.5829506, -0.31175172, -0.7087135, -0.2463831, 9.628432273864746, -0.16194720566272736, -2.0040464401245117, -1.753112554550171, 1.5221691131591797, -0.639805257320404, 
42, 1477174611, 0.58292913, -0.31184125, -0.7085413, -0.24681555, 9.63597583770752, -0.17346696555614471, -1.9523866176605225, -1.36359441280365, 1.3322510719299316, -0.8638138771057129, 
43, 1477191278, 0.58295774, -0.31174317, -0.7084856, -0.24703182, 9.69069766998291, -0.0955556333065033, -1.9077013731002808, -0.5870558619499207, 0.9834060668945312, -0.843029260635376, 
44, 1477207945, 0.5830176, -0.3115966, -0.70842475, -0.24724995, 9.692280769348145, -0.00810815580189228, -1.9784293174743652, -1.8455743789672852, 1.2487536668777466, -0.7354303002357483, 
45, 1477224612, 0.5830167, -0.31169182, -0.7082112, -0.24774326, 9.673215866088867, 7.500101928599179E-4, -1.8740133047103882, -2.8977952003479004, 1.7272883653640747, -0.758558452129364, 
46, 1477241279, 0.58304477, -0.31175312, -0.7079805, -0.24825926, 9.660872459411621, -0.07403047382831573, -1.8724793195724487, -3.0588605403900146, 2.0294413566589355, -0.8763128519058228, 
47, 1477257946, 0.58302724, -0.31190583, -0.707747, -0.24877357, 9.624505043029785, -0.10608517378568649, -1.9238641262054443, -2.2927463054656982, 1.6292814016342163, -0.7528979778289795, 
48, 1477274613, 0.5830464, -0.31191123, -0.7075938, -0.24915692, 9.616386413574219, -0.11435896158218384, -1.976344108581543, -1.8832889795303345, 1.4703289270401, -0.8683984279632568, 
49, 1477291280, 0.5830493, -0.31199843, -0.70740354, -0.24958117, 9.611705780029297, -0.10292132943868637, -1.9714937210083008, -1.0019303560256958, 1.4861576557159424, -0.9017846584320068, 
50, 1477307947, 0.58312666, -0.311816, -0.70737445, -0.24971093, 9.632646560668945, -0.04186650738120079, -1.992762804031372, 0.21145203709602356, 1.0643550157546997, -0.9217627644538879, 
51, 1477324614, 0.5831378, -0.3116706, -0.70736516, -0.249893, 9.656393051147461, 0.016827914863824844, -1.9703413248062134, -0.5963916778564453, 0.7297505736351013, -1.0522464513778687, 
52, 1477341281, 0.58308005, -0.3116532, -0.70730656, -0.25021505, 9.656637191772461, 0.059233635663986206, -2.019378900527954, -1.8283498287200928, 0.6807023882865906, -1.0339975357055664, 
53, 1477357948, 0.58305746, -0.31158, -0.70725894, -0.25049326, 9.658306121826172, 0.07158882170915604, -2.0363335609436035, -1.651122808456421, 0.8311514258384705, -1.0092172622680664, 
54, 1477374615, 0.5830089, -0.31159523, -0.70716983, -0.25083885, 9.658909797668457, -0.05652831122279167, -2.049020290374756, -1.724874496459961, 0.8751155138015747, -0.9360802173614502, 
55, 1477391282, 0.5829824, -0.3116319, -0.70705616, -0.25117448, 9.650908470153809, -0.18202148377895355, -2.082602024078369, -2.0230703353881836, 1.0467013120651245, -0.6591044068336487, 
56, 1477407949, 0.5829538, -0.3116627, -0.7069662, -0.251456, 9.64132022857666, -0.20470364391803741, -2.112339973449707, -1.7432259321212769, 0.8604778051376343, -0.5502375960350037, 
57, 1477424616, 0.5830164, -0.31155846, -0.70693064, -0.25153998, 9.604889869689941, -0.17269885540008545, -2.147104501724243, -0.6511004567146301, 0.930490255355835, -0.27063658833503723, 
58, 1477441283, 0.58307976, -0.31154764, -0.7068585, -0.25160947, 9.585882186889648, -0.1324869990348816, -2.083498001098633, 0.047056932002305984, 0.9130223393440247, 0.08618033677339554, 
59, 1477457950, 0.583124, -0.31154123, -0.7068148, -0.25163758, 9.644912719726562, -0.0958244726061821, -2.019462823867798, 0.13960841298103333, 0.632780909538269, 0.1798843890428543, 
60, 1477474617, 0.5831668, -0.31151444, -0.706756, -0.25173697, 9.679484367370605, -0.015227477997541428, -1.9898020029067993, -0.13202065229415894, 0.8835932612419128, -0.19109633564949036, 
61, 1477491284, 0.5832175, -0.3114514, -0.70669425, -0.25187033, 9.668985366821289, 0.03117823787033558, -1.962270736694336, -0.05733402818441391, 1.0738956928253174, -0.498896986246109, 
62, 1477507951, 0.5832785, -0.31130302, -0.70667136, -0.25197703, 9.651989936828613, 0.034355174750089645, -1.9545512199401855, 0.3625541627407074, 1.0604747533798218, -0.8347307443618774, 
63, 1477524618, 0.5833802, -0.31095168, -0.70676416, -0.25191504, 9.649558067321777, -0.014709864743053913, -1.9236606359481812, 1.263122320175171, 0.790375828742981, -1.116060495376587, 
64, 1477541285, 0.58337665, -0.31070748, -0.7068578, -0.25196168, 9.691926002502441, -0.05991290509700775, -1.9441449642181396, 1.0531110763549805, 0.3132113218307495, -1.4028972387313843, 
65, 1477557952, 0.5833725, -0.3105455, -0.70687217, -0.25213096, 9.632678985595703, -0.08397398889064789, -2.0164132118225098, 0.6341257095336914, 0.7420960068702698, -1.4630872011184692, 
66, 1477574619, 0.58350563, -0.3100643, -0.7070202, -0.25199965, 9.616419792175293, -0.042240772396326065, -2.016282081604004, 1.840419888496399, 0.8058716058731079, -1.463894009590149, 
67, 1477591286, 0.58357865, -0.30975026, -0.7071294, -0.25191036, 9.64647102355957, -0.03496734797954559, -1.989938735961914, 2.130573272705078, 0.47128012776374817, -1.1096574068069458, 
68, 1477607953, 0.583628, -0.3095429, -0.7071802, -0.25190842, 9.643488883972168, -0.03301750496029854, -2.0039639472961426, 1.2193117141723633, 0.5973713994026184, -0.8801291584968567, 
69, 1477624620, 0.583616, -0.30950847, -0.70715845, -0.25203925, 9.68344497680664, -0.002981663914397359, -2.0614371299743652, 0.3695720136165619, 0.5769708752632141, -0.6715137362480164, 
70, 1477641287, 0.5836739, -0.30941424, -0.70711863, -0.25213274, 9.642660140991211, -0.007014749571681023, -2.0194427967071533, 0.40555787086486816, 1.0286381244659424, -0.5542460680007935, 
71, 1477657954, 0.5837719, -0.3093266, -0.7070805, -0.2521206, 9.605531692504883, -0.0564420260488987, -1.985198736190796, 1.6390140056610107, 0.9856085777282715, -0.16086053848266602, 
72, 1477674621, 0.58390963, -0.3091577, -0.70711744, -0.25190523, 9.642144203186035, -0.03453918546438217, -1.9740849733352661, 2.887338876724243, 0.5927995443344116, 0.21784242987632751, 
73, 1477691288, 0.58409584, -0.30892685, -0.7071723, -0.25160274, 9.638842582702637, 0.01677328161895275, -1.9933522939682007, 3.0064637660980225, 0.6834428906440735, 0.44136446714401245, 
74, 1477707955, 0.5842526, -0.30880144, -0.70715404, -0.25144348, 9.65877914428711, 0.07832905650138855, -1.985992670059204, 2.0588064193725586, 0.958638608455658, 0.41475287079811096, 
75, 1477724622, 0.58443683, -0.3087029, -0.70708776, -0.2513223, 9.653554916381836, 0.09143459051847458, -2.01145076751709, 1.4565364122390747, 1.3264752626419067, 0.6067200303077698, 
76, 1477741289, 0.58460784, -0.30863968, -0.70700437, -0.25123686, 9.657235145568848, 0.09171605110168457, -2.015073537826538, 1.5133072137832642, 1.350512981414795, 0.5786741375923157, 
77, 1477757956, 0.58478785, -0.3085375, -0.7069439, -0.25111333, 9.65235424041748, 0.07272490113973618, -1.9601796865463257, 1.5182888507843018, 1.296431541442871, 0.5943747758865356, 
78, 1477774623, 0.58490914, -0.3086479, -0.7068042, -0.25108942, 9.643595695495605, 0.03667434677481651, -1.97074556350708, 1.9994491338729858, 1.166844367980957, 0.9045317769050598, 
79, 1477791290, 0.5850729, -0.30867842, -0.70669913, -0.25096563, 9.651830673217773, 0.028111685067415237, -1.9745510816574097, 2.217970132827759, 1.1655442714691162, 1.0629910230636597, 
80, 1477807957, 0.5852993, -0.3085939, -0.706631, -0.2507338, 9.673704147338867, 0.024058086797595024, -1.9027838706970215, 2.3882434368133545, 1.3008307218551636, 1.1673756837844849, 
81, 1477824624, 0.58546877, -0.30866337, -0.70649475, -0.25063607, 9.674336433410645, 0.04248317331075668, -1.9029847383499146, 1.6843743324279785, 1.3090330362319946, 1.2746992111206055, 
82, 1477841291, 0.5856481, -0.30874345, -0.7063463, -0.25053692, 9.659512519836426, 0.026492664590477943, -1.929717779159546, 1.3927353620529175, 1.383732557296753, 1.4289262294769287, 
83, 1477857958, 0.5858597, -0.30879697, -0.7062266, -0.25031438, 9.653738021850586, 0.03253515064716339, -1.9592247009277344, 2.6321723461151123, 1.2059417963027954, 1.71791410446167, 
84, 1477874625, 0.5860515, -0.3088249, -0.70613855, -0.25007877, 9.68248462677002, 0.10821463912725449, -1.930219054222107, 2.167839527130127, 1.0059837102890015, 1.6720802783966064, 
85, 1477891292, 0.5861984, -0.30891612, -0.70598286, -0.25006092, 9.682450294494629, 0.11019039899110794, -1.9650691747665405, 0.09807742387056351, 1.4191547632217407, 1.28370201587677, 
86, 1477907959, 0.5863363, -0.30906647, -0.705761, -0.250178, 9.656961441040039, 0.07145369052886963, -1.9604854583740234, -0.15516173839569092, 1.8241685628890991, 1.0207109451293945, 
87, 1477924626, 0.5865202, -0.3091463, -0.7055536, -0.25023347, 9.646089553833008, -0.011926684528589249, -1.9033743143081665, -0.17425599694252014, 1.9908686876296997, 1.1232001781463623, 
88, 1477941293, 0.58667576, -0.30927435, -0.70536095, -0.2502535, 9.668338775634766, -0.07660430669784546, -1.928768515586853, 0.29674234986305237, 1.6311640739440918, 1.322864055633545, 
89, 1477957960, 0.5868022, -0.30946866, -0.7051574, -0.2502905, 9.689432144165039, -0.09359697252511978, -1.957645058631897, -0.14474375545978546, 1.4596037864685059, 1.5514509677886963, 
90, 1477974627, 0.5869014, -0.3097531, -0.70489186, -0.25045386, 9.70606803894043, -0.10246473550796509, -1.9569168090820312, -0.5251563787460327, 1.6879152059555054, 1.4139618873596191, 
91, 1477991294, 0.58710015, -0.30984956, -0.70471025, -0.25038016, 9.668267250061035, -0.033067237585783005, -1.8945958614349365, 0.521858811378479, 1.6668872833251953, 1.6731882095336914, 
92, 1478007961, 0.5872548, -0.3101033, -0.70447034, -0.25037846, 9.66801929473877, 0.02551724947988987, -1.8582085371017456, 0.3439273536205292, 1.561132550239563, 2.0109810829162598, 
93, 1478024628, 0.5873775, -0.31039932, -0.7042082, -0.2504613, 9.698249816894531, 0.07125591486692429, -1.8889240026474, -1.1802587509155273, 1.610878825187683, 2.0298638343811035, 
94, 1478041295, 0.58741534, -0.31090784, -0.7038376, -0.25078344, 9.65709400177002, 0.049040619283914566, -1.9129002094268799, -2.354921579360962, 1.7685762643814087, 1.9691364765167236, 
95, 1478057962, 0.58749247, -0.3113239, -0.7034914, -0.25105783, 9.666611671447754, 0.04047524929046631, -1.9158047437667847, -2.198094606399536, 1.9273875951766968, 1.8433011770248413, 
96, 1478074629, 0.5876131, -0.31166366, -0.7031749, -0.251241, 9.676749229431152, -0.0023548672907054424, -1.9041160345077515, -1.4677613973617554, 1.9590131044387817, 1.8960955142974854, 
97, 1478091296, 0.587759, -0.31194627, -0.7028904, -0.25134465, 9.639181137084961, -0.104842908680439, -1.8952252864837646, -1.1875327825546265, 1.8896218538284302, 2.0016772747039795, 
98, 1478107963, 0.58787555, -0.3122437, -0.70263565, -0.25141487, 9.658547401428223, -0.15689200162887573, -1.8673770427703857, -0.5612382888793945, 1.52559494972229, 1.9965484142303467, 
99, 1478124630, 0.58805215, -0.3124207, -0.702444, -0.25131696, 9.676095008850098, -0.17467908561229706, -1.9011727571487427, 0.2848772704601288, 1.4182137250900269, 2.178398609161377, 
100, 1478141297, 0.58828986, -0.31248948, -0.702306, -0.2510614, 9.674065589904785, -0.1891595870256424, -1.9522024393081665, 1.459482192993164, 1.352036952972412, 2.3217337131500244, 
101, 1478157964, 0.5884847, -0.3127935, -0.70206374, -0.2509032, 9.659241676330566, -0.2163345366716385, -1.927756905555725, 2.4518144130706787, 1.3371367454528809, 2.719403028488159, 
102, 1478174631, 0.58881307, -0.31282908, -0.70195293, -0.2503988, 9.643564224243164, -0.19754832983016968, -1.9037238359451294, 3.344935655593872, 1.2124862670898438, 3.19616436958313, 
103, 1478191298, 0.5891748, -0.31281963, -0.7019032, -0.24969763, 9.652755737304688, -0.1909981220960617, -1.8638197183609009, 4.163319110870361, 0.793904185295105, 3.780921697616577, 
104, 1478207965, 0.5895035, -0.3129032, -0.70183706, -0.24900243, 9.673883438110352, -0.19175437092781067, -1.8830358982086182, 3.854557991027832, 0.5534520745277405, 4.145197868347168, 
105, 1478224632, 0.5898196, -0.3131218, -0.7016884, -0.2483967, 9.658299446105957, -0.18920516967773438, -1.8743454217910767, 3.1593265533447266, 0.7818533182144165, 4.508808612823486, 
106, 1478241299, 0.59012866, -0.31337819, -0.7015098, -0.24784367, 9.644182205200195, -0.2078894078731537, -1.856674313545227, 3.4512927532196045, 0.9040707349777222, 4.391393661499023, 
107, 1478257966, 0.59037966, -0.3136595, -0.70135385, -0.24733114, 9.664505958557129, -0.21887211501598358, -1.8298711776733398, 3.4464645385742188, 0.5691206455230713, 4.126648426055908, 
108, 1478274633, 0.59063584, -0.31381384, -0.7012525, -0.24681087, 9.689874649047852, -0.1720014065504074, -1.8021682500839233, 3.4390809535980225, 0.585595965385437, 3.551790237426758, 
109, 1478291300, 0.5909206, -0.31386083, -0.70119345, -0.24623583, 9.688796043395996, -0.13611379265785217, -1.8275442123413086, 3.9814560413360596, 0.6211079955101013, 3.268897771835327, 
110, 1478307967, 0.5911986, -0.31382617, -0.7011938, -0.24561074, 9.701107025146484, -0.17853587865829468, -1.769151210784912, 4.208551406860352, 0.3901967406272888, 3.0181241035461426, 
111, 1478324634, 0.59137446, -0.31400082, -0.70111215, -0.24519704, 9.68320369720459, -0.23973289132118225, -1.821009874343872, 3.6463968753814697, 0.279658704996109, 2.880666971206665, 
112, 1478341301, 0.59153086, -0.31414792, -0.7010641, -0.24476829, 9.666954040527344, -0.23590438067913055, -1.8247381448745728, 4.049758434295654, 0.05476635321974754, 2.6670055389404297, 
113, 1478357968, 0.59175605, -0.3141416, -0.70107263, -0.24420735, 9.667787551879883, -0.2144908905029297, -1.8869850635528564, 4.148994445800781, 0.1709071397781372, 2.711315631866455, 
114, 1478374635, 0.59196997, -0.3141255, -0.7010893, -0.2436605, 9.685562133789062, -0.19569115340709686, -1.862349033355713, 4.015002727508545, 0.13885286450386047, 2.5870046615600586, 
115, 1478391302, 0.59215295, -0.31416145, -0.7010771, -0.24320441, 9.674776077270508, -0.1401468962430954, -1.841346263885498, 2.7363200187683105, 0.23742973804473877, 2.575331449508667, 
116, 1478407969, 0.59223294, -0.31442705, -0.700947, -0.2430413, 9.691337585449219, -0.10855261981487274, -1.8954546451568604, 0.29197198152542114, 0.4595814645290375, 2.523324728012085, 
117, 1478424636, 0.592282, -0.31477773, -0.7007384, -0.24306966, 9.644461631774902, -0.09429433941841125, -1.8729101419448853, -1.125261902809143, 0.905409038066864, 2.2773916721343994, 
118, 1478441303, 0.59224904, -0.31530848, -0.7004562, -0.24327542, 9.653376579284668, -0.14047318696975708, -1.823455572128296, -1.6090153455734253, 0.8426578044891357, 2.208249807357788, 
119, 1478457970, 0.59220177, -0.31585735, -0.7001577, -0.24353755, 9.669504165649414, -0.17759864032268524, -1.8657348155975342, -2.256049633026123, 0.938141942024231, 2.136009454727173, 
120, 1478474637, 0.5921684, -0.31633475, -0.6998891, -0.24377136, 9.665667533874512, -0.21051771938800812, -1.8618342876434326, -2.0229103565216064, 0.9584271907806396, 1.9164574146270752, 
121, 1478491304, 0.59213674, -0.31671312, -0.69967896, -0.24395968, 9.660234451293945, -0.25639334321022034, -1.8487380743026733, -1.5246281623840332, 0.8050200343132019, 1.549542784690857, 
122, 1478507971, 0.5920624, -0.31706378, -0.69950795, -0.24417482, 9.654117584228516, -0.31880539655685425, -1.8553327322006226, -1.6172946691513062, 0.5466645956039429, 1.162317156791687, 
123, 1478524638, 0.5920035, -0.31728137, -0.69940627, -0.2443265, 9.657984733581543, -0.343122661113739, -1.9119696617126465, -1.1642060279846191, 0.4530758559703827, 0.7472760677337646, 
124, 1478541305, 0.5919774, -0.31739712, -0.69933915, -0.24443112, 9.639294624328613, -0.33088499307632446, -1.9409435987472534, -0.04749234393239021, 0.5307847261428833, 0.3633801341056824, 
125, 1478557972, 0.591976, -0.31745237, -0.6992929, -0.24449518, 9.637160301208496, -0.3076825737953186, -1.8657574653625488, 0.11685793101787567, 0.5998238325119019, 0.2971457242965698, 
126, 1478574639, 0.59195495, -0.31754425, -0.6992314, -0.2446028, 9.664261817932129, -0.299198180437088, -1.9063256978988647, -0.9185931086540222, 0.6361554265022278, 0.3986104726791382, 
127, 1478591306, 0.59189504, -0.31776074, -0.69909734, -0.24484973, 9.645830154418945, -0.30678626894950867, -1.9186384677886963, -1.7148211002349854, 0.8177749514579773, 0.4223533570766449, 
128, 1478607973, 0.591856, -0.3179022, -0.69900817, -0.24501516, 9.640347480773926, -0.3298788368701935, -1.9214346408843994, -1.1412057876586914, 0.7014166116714478, 0.3732410669326782, 
129, 1478624640, 0.59179837, -0.31809163, -0.69890285, -0.24520871, 9.656953811645508, -0.344836562871933, -1.8723201751708984, -0.6748498678207397, 0.6273190379142761, 0.340495228767395, 
130, 1478641307, 0.5917135, -0.31829327, -0.6988139, -0.24540521, 9.667671203613281, -0.37094253301620483, -1.8765075206756592, -0.33649325370788574, 0.39649736881256104, 0.22861894965171814, 
131, 1478657974, 0.59166175, -0.31840676, -0.6987501, -0.24556449, 9.658166885375977, -0.3753874599933624, -1.9096554517745972, 0.08132673054933548, 0.5360417366027832, -0.0067617520689964294, 
132, 1478674641, 0.59162813, -0.3184654, -0.6987234, -0.24564539, 9.626550674438477, -0.3624159097671509, -1.9235488176345825, 0.9756516814231873, 0.38762256503105164, -0.03916181996464729, 
133, 1478691308, 0.59163934, -0.3184028, -0.69875234, -0.24561732, 9.654085159301758, -0.3175967037677765, -1.9175575971603394, 1.9557856321334839, 0.3651602864265442, -0.192934051156044, 
134, 1478707975, 0.5916514, -0.3182608, -0.69883394, -0.24554032, 9.674424171447754, -0.31276142597198486, -1.9140633344650269, 1.7227935791015625, 0.23116102814674377, -0.3375369608402252, 
135, 1478724642, 0.59166497, -0.31816605, -0.6988705, -0.24552618, 9.657586097717285, -0.29163655638694763, -1.9322044849395752, 1.8368017673492432, 0.45340877771377563, -0.3830570876598358, 
136, 1478741309, 0.5916595, -0.31806234, -0.69892573, -0.24551642, 9.653650283813477, -0.26518338918685913, -1.9050652980804443, 1.8158119916915894, 0.31722602248191833, -0.5101729035377502, 
137, 1478757976, 0.5916041, -0.3180743, -0.69891256, -0.24567187, 9.662041664123535, -0.22454099357128143, -1.8803220987319946, 0.7127566337585449, 0.5162944197654724, -0.6313018798828125, 
138, 1478774643, 0.591552, -0.31799588, -0.6989423, -0.24581413, 9.648807525634766, -0.21678629517555237, -1.88042151927948, 0.2548527121543884, 0.5265394449234009, -0.9252843260765076, 
139, 1478791310, 0.5915085, -0.31782973, -0.6990114, -0.24593732, 9.650654792785645, -0.21742340922355652, -1.8723793029785156, 0.6531494855880737, 0.528658926486969, -1.3130927085876465, 
140, 1478807977, 0.5914464, -0.3177057, -0.69905293, -0.2461286, 9.650211334228516, -0.25552794337272644, -1.847940444946289, 0.29827266931533813, 0.6208774447441101, -1.3926455974578857, 
141, 1478824644, 0.59136546, -0.31757703, -0.69910043, -0.24635401, 9.661663055419922, -0.2667860686779022, -1.8757233619689941, 0.6367188096046448, 0.566386342048645, -1.6876012086868286, 
142, 1478841311, 0.5912795, -0.3174276, -0.69916576, -0.24656758, 9.650827407836914, -0.28573185205459595, -1.9008923768997192, 1.61882483959198, 0.452909380197525, -1.9316391944885254, 
143, 1478857978, 0.5912319, -0.31713155, -0.69931406, -0.2466418, 9.657600402832031, -0.27566826343536377, -1.8757888078689575, 1.8650015592575073, 0.30185848474502563, -1.970090627670288, 
144, 1478874645, 0.5911616, -0.31686845, -0.69945216, -0.2467574, 9.68289852142334, -0.18290114402770996, -1.8875490427017212, 1.7883555889129639, 0.25505128502845764, -2.049105644226074, 
145, 1478891312, 0.5911649, -0.31646654, -0.69962007, -0.24678908, 9.657034873962402, -0.16462872922420502, -1.8894273042678833, 1.5179622173309326, 0.6114647388458252, -2.063359022140503, 
146, 1478907979, 0.59108275, -0.3162938, -0.69969267, -0.24700168, 9.662457466125488, -0.16898922622203827, -1.8579370975494385, 1.0187066793441772, 0.5197969079017639, -1.9073458909988403, 
147, 1478924646, 0.59095675, -0.316227, -0.69971967, -0.24731159, 9.694147109985352, -0.16281276941299438, -1.881868839263916, 0.6954103112220764, 0.5045061111450195, -1.9000908136367798, 
148, 1478941313, 0.5908547, -0.31606027, -0.6997947, -0.24755615, 9.691214561462402, -0.1343095749616623, -1.8800384998321533, -0.14791333675384521, 0.5180680155754089, -1.8714686632156372, 
149, 1478957980, 0.59070283, -0.31601006, -0.6997956, -0.24797983, 9.667352676391602, -0.09338290244340897, -1.8773388862609863, -1.46544349193573, 0.7726582884788513, -2.009726047515869, 
150, 1478974647, 0.59055424, -0.31597257, -0.6997749, -0.24843955, 9.68461799621582, -0.08531154692173004, -1.8597748279571533, -1.5888004302978516, 0.9289084076881409, -2.0525567531585693, 
151, 1478991314, 0.59041977, -0.31592104, -0.699747, -0.24890342, 9.65786361694336, -0.13943980634212494, -1.8577741384506226, -1.8250393867492676, 1.0758870840072632, -2.0362160205841064, 
152, 1479007981, 0.590168, -0.3160362, -0.6996767, -0.24955054, 9.664987564086914, -0.13451750576496124, -1.8796577453613281, -3.45159912109375, 0.7859768867492676, -2.1277430057525635, 
153, 1479024648, 0.58986574, -0.31623447, -0.69956553, -0.2503241, 9.697357177734375, -0.11193167418241501, -1.9304389953613281, -4.569645404815674, 0.8456034064292908, -2.2322940826416016, 
154, 1479041315, 0.5896666, -0.31627202, -0.69948334, -0.25097474, 9.665794372558594, -0.11607813835144043, -1.8867133855819702, -3.4650015830993652, 1.2537928819656372, -2.316476821899414, 
155, 1479057982, 0.5894354, -0.31637827, -0.6993923, -0.2516376, 9.655705451965332, -0.11337067931890488, -1.848171353340149, -3.001206874847412, 1.0133345127105713, -2.21975040435791, 
156, 1479074649, 0.58914614, -0.31651363, -0.6993197, -0.25234488, 9.668146133422852, -0.09911525249481201, -1.8445513248443604, -3.993743658065796, 0.7313066720962524, -2.3020122051239014, 
157, 1479091316, 0.58885896, -0.31661302, -0.6992518, -0.25307786, 9.70361614227295, -0.076222725212574, -1.8831837177276611, -4.252694606781006, 0.8548558354377747, -2.5333263874053955, 
158, 1479107983, 0.58863467, -0.31660533, -0.6992026, -0.2537444, 9.664681434631348, -0.12607893347740173, -1.8897541761398315, -3.376183032989502, 1.1274967193603516, -2.696524143218994, 
159, 1479124650, 0.5883921, -0.3165487, -0.6992215, -0.25432488, 9.650230407714844, -0.1759604960680008, -1.86990225315094, -2.4692561626434326, 0.6580542922019958, -2.7959845066070557, 
160, 1479141317, 0.5881182, -0.31658882, -0.6992099, -0.25493965, 9.67922592163086, -0.20748701691627502, -1.8775734901428223, -2.929920196533203, 0.5313355326652527, -2.499152898788452, 
161, 1479157984, 0.5878872, -0.31659022, -0.6992087, -0.25547343, 9.646788597106934, -0.17024369537830353, -1.8945107460021973, -2.1407670974731445, 0.5866972804069519, -2.3313381671905518, 
162, 1479174651, 0.58767945, -0.3165734, -0.69923884, -0.2558893, 9.645675659179688, -0.14458048343658447, -1.8980520963668823, -1.6868458986282349, 0.360127329826355, -1.924595832824707, 
163, 1479191318, 0.5874717, -0.31664115, -0.69922954, -0.25630742, 9.67387866973877, -0.17529581487178802, -1.931252121925354, -1.8838911056518555, 0.37679484486579895, -1.483205795288086, 
164, 1479207985, 0.5873058, -0.31665888, -0.6992385, -0.25664103, 9.674221992492676, -0.15249967575073242, -1.928411602973938, -1.2658114433288574, 0.4158477187156677, -1.3330320119857788, 
165, 1479224652, 0.58718586, -0.31662866, -0.69926643, -0.25687653, 9.645055770874023, -0.13779795169830322, -1.8849354982376099, 0.14291244745254517, 0.42471617460250854, -1.2364914417266846, 
166, 1479241319, 0.5870891, -0.31652132, -0.6993654, -0.25696075, 9.6646089553833, -0.09641290456056595, -1.8826613426208496, 1.4240469932556152, 0.05791671574115753, -1.1231681108474731, 
167, 1479257986, 0.586989, -0.31638905, -0.6995134, -0.25694937, 9.685290336608887, -0.07270392030477524, -1.9124411344528198, 2.754620313644409, -0.3303782343864441, -1.0913187265396118, 
168, 1479274653, 0.586936, -0.3160997, -0.69975126, -0.2567787, 9.665628433227539, -0.019614631310105324, -1.8847262859344482, 3.226156234741211, -0.5012276768684387, -1.1131407022476196, 
169, 1479291320, 0.58686006, -0.31580916, -0.6999815, -0.2566822, 9.690049171447754, -0.0030506965704262257, -1.883180856704712, 1.6206755638122559, -0.3911571502685547, -1.2344681024551392, 
170, 1479307987, 0.58678323, -0.31562012, -0.70010626, -0.25675023, 9.662882804870605, 0.018438614904880524, -1.9106627702713013, 0.6078277826309204, 0.20342886447906494, -1.242299199104309, 
171, 1479324654, 0.586709, -0.3155363, -0.7001699, -0.25684938, 9.651037216186523, -0.02580205723643303, -1.871422529220581, 0.856207013130188, 0.32971227169036865, -0.8765754103660583, 
172, 1479341321, 0.58665895, -0.31539702, -0.7003081, -0.25675806, 9.641962051391602, -0.08664584159851074, -1.934949278831482, 2.010007619857788, -0.16484972834587097, -0.4616624712944031, 
173, 1479357988, 0.586649, -0.31518033, -0.7005111, -0.25649297, 9.649855613708496, -0.11826614290475845, -1.9331120252609253, 2.74230694770813, -0.45636704564094543, -0.09778929501771927, 
174, 1479374655, 0.58661216, -0.3150836, -0.70067155, -0.25625736, 9.664107322692871, -0.13147896528244019, -1.9529855251312256, 2.9788658618927, -0.5734043121337891, 0.23142996430397034, 
175, 1479391322, 0.58664966, -0.31485614, -0.7008847, -0.25586808, 9.673011779785156, -0.048652175813913345, -1.9303863048553467, 3.9384336471557617, -0.5142646431922913, 0.3276697099208832, 
176, 1479407989, 0.5867455, -0.31459904, -0.70108205, -0.25542355, 9.668719291687012, 3.881573211401701E-4, -1.8994063138961792, 4.166584491729736, -0.2264995127916336, 0.5881828665733337, 
177, 1479424656, 0.5867689, -0.31447458, -0.70124483, -0.25507572, 9.691376686096191, 0.04843856021761894, -1.9157589673995972, 3.2980194091796875, -0.46412140130996704, 0.7309480905532837, 
178, 1479441323, 0.5867972, -0.31436104, -0.70137566, -0.25479108, 9.667291641235352, 0.053254738450050354, -1.9142866134643555, 2.6599555015563965, -0.18656930327415466, 0.65334153175354, 
179, 1479457990, 0.58684796, -0.31419677, -0.70153743, -0.25443104, 9.663058280944824, 0.038390323519706726, -1.925977349281311, 3.0069117546081543, -0.2674606442451477, 0.7488577961921692, 
180, 1479474657, 0.5868978, -0.31405792, -0.70168227, -0.25408787, 9.6692476272583, 0.0345282219350338, -1.9245620965957642, 3.002333641052246, -0.21274548768997192, 0.8105651140213013, 
181, 1479491324, 0.58690107, -0.31404588, -0.7017562, -0.2538909, 9.682778358459473, 0.03229218348860741, -1.9417979717254639, 2.249563694000244, -0.06627926975488663, 0.7945060133934021, 
182, 1479507991, 0.58688426, -0.31403553, -0.70181763, -0.2537726, 9.679548263549805, 0.04886139929294586, -1.9295231103897095, 1.0159660577774048, 0.07218939065933228, 0.6134241223335266, 
183, 1479524658, 0.5868454, -0.31417596, -0.7017758, -0.25380456, 9.679926872253418, 0.06970378756523132, -1.9299240112304688, 0.4099440276622772, 0.43249601125717163, 0.762362003326416, 
184, 1479541325, 0.5868466, -0.31428188, -0.70173764, -0.25377616, 9.648694038391113, 0.07105448096990585, -1.923252820968628, 0.9357278347015381, 0.5426626205444336, 0.9060172438621521, 
185, 1479557992, 0.5868152, -0.31443554, -0.70171, -0.25373492, 9.662274360656738, 0.02734627015888691, -1.875500202178955, 0.9596118330955505, 0.2313019037246704, 1.084473729133606, 
186, 1479574659, 0.5868091, -0.3145492, -0.7017004, -0.25363475, 9.663284301757812, -0.008253449574112892, -1.918288230895996, 0.460734099149704, 0.23917140066623688, 1.3181191682815552, 
187, 1479591326, 0.5868356, -0.3146094, -0.7017104, -0.25347084, 9.66897964477539, -0.0030977881979197264, -1.956801176071167, 0.7312682271003723, 0.2819318175315857, 1.396827220916748, 
188, 1479607993, 0.58687913, -0.3146427, -0.701726, -0.2532857, 9.648659706115723, -0.021752938628196716, -1.910733699798584, 0.8205924034118652, 0.3481918275356293, 1.4063419103622437, 
189, 1479624660, 0.58680177, -0.31491587, -0.7016405, -0.25336212, 9.67142391204834, -0.04811496660113335, -1.9065580368041992, -0.45555388927459717, 0.30157673358917236, 1.2758710384368896, 
190, 1479641327, 0.58673185, -0.31519154, -0.7015275, -0.2534942, 9.66927433013916, -0.04890943691134453, -1.952174186706543, -1.069227695465088, 0.5691654086112976, 1.189940333366394, 
191, 1479657994, 0.5866873, -0.3154481, -0.7014126, -0.2535959, 9.660622596740723, -0.06123364716768265, -1.9551218748092651, -0.7153946757316589, 0.6702970862388611, 1.2560596466064453, 
192, 1479674661, 0.5866556, -0.31570616, -0.70131314, -0.2536237, 9.656713485717773, -0.10908789187669754, -1.9683613777160645, -0.20018243789672852, 0.5090523958206177, 1.5345720052719116, 
193, 1479691328, 0.58664465, -0.31587106, -0.70127964, -0.2535361, 9.640460968017578, -0.17782796919345856, -1.9400689601898193, 0.1373993158340454, 0.2712128758430481, 1.5744765996932983, 
194, 1479707995, 0.58661056, -0.31604797, -0.70125717, -0.25345674, 9.64460277557373, -0.1743975132703781, -1.9477550983428955, 0.025433409959077835, 0.11544923484325409, 1.5308966636657715, 
195, 1479724662, 0.5866021, -0.31620708, -0.70122075, -0.25337857, 9.651932716369629, -0.1588299572467804, -1.9618513584136963, 0.5805374383926392, 0.324269562959671, 1.428458571434021, 
196, 1479741329, 0.5866218, -0.31633845, -0.70118773, -0.25326023, 9.644486427307129, -0.1468822956085205, -1.9139894247055054, 1.084108591079712, 0.41018733382225037, 1.4729222059249878, 
197, 1479757996, 0.58664054, -0.31642976, -0.7011831, -0.25311574, 9.67016315460205, -0.12968198955059052, -1.9249345064163208, 1.5140178203582764, 0.3021145761013031, 1.2997163534164429, 
198, 1479774663, 0.58663076, -0.31651706, -0.701188, -0.25301537, 9.63903522491455, -0.11900994181632996, -1.9590181112289429, 0.7034271955490112, 0.24119479954242706, 1.1354366540908813, 
199, 1479791330, 0.58661723, -0.3165513, -0.7012163, -0.25292554, 9.621259689331055, -0.09611406177282333, -1.9817306995391846, 1.033856749534607, 0.2441914826631546, 0.7512460947036743, 
200, 1479807997, 0.5866427, -0.31650355, -0.70127845, -0.25275403, 9.665879249572754, -0.11849025636911392, -1.9563409090042114, 1.8264926671981812, 0.26729410886764526, 0.6958586573600769, 
201, 1479824664, 0.5866839, -0.316418, -0.7013585, -0.2525432, 9.693034172058105, -0.08018935471773148, -1.9754226207733154, 2.1640172004699707, 0.25537145137786865, 0.6703612208366394, 
202, 1479841331, 0.58670634, -0.31637514, -0.7014099, -0.25240216, 9.6522798538208, -0.0923142358660698, -1.964334487915039, 1.9622527360916138, 0.3543388545513153, 0.5578189492225647, 
203, 1479857998, 0.5866921, -0.31643412, -0.70140356, -0.25237846, 9.659308433532715, -0.09435447305440903, -1.952876091003418, 1.1450798511505127, 0.4861674904823303, 0.5770285129547119, 
204, 1479874665, 0.5866861, -0.31651443, -0.7013835, -0.25234747, 9.643917083740234, -0.11145764589309692, -1.9911572933197021, 0.869589626789093, 0.535535991191864, 0.7961578965187073, 
205, 1479891332, 0.5867252, -0.31650415, -0.7013991, -0.25222626, 9.653942108154297, -0.08307573199272156, -1.99233078956604, 1.0874000787734985, 0.5858777165412903, 0.8548367023468018, 
206, 1479907999, 0.5867424, -0.31655836, -0.7013888, -0.25214705, 9.643919944763184, -0.06767165660858154, -2.0191404819488525, 0.9803646206855774, 0.5621091723442078, 0.9353886842727661, 
207, 1479924666, 0.5867552, -0.31666756, -0.70134383, -0.2521047, 9.635315895080566, -0.10618842393159866, -1.973907232284546, 0.957120954990387, 0.6628438234329224, 1.0417709350585938, 
208, 1479941333, 0.58677584, -0.31672436, -0.7013375, -0.2520031, 9.639300346374512, -0.1337757110595703, -2.0163662433624268, 1.0414252281188965, 0.5197328925132751, 1.0456769466400146, 
209, 1479958000, 0.5867886, -0.31686217, -0.7012829, -0.25195238, 9.649659156799316, -0.15557335317134857, -1.9999899864196777, 1.4647902250289917, 0.6321853995323181, 1.131492018699646, 
210, 1479974667, 0.586843, -0.31688586, -0.70127714, -0.25181156, 9.663531303405762, -0.16111701726913452, -2.0129570960998535, 1.4288042783737183, 0.6615375280380249, 1.101538062095642, 
211, 1479991334, 0.58691585, -0.3169029, -0.7012726, -0.2516329, 9.66034984588623, -0.14767754077911377, -1.9722771644592285, 1.783194661140442, 0.6774430871009827, 1.2337510585784912, 
212, 1480008001, 0.587014, -0.3168502, -0.70131487, -0.2513526, 9.648788452148438, -0.17587047815322876, -1.9788167476654053, 2.4053397178649902, 0.5183625817298889, 1.2987431287765503, 
213, 1480024668, 0.5871138, -0.31678426, -0.70138043, -0.2510196, 9.644051551818848, -0.2024248242378235, -1.9760900735855103, 2.425682783126831, 0.3499911427497864, 1.4590595960617065, 
214, 1480041335, 0.5872105, -0.3168278, -0.70139337, -0.2507018, 9.642560958862305, -0.2412179559469223, -1.9703787565231323, 2.8131582736968994, 0.3742656111717224, 1.8487119674682617, 
215, 1480058002, 0.58732176, -0.31687918, -0.7013996, -0.2503584, 9.624990463256836, -0.24342821538448334, -1.962735891342163, 3.0852160453796387, 0.40245234966278076, 1.9993274211883545, 
216, 1480074669, 0.5874561, -0.31689167, -0.70143217, -0.24993587, 9.641922950744629, -0.23964501917362213, -1.9656250476837158, 3.3887274265289307, 0.3100802004337311, 2.1656949520111084, 
217, 1480091336, 0.58759815, -0.3168641, -0.7014982, -0.24945146, 9.643991470336914, -0.24307817220687866, -1.9317692518234253, 3.5788750648498535, 0.15617342293262482, 2.2212483882904053, 
218, 1480108003, 0.5876858, -0.3169183, -0.7015239, -0.24910314, 9.669890403747559, -0.2030823975801468, -1.921284794807434, 1.98429274559021, 0.22373975813388824, 2.1331281661987305, 
219, 1480124670, 0.58774734, -0.31703115, -0.70149386, -0.24889912, 9.67870044708252, -0.1333550363779068, -1.958961844444275, 1.3104737997055054, 0.5262641310691833, 1.831717848777771, 
220, 1480141337, 0.5877962, -0.3171285, -0.7014609, -0.2487527, 9.637541770935059, -0.05535353720188141, -1.925540804862976, 1.7347609996795654, 0.613398551940918, 1.3881700038909912, 
221, 1480158004, 0.58784825, -0.31712806, -0.70148563, -0.24856065, 9.640600204467773, -0.08598164469003677, -1.9156426191329956, 1.677721381187439, 0.48319634795188904, 1.1298657655715942, 
222, 1480174671, 0.5878335, -0.31719562, -0.701486, -0.24850757, 9.64052963256836, -0.1400568038225174, -1.9263386726379395, 0.8997229933738708, 0.43661972880363464, 0.7766667008399963, 
223, 1480191338, 0.58783835, -0.31718972, -0.7015074, -0.24844353, 9.654319763183594, -0.21225109696388245, -1.9617592096328735, 0.6310328841209412, 0.5661302804946899, 0.5847762823104858, 
224, 1480208005, 0.5878895, -0.31714314, -0.70152104, -0.24834363, 9.659831047058105, -0.2159944772720337, -1.9540512561798096, 1.2111988067626953, 0.8093357086181641, 0.5950726866722107, 
225, 1480224672, 0.5879472, -0.31709686, -0.7015368, -0.24822153, 9.669594764709473, -0.20061680674552917, -1.9308109283447266, 1.6288012266159058, 0.7766538262367249, 0.639818012714386, 
226, 1480241339, 0.58796537, -0.3171431, -0.701527, -0.24814717, 9.663718223571777, -0.22328346967697144, -1.9219555854797363, 1.660778522491455, 0.6150121092796326, 0.741154670715332, 
227, 1480258006, 0.5879861, -0.31718874, -0.70152766, -0.24803774, 9.656492233276367, -0.23970910906791687, -1.9577620029449463, 1.591598629951477, 0.5154554843902588, 0.9085208177566528, 
228, 1480274673, 0.5880369, -0.3172243, -0.701518, -0.24789938, 9.656943321228027, -0.21002233028411865, -1.9840900897979736, 1.8124827146530151, 0.6577726006507874, 1.0484814643859863, 
229, 1480291340, 0.58814, -0.3171631, -0.70155364, -0.24763198, 9.642792701721191, -0.1945178508758545, -1.9431922435760498, 2.290684700012207, 0.6334661245346069, 1.2276806831359863, 
230, 1480308007, 0.5882376, -0.31712574, -0.70158863, -0.24734876, 9.649964332580566, -0.20156270265579224, -1.9161814451217651, 2.4493296146392822, 0.5286845564842224, 1.3633512258529663, 
231, 1480324674, 0.5883246, -0.31712556, -0.70161015, -0.24708079, 9.657066345214844, -0.21042107045650482, -1.9076740741729736, 2.048234462738037, 0.5071698427200317, 1.5174369812011719, 
232, 1480341341, 0.5883864, -0.31722504, -0.7015897, -0.24686354, 9.657347679138184, -0.21481621265411377, -1.9255214929580688, 1.51680326461792, 0.48550793528556824, 1.795264482498169, 
233, 1480358008, 0.58845496, -0.3173258, -0.7015593, -0.2466571, 9.666647911071777, -0.2278231680393219, -1.9607995748519897, 1.5329904556274414, 0.5752292275428772, 1.777489185333252, 
234, 1480374675, 0.5885057, -0.3174801, -0.7014998, -0.24650688, 9.669044494628906, -0.2278946340084076, -1.9452990293502808, 1.3452816009521484, 0.6304053664207458, 1.7673914432525635, 
235, 1480391342, 0.58857095, -0.3176151, -0.70142376, -0.24639346, 9.643936157226562, -0.22896403074264526, -1.946506142616272, 0.9174980521202087, 0.8911554217338562, 1.6483436822891235, 
236, 1480408009, 0.58864987, -0.31771454, -0.7013708, -0.24622755, 9.637473106384277, -0.23205052316188812, -1.9516713619232178, 1.2362098693847656, 0.8137155175209045, 1.689477801322937, 
237, 1480424676, 0.5887446, -0.3177213, -0.7013701, -0.24599439, 9.61533260345459, -0.2241358458995819, -1.9356576204299927, 1.5839533805847168, 0.7059884667396545, 1.5172066688537598, 
238, 1480441343, 0.5888175, -0.31779557, -0.701335, -0.24582362, 9.631580352783203, -0.22395461797714233, -1.9385734796524048, 1.3030204772949219, 0.7487104535102844, 1.553960919380188, 
239, 1480458010, 0.58887976, -0.31787622, -0.701295, -0.24568427, 9.638425827026367, -0.24608567357063293, -1.9452929496765137, 1.321909785270691, 0.7658836841583252, 1.4073153734207153, 
240, 1480474677, 0.58894205, -0.3179572, -0.7012555, -0.24554287, 9.67798900604248, -0.23795510828495026, -1.9682714939117432, 1.5580589771270752, 0.7515407204627991, 1.3721107244491577, 
241, 1480491344, 0.5890488, -0.31794807, -0.70123506, -0.24535686, 9.621952056884766, -0.23248115181922913, -1.9516663551330566, 1.8407846689224243, 0.9607067704200745, 1.23491632938385, 
242, 1480508011, 0.5891561, -0.31790537, -0.70125407, -0.24510013, 9.648818016052246, -0.2607063949108124, -1.9401707649230957, 2.3909964561462402, 0.7060012221336365, 1.271734356880188, 
243, 1480524678, 0.5892628, -0.31789547, -0.7012659, -0.24482225, 9.642484664916992, -0.28497055172920227, -1.9441460371017456, 2.503551959991455, 0.6243607401847839, 1.4997131824493408, 
244, 1480541345, 0.589354, -0.317951, -0.7012657, -0.24453102, 9.65845012664795, -0.28257179260253906, -1.941903829574585, 2.4282758235931396, 0.4533575475215912, 1.8337538242340088, 
245, 1480558012, 0.5894484, -0.3180655, -0.7012407, -0.24422607, 9.662131309509277, -0.2971162796020508, -1.9261659383773804, 2.185032367706299, 0.4413965046405792, 2.2383580207824707, 
246, 1480574679, 0.5895127, -0.3183042, -0.70115066, -0.24401826, 9.66457748413086, -0.3162235617637634, -1.9064518213272095, 1.7686082124710083, 0.53289794921875, 2.3971314430236816, 
247, 1480591346, 0.5896131, -0.31847647, -0.70109004, -0.24372518, 9.673422813415527, -0.310379296541214, -1.9407905340194702, 1.56802237033844, 0.5521714091300964, 2.605285167694092, 
248, 1480608013, 0.5897212, -0.31866243, -0.7010197, -0.24342243, 9.643787384033203, -0.29878464341163635, -1.9223600625991821, 1.7970765829086304, 0.5749539136886597, 2.7004363536834717, 
249, 1480624680, 0.58982474, -0.3188259, -0.70097065, -0.24309865, 9.623104095458984, -0.30949509143829346, -1.9612443447113037, 1.934130311012268, 0.46069562435150146, 2.6372885704040527, 
250, 1480641347, 0.5899485, -0.31891066, -0.70096004, -0.24271762, 9.618276596069336, -0.31545478105545044, -1.9702974557876587, 2.0781757831573486, 0.433353990316391, 2.545966148376465, 
251, 1480658014, 0.5900252, -0.3190918, -0.7009179, -0.24241479, 9.633224487304688, -0.3159645199775696, -1.9539915323257446, 2.3021719455718994, 0.28924423456192017, 2.4638776779174805, 
252, 1480674681, 0.5900995, -0.31922257, -0.7009122, -0.24207772, 9.654505729675293, -0.31672993302345276, -1.9376415014266968, 1.9719089269638062, 0.18192702531814575, 2.4213733673095703, 
253, 1480691348, 0.5901885, -0.31931454, -0.7008957, -0.24178742, 9.65139102935791, -0.3177746832370758, -1.943507432937622, 1.597925066947937, 0.47811222076416016, 2.150045394897461, 
254, 1480708015, 0.5902537, -0.3193898, -0.7008832, -0.24156502, 9.642016410827637, -0.2926112413406372, -1.9183701276779175, 1.4563637971878052, 0.5136627554893494, 1.7162046432495117, 
255, 1480724682, 0.5902734, -0.31949598, -0.7008593, -0.24144581, 9.648484230041504, -0.29882004857063293, -1.9154655933380127, 1.3483036756515503, 0.48279935121536255, 1.276793122291565, 
256, 1480741349, 0.5902878, -0.31961432, -0.70081943, -0.2413696, 9.635100364685059, -0.30102086067199707, -1.9332728385925293, 1.278176188468933, 0.5823303461074829, 1.1467446088790894, 
257, 1480758016, 0.59031695, -0.31962278, -0.70084774, -0.24120484, 9.6248779296875, -0.3431796431541443, -1.9320441484451294, 1.8531814813613892, 0.38655972480773926, 0.9399092793464661, 
258, 1480774683, 0.5903046, -0.31969687, -0.7008526, -0.24112248, 9.627827644348145, -0.38673678040504456, -1.9395142793655396, 1.853193998336792, 0.3134097754955292, 0.7482621073722839, 
259, 1480791350, 0.5902999, -0.31967658, -0.7009014, -0.24101868, 9.663738250732422, -0.37521159648895264, -1.963027834892273, 1.1533782482147217, 0.35205939412117004, 0.5413884520530701, 
260, 1480808017, 0.59030616, -0.31968358, -0.70090497, -0.24098402, 9.656281471252441, -0.3654056191444397, -1.9167276620864868, 1.0620561838150024, 0.6730505228042603, 0.43007567524909973, 
261, 1480824684, 0.59031403, -0.3196606, -0.70093197, -0.24091664, 9.623786926269531, -0.38135918974876404, -1.9113130569458008, 1.1782482862472534, 0.5727896690368652, 0.407370001077652, 
262, 1480841351, 0.5902867, -0.31974578, -0.7009161, -0.24091667, 9.649869918823242, -0.3666968047618866, -1.9327248334884644, 1.3723669052124023, 0.47935453057289124, 0.4761273264884949, 
263, 1480858018, 0.5902619, -0.31982663, -0.7009062, -0.24089897, 9.62839412689209, -0.40586039423942566, -1.944505214691162, 1.1967918872833252, 0.45322954654693604, 0.5760552287101746, 
264, 1480874685, 0.5902505, -0.31984624, -0.7009274, -0.24083929, 9.629070281982422, -0.42432674765586853, -1.9281022548675537, 1.3920631408691406, 0.41468241810798645, 0.46453750133514404, 
265, 1480891352, 0.5902805, -0.31978065, -0.70098525, -0.24068476, 9.633544921875, -0.4081268906593323, -1.9588972330093384, 1.956528663635254, 0.4228016138076782, 0.4984615445137024, 
266, 1480908019, 0.59032273, -0.31968275, -0.7010587, -0.24049692, 9.627938270568848, -0.3817044496536255, -1.9200236797332764, 2.3767049312591553, 0.39836713671684265, 0.45045050978660583, 
267, 1480924686, 0.59033275, -0.31961825, -0.7011337, -0.24033928, 9.65106201171875, -0.33675944805145264, -1.9230486154556274, 1.9518539905548096, 0.2531687319278717, 0.44162696599960327, 
268, 1480941353, 0.5903167, -0.3196758, -0.7011376, -0.24029072, 9.664849281311035, -0.3168291747570038, -1.9380606412887573, 1.4034861326217651, 0.4014918804168701, 0.5758887529373169, 
269, 1480958020, 0.5903142, -0.31975427, -0.70111763, -0.24025077, 9.679985046386719, -0.3337080478668213, -1.9173399209976196, 1.1893256902694702, 0.5609564781188965, 0.7349308133125305, 
270, 1480974687, 0.59028834, -0.31993446, -0.7010515, -0.2402676, 9.65747356414795, -0.33161383867263794, -1.9331568479537964, 0.5479453206062317, 0.5777841210365295, 1.023624300956726, 
271, 1480991354, 0.59024984, -0.32008758, -0.7010063, -0.24029028, 9.629648208618164, -0.32952895760536194, -1.9341275691986084, -0.04852965846657753, 0.5312458276748657, 0.9380267262458801, 
272, 1481008021, 0.5902039, -0.3202391, -0.7009618, -0.24033116, 9.622270584106445, -0.32662233710289, -1.9251155853271484, -0.3122764527797699, 0.5474714636802673, 0.8765947222709656, 
273, 1481024688, 0.59012073, -0.32043552, -0.700899, -0.24045654, 9.62578296661377, -0.3140656352043152, -1.9232350587844849, -0.5215194225311279, 0.5179912447929382, 0.6326208114624023, 
274, 1481041355, 0.59002984, -0.32058668, -0.7008626, -0.24058427, 9.627761840820312, -0.31931212544441223, -1.9426921606063843, -0.4044821262359619, 0.4617201089859009, 0.3529942035675049, 
275, 1481058022, 0.5899377, -0.32070163, -0.7008403, -0.24072166, 9.633801460266113, -0.3683672249317169, -1.883123517036438, -0.20977438986301422, 0.46442222595214844, 0.09275638312101364, 
276, 1481074689, 0.58982617, -0.32076252, -0.700862, -0.24085069, 9.622432708740234, -0.4083098769187927, -1.8957654237747192, 0.12863978743553162, 0.2652963101863861, -0.2730890214443207, 
277, 1481091356, 0.5896994, -0.3207991, -0.7009003, -0.24100101, 9.630537033081055, -0.421774297952652, -1.9286199808120728, -0.012095597572624683, 0.21414777636528015, -0.5152826309204102, 
278, 1481108023, 0.58960974, -0.3207496, -0.70095575, -0.24112482, 9.625232696533203, -0.4054294228553772, -1.9443843364715576, -0.3083961308002472, 0.4741039276123047, -0.6250587701797485, 
279, 1481124690, 0.58950716, -0.3207325, -0.7009978, -0.24127576, 9.633564949035645, -0.4048159122467041, -1.9604623317718506, -0.18490448594093323, 0.43874552845954895, -0.662222683429718, 
280, 1481141357, 0.5893972, -0.32075477, -0.70102775, -0.24142802, 9.646093368530273, -0.4094006419181824, -1.9370312690734863, 0.15377862751483917, 0.35225141048431396, -0.5709774494171143, 
281, 1481158024, 0.5892878, -0.32078806, -0.70106393, -0.24154574, 9.649340629577637, -0.4292128086090088, -1.9217286109924316, 0.1455569565296173, 0.2353038638830185, -0.3660118877887726, 
282, 1481174691, 0.5891583, -0.32086146, -0.70108515, -0.24170299, 9.63768196105957, -0.4440254867076874, -1.9318277835845947, -0.2881236672401428, 0.21628645062446594, -0.33395758271217346, 
283, 1481191358, 0.5890371, -0.32089835, -0.7011271, -0.24182716, 9.63054370880127, -0.438829243183136, -1.94478440284729, -0.3715441823005676, 0.20587487518787384, -0.3213561475276947, 
284, 1481208025, 0.58891034, -0.3209459, -0.70116764, -0.24195528, 9.625090599060059, -0.4222177565097809, -1.933558702468872, 0.05186571925878525, 0.13447949290275574, -0.39454445242881775, 
285, 1481224692, 0.58879125, -0.3209494, -0.7012226, -0.24208145, 9.653151512145996, -0.38458526134490967, -1.9493190050125122, -0.0734892338514328, 0.20444056391716003, -0.5512557029724121, 
286, 1481241359, 0.58866256, -0.3209165, -0.7012966, -0.24222322, 9.63795280456543, -0.35376712679862976, -1.9490300416946411, 0.13885925710201263, 0.15997692942619324, -0.8775743842124939, 
287, 1481258026, 0.5885737, -0.32081345, -0.70139825, -0.24228148, 9.629773139953613, -0.3426067531108856, -1.9423924684524536, 1.3303492069244385, 0.14966781437397003, -0.9461010694503784, 
288, 1481274693, 0.58850896, -0.32059875, -0.7015602, -0.24225399, 9.622281074523926, -0.3524051606655121, -1.943562626838684, 2.100011110305786, 0.03802204877138138, -1.180867075920105, 
289, 1481291360, 0.58840775, -0.3203501, -0.70176476, -0.24223639, 9.647859573364258, -0.35063570737838745, -1.9255092144012451, 1.8938030004501343, -0.20922373235225677, -1.4833018779754639, 
290, 1481308027, 0.5883061, -0.32007015, -0.70198315, -0.2422204, 9.655241012573242, -0.316384881734848, -1.9392619132995605, 1.4998029470443726, -0.17444169521331787, -1.5665687322616577, 
291, 1481324694, 0.5881838, -0.3198499, -0.70216805, -0.24227239, 9.667716026306152, -0.2595590651035309, -1.9494363069534302, 1.390667200088501, -0.13077203929424286, -1.6236082315444946, 
292, 1481341361, 0.5880894, -0.31963545, -0.70233446, -0.2423024, 9.650657653808594, -0.29085469245910645, -1.9272489547729492, 1.5917909145355225, 0.008503415621817112, -1.435572624206543, 
293, 1481358028, 0.58797383, -0.31943795, -0.70252365, -0.24229483, 9.643649101257324, -0.3221574127674103, -1.934944987297058, 1.7516525983810425, -0.29772841930389404, -1.3001071214675903, 
294, 1481374695, 0.5878493, -0.31924683, -0.70271593, -0.24229123, 9.671879768371582, -0.2963240146636963, -1.9521136283874512, 1.7717841863632202, -0.36354026198387146, -1.3229151964187622, 
295, 1481391362, 0.58771574, -0.31905413, -0.702907, -0.24231492, 9.659099578857422, -0.22301851212978363, -1.9498319625854492, 1.3405814170837402, -0.3217530846595764, -1.394412875175476, 
296, 1481408029, 0.58753985, -0.3189513, -0.70305985, -0.2424334, 9.644034385681152, -0.19206924736499786, -1.9311041831970215, 0.3969712257385254, -0.316067099571228, -1.3330577611923218, 
297, 1481424696, 0.58731383, -0.31899926, -0.7031259, -0.2427263, 9.647597312927246, -0.20641157031059265, -1.9405736923217773, -0.8818708062171936, -0.11037793755531311, -1.2861673831939697, 
298, 1481441363, 0.5870727, -0.31911218, -0.703143, -0.24311149, 9.661057472229004, -0.26133376359939575, -1.9481180906295776, -1.746574878692627, 0.11106947809457779, -1.2520705461502075, 
299, 1481458030, 0.5868597, -0.31921053, -0.7031507, -0.24347347, 9.638168334960938, -0.28332310914993286, -1.9428200721740723, -1.7208980321884155, 0.27144336700439453, -1.1200495958328247, 
300, 1481474697, 0.5866604, -0.31926143, -0.7031803, -0.24380149, 9.611178398132324, -0.3280738294124603, -1.9555524587631226, -1.385832667350769, 0.2558068335056305, -1.2220395803451538, 
301, 1481491364, 0.5864828, -0.31921685, -0.7032895, -0.24397275, 9.608348846435547, -0.4077660143375397, -1.960510015487671, -0.626992404460907, -0.1040835976600647, -1.072986364364624, 
302, 1481508031, 0.5862755, -0.31923458, -0.70338964, -0.24415843, 9.647714614868164, -0.39790669083595276, -1.9722187519073486, -0.03600504994392395, -0.35414037108421326, -1.0709246397018433, 
303, 1481524698, 0.58613515, -0.31913808, -0.70353115, -0.24421433, 9.684309005737305, -0.3123227059841156, -2.0099899768829346, 1.118045687675476, -0.2797355055809021, -1.0505112409591675, 
304, 1481541365, 0.5860103, -0.31904796, -0.70364517, -0.24430308, 9.636945724487305, -0.24641309678554535, -1.9866483211517334, 1.0672683715820312, -0.04508475586771965, -1.1025947332382202, 
305, 1481558032, 0.5858135, -0.3190295, -0.7037347, -0.24454123, 9.637691497802734, -0.23441077768802643, -1.963403344154358, -0.5364643335342407, -0.05995292589068413, -1.339038372039795, 
306, 1481574699, 0.5855638, -0.31911635, -0.7037785, -0.24489939, 9.634662628173828, -0.23693817853927612, -1.9918972253799438, -1.2180566787719727, -0.08680783957242966, -1.4133151769638062, 
307, 1481591366, 0.5853263, -0.31913885, -0.7038687, -0.24517849, 9.618794441223145, -0.2876640856266022, -1.9514132738113403, -0.8110581040382385, -0.2533800005912781, -1.412674903869629, 
308, 1481608033, 0.58513063, -0.31909153, -0.7039993, -0.24533187, 9.613749504089355, -0.33072444796562195, -1.9964975118637085, 0.24374328553676605, -0.3720692992210388, -1.2656067609786987, 
309, 1481624700, 0.5849257, -0.319047, -0.7041247, -0.2455189, 9.647257804870605, -0.37404927611351013, -1.996307611465454, -0.18627475202083588, -0.3126606345176697, -1.344032883644104, 
310, 1481641367, 0.58470386, -0.31899917, -0.70425785, -0.24572726, 9.635743141174316, -0.30902448296546936, -2.0413219928741455, -0.09363362193107605, -0.39053604006767273, -1.5457199811935425, 
311, 1481658034, 0.5845357, -0.3188707, -0.70443934, -0.2457738, 9.619802474975586, -0.2841127812862396, -1.984174132347107, 1.3442184925079346, -0.5485023260116577, -1.3272820711135864, 
312, 1481674701, 0.5843703, -0.3187336, -0.7046606, -0.24571088, 9.6143217086792, -0.2840433120727539, -1.9926000833511353, 1.9749441146850586, -0.9181192517280579, -1.0113495588302612, 
313, 1481691368, 0.58419275, -0.31866437, -0.70485365, -0.24566923, 9.631216049194336, -0.3169291019439697, -1.991782546043396, 1.384059190750122, -0.924599289894104, -0.6977475881576538, 
314, 1481708035, 0.58400065, -0.31859952, -0.7050554, -0.24563108, 9.645745277404785, -0.279861718416214, -2.016909599304199, 1.2646139860153198, -1.026460886001587, -0.7259726524353027, 
315, 1481724702, 0.58381486, -0.31856093, -0.7052297, -0.24562238, 9.636645317077637, -0.21122799813747406, -2.0345747470855713, 1.1462708711624146, -0.8791495561599731, -0.6814066767692566, 
316, 1481741369, 0.5836285, -0.31855297, -0.7053658, -0.24568492, 9.615862846374512, -0.24083858728408813, -1.9980496168136597, 0.6583872437477112, -0.6255965828895569, -0.7484350800514221, 
317, 1481758036, 0.5834228, -0.31852478, -0.7055327, -0.24573062, 9.642483711242676, -0.23193800449371338, -2.0023133754730225, 0.7425376772880554, -0.8409737348556519, -0.8599271178245544, 
318, 1481774703, 0.58323014, -0.31846336, -0.70572484, -0.24571598, 9.676422119140625, -0.22011278569698334, -2.01019024848938, 1.156054973602295, -0.9498661756515503, -0.7930140495300293, 
319, 1481791370, 0.5830464, -0.3184068, -0.70591354, -0.24568313, 9.646615982055664, -0.21512046456336975, -1.9962483644485474, 1.2587488889694214, -0.9434630274772644, -0.6795368790626526, 
320, 1481808037, 0.58285344, -0.31841427, -0.70606655, -0.24569136, 9.614764213562012, -0.2528303861618042, -2.058525323867798, 0.7997693419456482, -0.8711326718330383, -0.48970839381217957, 
321, 1481824704, 0.5826221, -0.3184504, -0.7062222, -0.2457462, 9.609667778015137, -0.21115772426128387, -2.0622916221618652, 0.24685518443584442, -1.0041778087615967, -0.5773678421974182, 
322, 1481841371, 0.5823822, -0.3185361, -0.7063639, -0.24579677, 9.615288734436035, -0.157453715801239, -2.0727365016937256, 0.3904656171798706, -1.103247880935669, -0.3872320055961609, 
323, 1481858038, 0.5821495, -0.31858462, -0.70653063, -0.24580577, 9.598750114440918, -0.13616617023944855, -2.0658018589019775, 0.769751250743866, -1.1929948329925537, -0.43534544110298157, 
324, 1481874705, 0.5818919, -0.31867296, -0.70669365, -0.24583276, 9.598834991455078, -0.1971818059682846, -2.0541224479675293, 0.45312708616256714, -1.33414626121521, -0.34936365485191345, 
325, 1481891372, 0.58162713, -0.31874326, -0.7068815, -0.24582759, 9.619598388671875, -0.2028580754995346, -2.0077097415924072, 0.4197152853012085, -1.4906655550003052, -0.30589887499809265, 
326, 1481908039, 0.58135444, -0.31882134, -0.70706975, -0.24583031, 9.637479782104492, -0.20346999168395996, -2.053086280822754, 0.2896539866924286, -1.5217976570129395, -0.3018776774406433, 
327, 1481924706, 0.5810909, -0.31886467, -0.70726246, -0.2458425, 9.627239227294922, -0.23684045672416687, -2.066389560699463, 0.5193231105804443, -1.4260445833206177, -0.531726062297821, 
328, 1481941373, 0.58082736, -0.31886446, -0.70748705, -0.24581978, 9.607748031616211, -0.26455578207969666, -2.0418739318847656, 1.132401466369629, -1.5623810291290283, -0.7217082381248474, 
329, 1481958040, 0.5805538, -0.31887203, -0.7077221, -0.24577892, 9.60175609588623, -0.2740706503391266, -2.058803081512451, 1.4585920572280884, -1.721871256828308, -0.7168802618980408, 
330, 1481974707, 0.58026797, -0.3188505, -0.7079812, -0.24573578, 9.609823226928711, -0.2560373544692993, -2.072601079940796, 1.6188122034072876, -1.834784746170044, -0.9296448826789856, 
331, 1481991374, 0.5799933, -0.31875432, -0.7082819, -0.2456426, 9.591259956359863, -0.22947457432746887, -2.08396315574646, 1.4777885675430298, -1.892503023147583, -0.9880418181419373, 
332, 1482008041, 0.57970273, -0.31867632, -0.70859545, -0.2455258, 9.609916687011719, -0.2466517835855484, -2.089961290359497, 1.982717514038086, -2.134094715118408, -0.9792952537536621, 
333, 1482024708, 0.579414, -0.31861135, -0.70890737, -0.24539128, 9.606525421142578, -0.30557069182395935, -2.077043056488037, 2.1104226112365723, -2.1756772994995117, -0.856495201587677, 
334, 1482041375, 0.57914233, -0.31854096, -0.7092422, -0.24515608, 9.570611953735352, -0.37658557295799255, -2.080063581466675, 3.0670058727264404, -2.4178199768066406, -0.6010468602180481, 
335, 1482058042, 0.57889044, -0.3183884, -0.70965546, -0.24475284, 9.584226608276367, -0.3748661279678345, -2.0587985515594482, 3.8635354042053223, -2.841050624847412, -0.3493572771549225, 
336, 1482074709, 0.578594, -0.3182803, -0.71008325, -0.24435335, 9.652348518371582, -0.2692936062812805, -2.103097677230835, 3.598674774169922, -3.186405897140503, -0.26593029499053955, 
337, 1482091376, 0.5783511, -0.31817433, -0.71046, -0.24397105, 9.66595458984375, -0.18322433531284332, -2.072631359100342, 3.713099241256714, -2.693336009979248, -0.163146510720253, 
338, 1482108043, 0.5781385, -0.3180436, -0.71082443, -0.24358402, 9.587640762329102, -0.20765213668346405, -2.0355398654937744, 3.57503342628479, -2.4569942951202393, -0.1124589741230011, 
339, 1482124710, 0.57787293, -0.31791842, -0.711237, -0.24317281, 9.553997993469238, -0.2518899142742157, -2.0818278789520264, 3.820223569869995, -2.979057550430298, -0.23221111297607422, 
340, 1482141377, 0.57758164, -0.31770876, -0.71174484, -0.24265222, 9.543862342834473, -0.291312038898468, -2.1073479652404785, 4.74525260925293, -3.5814945697784424, -0.44729381799697876, 
341, 1482158044, 0.5772928, -0.31748134, -0.71227735, -0.24207412, 9.577857971191406, -0.2616981267929077, -2.175950765609741, 5.847329616546631, -3.7991902828216553, -0.5481311678886414, 
342, 1482174711, 0.57705545, -0.31716853, -0.7128424, -0.24138598, 9.610651016235352, -0.16379156708717346, -2.1711583137512207, 6.398348331451416, -3.749168634414673, -0.3845171332359314, 
343, 1482191378, 0.5768196, -0.31685054, -0.71339613, -0.24072994, 9.592307090759277, -0.15532749891281128, -2.1018431186676025, 6.111703872680664, -3.6213228702545166, -0.4874545931816101, 
344, 1482208045, 0.5765209, -0.31662378, -0.71394527, -0.24011533, 9.56687068939209, -0.26839780807495117, -2.11142635345459, 5.151315689086914, -3.955298900604248, -0.22072386741638184, 
345, 1482224712, 0.5761858, -0.31648746, -0.7145124, -0.23941118, 9.58316707611084, -0.37759777903556824, -2.118013858795166, 5.395264625549316, -4.568492889404297, 0.4107637107372284, 
346, 1482241379, 0.5758002, -0.31648153, -0.71506417, -0.23869897, 9.591771125793457, -0.5005736947059631, -2.1312360763549805, 5.448962688446045, -5.019111156463623, 0.849919319152832, 
347, 1482258046, 0.5754614, -0.31648445, -0.7155924, -0.2379274, 9.550650596618652, -0.4593088924884796, -2.1119790077209473, 5.381945610046387, -4.826399803161621, 1.3493027687072754, 
348, 1482274713, 0.57514167, -0.31649154, -0.71612215, -0.23709577, 9.55754566192627, -0.28663361072540283, -2.131983757019043, 5.985164165496826, -4.893454551696777, 1.5503242015838623, 
349, 1482291380, 0.57482004, -0.31653547, -0.7166079, -0.23634791, 9.561193466186523, -0.18514512479305267, -2.1450064182281494, 5.141763210296631, -4.598972797393799, 1.5506187677383423, 
350, 1482308047, 0.57444066, -0.3166308, -0.71708566, -0.2356928, 9.542657852172852, -0.32028496265411377, -2.072218894958496, 4.001639366149902, -4.718814373016357, 1.4622677564620972, 
351, 1482324714, 0.5740284, -0.31671953, -0.7176054, -0.2349953, 9.530531883239746, -0.39839208126068115, -2.0772218704223633, 4.617241382598877, -5.157124996185303, 1.3321553468704224, 
352, 1482341381, 0.5736643, -0.31671578, -0.71815085, -0.23422217, 9.505087852478027, -0.2879936695098877, -2.094982147216797, 5.752805233001709, -5.051933288574219, 1.1207479238510132, 
353, 1482358048, 0.57326096, -0.31675598, -0.71869457, -0.23348624, 9.588191986083984, -0.19572655856609344, -2.2971303462982178, 5.892560958862305, -5.253645420074463, 0.9797371625900269, 
354, 1482374715, 0.57292736, -0.31664285, -0.7192909, -0.23262051, 9.501754760742188, -0.26958927512168884, -2.377699613571167, 6.363835334777832, -5.123930931091309, 0.9842451214790344, 
355, 1482391382, 0.5724978, -0.3165261, -0.71999395, -0.2316605, 9.451557159423828, -0.37173765897750854, -2.3495311737060547, 7.4485602378845215, -6.239736557006836, 0.7830445766448975, 
356, 1482408049, 0.5720702, -0.31653944, -0.7206084, -0.2307858, 9.48096752166748, -0.3510473966598511, -2.332578420639038, 5.993821144104004, -5.88668966293335, 1.3921144008636475, 
357, 1482424716, 0.57169706, -0.31662202, -0.7211413, -0.22993119, 9.522480964660645, -0.2936569154262543, -2.2327632904052734, 5.604558944702148, -5.366854190826416, 1.9055724143981934, 
358, 1482441383, 0.57131904, -0.31701425, -0.721491, -0.22923209, 9.628543853759766, -0.313998818397522, -2.3290226459503174, 4.066145420074463, -4.8643717765808105, 2.991269588470459, 
359, 1482458050, 0.57097024, -0.31744546, -0.7218832, -0.22826773, 9.601425170898438, -0.2864718437194824, -2.2768826484680176, 4.822282791137695, -5.5106306076049805, 4.32043981552124, 
360, 1482474717, 0.5703186, -0.31865874, -0.72197473, -0.22791646, 9.698580741882324, -0.31826305389404297, -2.0488648414611816, -2.260340452194214, -5.736125469207764, 5.923655033111572, 
361, 1482491384, 0.5696139, -0.32045802, -0.7217403, -0.2278989, 9.586122512817383, -0.31647366285324097, -2.600830554962158, -6.452514171600342, -4.926636219024658, 8.082385063171387, 
362, 1482508051, 0.56905276, -0.3222342, -0.72148603, -0.22760107, 9.45268440246582, -0.413684219121933, -2.5983004570007324, -5.420309543609619, -4.680985927581787, 9.548406600952148, 
363, 1482524718, 0.5686467, -0.32403272, -0.72115815, -0.22710128, 9.384498596191406, -0.35707539319992065, -2.39630389213562, -4.192244529724121, -4.11001443862915, 10.825379371643066, 
364, 1482541385, 0.5683107, -0.32591164, -0.72077405, -0.22647187, 9.336740493774414, -0.37653300166130066, -2.474329948425293, -3.8364832401275635, -3.9595141410827637, 11.978412628173828, 
365, 1482558052, 0.56807846, -0.32721016, -0.7208083, -0.22506844, 9.150888442993164, -0.255839467048645, -2.724336624145508, 3.1416938304901123, -5.9130473136901855, 11.350837707519531, 
366, 1482574719, 0.5681973, -0.32773778, -0.7211585, -0.22286838, 9.576044082641602, -0.258587509393692, -3.168567419052124, 11.562826156616211, -6.0121588706970215, 10.428733825683594, 
367, 1482591386, 0.56860644, -0.3277766, -0.7215089, -0.22062242, 9.756080627441406, -0.019316628575325012, -2.9155943393707275, 14.057567596435547, -3.893921136856079, 8.737626075744629, 
368, 1482608053, 0.5688665, -0.32770666, -0.7218292, -0.21900266, 9.675315856933594, 0.03349629417061806, -3.0192689895629883, 10.717869758605957, -2.9183189868927, 5.68043851852417, 
369, 1482624720, 0.5690646, -0.327311, -0.7223034, -0.21751085, 9.58486557006836, -0.19294008612632751, -3.028684139251709, 12.005793571472168, -3.079230785369873, 2.968474864959717, 
370, 1482641387, 0.5692336, -0.32667804, -0.72295314, -0.2158555, 9.559900283813477, -0.10190436989068985, -2.798853635787964, 13.878162384033203, -3.913527250289917, 2.0154776573181152, 
371, 1482658054, 0.5690953, -0.3267316, -0.7231984, -0.2153166, 9.557295799255371, -0.20464962720870972, -2.622140645980835, 4.205874919891357, -2.354851245880127, 1.5699818134307861, 
372, 1482674721, 0.5686571, -0.32757142, -0.7230523, -0.21568912, 9.653220176696777, -0.3238000273704529, -2.7420289516448975, -4.872348785400391, -1.411509394645691, 2.433885335922241, 
373, 1482691388, 0.56802744, -0.32900056, -0.72253525, -0.21690206, 9.270807266235352, -0.572081446647644, -2.855142116546631, -12.530653953552246, 0.12756410241127014, 2.709760904312134, 
374, 1482708055, 0.5673437, -0.33047965, -0.7219916, -0.21824935, 9.221867561340332, -0.931246817111969, -2.9648337364196777, -13.524123191833496, 0.1975252777338028, 2.4075822830200195, 
375, 1482724722, 0.5667666, -0.33165076, -0.7215597, -0.21939705, 9.38451862335205, -1.0045571327209473, -3.0244839191436768, -11.037790298461914, 0.3110279142856598, 1.57664155960083, 
376, 1482741389, 0.56638694, -0.3323964, -0.72127664, -0.22017863, 9.241090774536133, -0.9470525979995728, -2.9135501384735107, -6.636808395385742, 0.5113959908485413, 0.7710191607475281, 
377, 1482758056, 0.5660836, -0.33284393, -0.72114474, -0.22071396, 9.21675968170166, -0.8443218469619751, -2.8066697120666504, -3.7495903968811035, 0.1879844069480896, -0.02413356490433216, 
378, 1482774723, 0.56578046, -0.33312547, -0.72108626, -0.22125685, 9.28242015838623, -0.8774959444999695, -2.6918041706085205, -3.3396334648132324, 0.19967658817768097, -0.9546171426773071, 
379, 1482791390, 0.5655691, -0.33328867, -0.72103685, -0.22171219, 9.510664939880371, -0.8156926035881042, -2.7030410766601562, -2.202378273010254, 0.6026027798652649, -1.0896090269088745, 
380, 1482808057, 0.56545216, -0.3334535, -0.7209038, -0.22219487, 9.501729011535645, -0.8222452402114868, -2.665771484375, -2.1957831382751465, 1.4506903886795044, -0.8797385692596436, 
381, 1482824724, 0.5653031, -0.33371294, -0.72075456, -0.22266833, 9.353788375854492, -0.8941668272018433, -2.58756422996521, -2.6504597663879395, 1.1918742656707764, -0.38004764914512634, 
382, 1482841391, 0.56507653, -0.33427614, -0.7204783, -0.2232917, 9.383551597595215, -0.9162757992744446, -2.7484657764434814, -5.025205612182617, 1.1859192848205566, 0.7331252098083496, 
383, 1482858058, 0.56484675, -0.33511117, -0.7200261, -0.22407828, 9.386030197143555, -0.8005549311637878, -2.781297445297241, -7.062441349029541, 1.8034546375274658, 1.7970771789550781, 
384, 1482874725, 0.5646079, -0.33620584, -0.71934557, -0.2252233, 9.254470825195312, -0.8098739981651306, -2.8483774662017822, -10.242491722106934, 3.074268102645874, 2.2018864154815674, 
385, 1482891392, 0.56423926, -0.33743653, -0.71864814, -0.22652958, 9.407822608947754, -1.0002694129943848, -2.788950204849243, -12.012740135192871, 2.6775403022766113, 2.1267387866973877, 
386, 1482908059, 0.5640275, -0.33859, -0.71789867, -0.22770907, 9.742950439453125, -0.9309350848197937, -2.852409601211548, -10.64999008178711, 3.471278190612793, 2.541318893432617, 
387, 1482924726, 0.56389827, -0.33974317, -0.71702087, -0.22907321, 9.537566184997559, -0.7837756872177124, -2.7633440494537354, -11.821529388427734, 4.828586578369141, 2.325032949447632, 
388, 1482941393, 0.56375146, -0.3411778, -0.71590316, -0.23079178, 9.282085418701172, -1.0357823371887207, -2.649590492248535, -14.744879722595215, 6.031732559204102, 2.753047466278076, 
389, 1482958060, 0.5636858, -0.34265688, -0.714727, -0.23240112, 9.363237380981445, -1.3697500228881836, -2.6597137451171875, -14.279839515686035, 6.332386493682861, 3.6523351669311523, 
390, 1482974727, 0.56378216, -0.3440858, -0.713531, -0.23372689, 9.243447303771973, -1.4184112548828125, -2.7027511596679688, -12.5436429977417, 6.633719444274902, 4.859231472015381, 
391, 1482991394, 0.5639376, -0.34542766, -0.7125677, -0.23431085, 8.980995178222656, -1.087166666984558, -2.667018175125122, -8.064897537231445, 4.412403583526611, 6.839143753051758, 
392, 1483008061, 0.5640143, -0.3467441, -0.7118748, -0.23428859, 8.847893714904785, -0.9483113884925842, -2.7551636695861816, -4.73346471786499, 1.581687092781067, 8.278897285461426, 
393, 1483024728, 0.5639308, -0.34781158, -0.7116283, -0.23365423, 9.01144027709961, -0.778351366519928, -2.91184663772583, -0.34378018975257874, -1.9931105375289917, 8.074419021606445, 
394, 1483041395, 0.5639147, -0.34873807, -0.71132386, -0.23323898, 9.42325210571289, -0.5172879695892334, -2.8196921348571777, -0.9161664843559265, -0.6738318204879761, 6.806934356689453, 
395, 1483058062, 0.5639251, -0.34957513, -0.71088934, -0.23328553, 9.649126052856445, -0.2569334805011749, -2.5908331871032715, -3.006220579147339, 1.2174485921859741, 4.943482398986816, 
396, 1483074729, 0.5638579, -0.35032687, -0.7103698, -0.2339021, 9.710904121398926, -0.0683140903711319, -2.595536947250366, -5.664525032043457, 2.663708448410034, 2.3724277019500732, 
397, 1483091396, 0.5636749, -0.3509626, -0.7097933, -0.23513702, 9.782416343688965, -0.2100900560617447, -2.599896192550659, -8.62193489074707, 3.9982588291168213, -0.6141478419303894, 
398, 1483108063, 0.563416, -0.35145405, -0.7091198, -0.23704845, 9.775199890136719, -0.34110310673713684, -2.370182991027832, -11.855567932128906, 5.8806915283203125, -3.7697620391845703, 
399, 1483124730, 0.56322396, -0.35169038, -0.70842683, -0.23921579, 9.665844917297363, -0.3754054605960846, -2.4756665229797363, -12.015764236450195, 7.311803817749023, -5.835633277893066, 
400, 1483141397, 0.5630039, -0.35189933, -0.7076265, -0.24178158, 9.442025184631348, -0.7058948874473572, -2.6718642711639404, -13.97210693359375, 8.586359024047852, -7.331252098083496, 
401, 1483158064, 0.5627208, -0.35182485, -0.7070207, -0.2443081, 9.269635200500488, -0.9464749097824097, -2.8257219791412354, -12.32732105255127, 7.8933305740356445, -9.189775466918945, 
402, 1483174731, 0.56239074, -0.35145736, -0.7066293, -0.24671766, 9.460271835327148, -1.0048097372055054, -2.861466884613037, -10.62559700012207, 7.071749210357666, -10.690398216247559, 
403, 1483191398, 0.56210023, -0.3508222, -0.7063715, -0.24901104, 9.379820823669434, -0.8897985219955444, -2.800199270248413, -8.653046607971191, 6.923092365264893, -11.826129913330078, 
404, 1483208065, 0.5618919, -0.3499661, -0.7062077, -0.25114164, 9.244300842285156, -0.8369987607002258, -2.939758062362671, -6.745693206787109, 6.956953525543213, -12.336641311645508, 
405, 1483224732, 0.5616865, -0.34899065, -0.7060892, -0.2532825, 9.36689281463623, -0.7125763297080994, -2.9281420707702637, -6.125800609588623, 7.031063556671143, -13.104934692382812, 
406, 1483241399, 0.5613623, -0.34802592, -0.7059359, -0.25574416, 9.489760398864746, -0.5508455634117126, -2.8624377250671387, -8.118460655212402, 7.352453708648682, -14.406411170959473, 
407, 1483258066, 0.5608701, -0.34722397, -0.7056245, -0.25875583, 9.613019943237305, -0.5836517810821533, -2.730309009552002, -12.106008529663086, 8.186857223510742, -15.657394409179688, 
408, 1483274733, 0.5603525, -0.3464581, -0.70518255, -0.2620872, 9.596052169799805, -0.7847358584403992, -2.7018072605133057, -14.13594913482666, 9.273760795593262, -16.440391540527344, 
409, 1483291400, 0.56001467, -0.34518045, -0.7049284, -0.26516035, 9.359434127807617, -1.0358822345733643, -2.7194266319274902, -10.22321891784668, 9.734994888305664, -18.040395736694336, 
410, 1483308067, 0.55989254, -0.34317228, -0.705096, -0.26756847, 9.312418937683105, -1.205885648727417, -2.8145649433135986, -3.004265546798706, 8.919598579406738, -19.619123458862305, 
411, 1483324734, 0.5599381, -0.3405908, -0.7056232, -0.26937568, 9.600369453430176, -1.1648813486099243, -2.900941848754883, 3.301827907562256, 7.992544651031494, -20.681886672973633, 
412, 1483341401, 0.5602588, -0.3374887, -0.70642823, -0.27050084, 9.587868690490723, -0.9306788444519043, -2.946333169937134, 9.861614227294922, 7.634533882141113, -20.76901626586914, 
413, 1483358068, 0.5608401, -0.33400166, -0.7075121, -0.27079162, 9.419837951660156, -0.5508908033370972, -2.7329928874969482, 16.45771598815918, 6.617280960083008, -19.590087890625, 
414, 1483374735, 0.56133723, -0.33099616, -0.7084538, -0.27098998, 9.495437622070312, -0.21959199011325836, -2.6563258171081543, 14.639715194702148, 5.654365539550781, -16.745830535888672, 
415, 1483391402, 0.56179607, -0.32890064, -0.7087537, -0.27180496, 9.61437702178955, -0.22999133169651031, -2.210338592529297, 6.72413444519043, 7.6576666831970215, -13.279308319091797, 
416, 1483408069, 0.56227046, -0.3280041, -0.7081241, -0.27354252, 9.416810035705566, -0.5161637663841248, -2.0366172790527344, -4.095096111297607, 11.166940689086914, -8.878092765808105, 
417, 1483424736, 0.5629226, -0.32827967, -0.7065713, -0.27587584, 9.316964149475098, -1.1491440534591675, -1.897566795349121, -12.851912498474121, 14.73567008972168, -3.070934534072876, 
418, 1483441403, 0.5640584, -0.32936472, -0.70438725, -0.27784136, 9.44808578491211, -1.7442128658294678, -1.7677074670791626, -14.271200180053711, 17.159770965576172, 4.596719741821289, 
419, 1483458070, 0.5658369, -0.33091864, -0.7017481, -0.27905405, 9.464090347290039, -1.9420956373214722, -1.8358086347579956, -11.919210433959961, 19.427032470703125, 12.02425479888916, 
420, 1483474737, 0.5681899, -0.33283567, -0.6987737, -0.27945668, 9.417947769165039, -1.9102662801742554, -1.7924180030822754, -8.898462295532227, 20.956336975097656, 18.786563873291016, 
421, 1483491404, 0.5710922, -0.33534056, -0.695239, -0.27936223, 9.474688529968262, -1.7325767278671265, -1.587286114692688, -8.531685829162598, 23.51349639892578, 25.832304000854492, 
422, 1483508071, 0.5744823, -0.33877882, -0.6908559, -0.27913705, 9.615110397338867, -1.8070290088653564, -1.3170127868652344, -12.183182716369629, 27.075273513793945, 33.69291305541992, 
423, 1483524738, 0.5784771, -0.34329978, -0.68537647, -0.27887067, 9.842974662780762, -2.13608717918396, -0.8993421196937561, -16.915794372558594, 32.093017578125, 42.67317581176758, 
424, 1483541405, 0.5832319, -0.3487047, -0.6787956, -0.2783561, 10.072178840637207, -2.224464178085327, -0.5645474195480347, -19.491273880004883, 37.755653381347656, 51.83135986328125, 
425, 1483558072, 0.5884696, -0.35477778, -0.6714927, -0.27736977, 10.30237865447998, -1.8456875085830688, -0.5528149604797363, -20.224048614501953, 40.474098205566406, 59.47151565551758, 
426, 1483574739, 0.5941533, -0.3610974, -0.6637034, -0.2758417, 10.498021125793457, -1.231427550315857, -0.3799506425857544, -18.738189697265625, 42.69921112060547, 64.84825134277344, 
427, 1483591406, 0.5998233, -0.36779466, -0.6557069, -0.27383897, 10.545341491699219, -0.7404835224151611, -0.44275370240211487, -18.514719009399414, 41.567935943603516, 68.98739624023438, 
428, 1483608073, 0.60527384, -0.37501782, -0.6474947, -0.27158022, 10.704695701599121, -0.5084291696548462, -0.5318587422370911, -20.570131301879883, 39.823699951171875, 72.56511688232422, 
429, 1483624740, 0.61031634, -0.38263908, -0.63927644, -0.26912293, 10.721417427062988, -0.664097785949707, -0.8067936897277832, -22.385103225708008, 36.76545333862305, 74.42784881591797, 
430, 1483641407, 0.61494225, -0.39030033, -0.63136584, -0.26625016, 10.835121154785156, -0.9488524198532104, -1.1870826482772827, -21.319093704223633, 32.48536682128906, 74.79075622558594, 
431, 1483658074, 0.61910415, -0.3979242, -0.6238563, -0.2630018, 10.822686195373535, -1.1175349950790405, -1.2749207019805908, -20.03103256225586, 27.841880798339844, 74.30327606201172, 
432, 1483674741, 0.62262785, -0.4055755, -0.61678034, -0.25966376, 10.944852828979492, -1.2290109395980835, -1.3290959596633911, -20.70914649963379, 22.972097396850586, 72.47484588623047, 
433, 1483691408, 0.62563676, -0.41317046, -0.61004883, -0.25633875, 10.87936782836914, -1.4088233709335327, -1.3831791877746582, -21.397506713867188, 19.47561264038086, 70.32402801513672, 
434, 1483708075, 0.6282218, -0.4203016, -0.60403425, -0.25263926, 10.57535457611084, -1.5472160577774048, -1.4327595233917236, -17.813390731811523, 14.392478942871094, 67.22920227050781, 
435, 1483724742, 0.6307468, -0.42638147, -0.5990126, -0.24807507, 10.209696769714355, -1.729772686958313, -1.4383506774902344, -8.040783882141113, 9.177255630493164, 63.63172912597656, 
436, 1483741409, 0.63346034, -0.43103915, -0.5951493, -0.24234407, 9.879667282104492, -1.9264875650405884, -1.368285894393921, 5.461068630218506, 3.9496564865112305, 59.7774543762207, 
437, 1483758076, 0.63656235, -0.43402922, -0.59248716, -0.23530042, 9.715914726257324, -2.060861825942993, -1.2310911417007446, 21.231645584106445, -0.7852759957313538, 55.77288818359375, 
438, 1483774743, 0.6401322, -0.4352981, -0.5909417, -0.22701211, 9.676547050476074, -2.0153331756591797, -1.0798050165176392, 37.0927848815918, -4.704678535461426, 51.64058303833008, 
439, 1483791410, 0.6440536, -0.43538877, -0.5900036, -0.21800806, 9.515032768249512, -1.8103505373001099, -0.9545606374740601, 47.160640716552734, -6.238221645355225, 48.752342224121094, 
440, 1483808077, 0.6480111, -0.43503934, -0.58925796, -0.20880064, 9.258302688598633, -1.5640814304351807, -0.8224873542785645, 50.32535171508789, -6.88787841796875, 47.36631774902344, 
441, 1483824744, 0.65155864, -0.43512538, -0.58823574, -0.20029043, 9.174604415893555, -1.323778510093689, -0.49930015206336975, 43.99565505981445, -5.874209880828857, 46.28290557861328, 
442, 1483841411, 0.6543491, -0.43618527, -0.58677053, -0.19305478, 9.115596771240234, -1.2558528184890747, -0.2515634000301361, 31.664949417114258, -4.506763458251953, 44.81859588623047, 
443, 1483858078, 0.65631646, -0.43835378, -0.58485395, -0.18719172, 9.02399730682373, -1.3198570013046265, -0.1987166851758957, 18.12761688232422, -3.180680274963379, 43.40708923339844, 
444, 1483874745, 0.6575507, -0.44163173, -0.58242005, -0.18268967, 8.975530624389648, -1.6554909944534302, -0.41473808884620667, 4.656674861907959, -1.081151008605957, 42.388587951660156, 
445, 1483891412, 0.6580928, -0.445812, -0.5796864, -0.1792465, 9.024298667907715, -2.285538911819458, -0.6806609630584717, -6.134055137634277, -0.41917359828948975, 41.285987854003906, 
446, 1483908079, 0.65819484, -0.45022473, -0.57706743, -0.17626794, 8.960259437561035, -3.0580105781555176, -0.8249250650405884, -10.021660804748535, -1.6515867710113525, 39.219722747802734, 
447, 1483924746, 0.6580763, -0.4544703, -0.57477796, -0.17327105, 8.705321311950684, -3.6236677169799805, -0.8869702219963074, -9.473196029663086, -3.8701443672180176, 37.36454391479492, 
448, 1483941413, 0.65773493, -0.4584263, -0.572955, -0.17015487, 8.525834083557129, -4.039831638336182, -0.9266607165336609, -7.887935638427734, -6.860246658325195, 35.045379638671875, 
449, 1483958080, 0.65756536, -0.46152335, -0.571628, -0.16687025, 8.478317260742188, -4.319502830505371, -0.8461437821388245, -2.2928504943847656, -7.913692951202393, 31.065637588500977, 
450, 1483974747, 0.65797, -0.46330097, -0.5707397, -0.16335197, 8.45684814453125, -4.350686073303223, -0.7946571707725525, 6.969361782073975, -6.892286777496338, 26.19061279296875, 
451, 1483991414, 0.6589978, -0.46372956, -0.57032496, -0.15939297, 8.326678276062012, -4.129096508026123, -0.7720691561698914, 17.397706985473633, -6.521275043487549, 22.067224502563477, 
452, 1484008081, 0.6607542, -0.46282142, -0.57028145, -0.15485296, 8.124101638793945, -3.696409225463867, -0.7349851727485657, 28.46274757385254, -5.7344069480896, 19.069759368896484, 
453, 1484024748, 0.66295767, -0.46097744, -0.5704453, -0.1502637, 7.938872337341309, -3.1064467430114746, -0.7578790783882141, 34.54982376098633, -4.085444927215576, 15.443151473999023, 
454, 1484041415, 0.6650391, -0.45887688, -0.57067966, -0.14655985, 7.8103227615356445, -2.8078999519348145, -0.8836840987205505, 31.933746337890625, -1.8159410953521729, 10.063128471374512, 
455, 1484058082, 0.6666832, -0.4566747, -0.57124865, -0.1437243, 7.922489643096924, -2.7186520099639893, -0.7594602704048157, 27.952844619750977, -2.2173681259155273, 4.212327003479004, 
456, 1484074749, 0.6678468, -0.4544762, -0.5721634, -0.1416375, 8.090530395507812, -2.5161101818084717, -0.5578912496566772, 23.82828712463379, -3.341010332107544, -0.7477450966835022, 
457, 1484091416, 0.66791224, -0.45323148, -0.5733132, -0.14066522, 8.065993309020996, -2.3365378379821777, -0.5698496699333191, 11.86270809173584, -6.188934803009033, -3.8945345878601074, 
458, 1484108083, 0.667028, -0.45282724, -0.57461596, -0.14084615, 7.982351303100586, -2.40871000289917, -0.5797128677368164, 0.6469898819923401, -7.855219841003418, -7.247045993804932, 
459, 1484124750, 0.66530854, -0.45325735, -0.5758729, -0.14245299, 7.8735175132751465, -2.485905885696411, -0.45206406712532043, -11.456836700439453, -7.314311504364014, -11.133515357971191, 
460, 1484141417, 0.6629649, -0.45381197, -0.57748187, -0.14507647, 7.746434211730957, -2.843616247177124, -0.7993737459182739, -17.65388298034668, -8.353761672973633, -16.978513717651367, 
461, 1484158084, 0.66047966, -0.45353943, -0.57981575, -0.14792699, 7.7656402587890625, -2.7139124870300293, -0.926640510559082, -14.50195026397705, -10.684813499450684, -23.68648910522461, 
462, 1484174751, 0.65780646, -0.45272696, -0.58270067, -0.15096046, 7.543135643005371, -2.5332205295562744, -0.5838598608970642, -12.803154945373535, -12.814565658569336, -28.565900802612305, 
463, 1484191418, 0.654818, -0.45175976, -0.58594203, -0.1542682, 7.684759140014648, -2.3977746963500977, -0.5057951211929321, -13.81550407409668, -14.678411483764648, -31.84769058227539, 
464, 1484208085, 0.6518666, -0.45064637, -0.58907664, -0.15803954, 8.000030517578125, -2.568835973739624, -0.5693604350090027, -15.024252891540527, -12.458513259887695, -34.137420654296875, 
465, 1484224752, 0.6490125, -0.4490561, -0.59235984, -0.16199176, 7.948918342590332, -2.837123155593872, -0.7349486947059631, -13.158712387084961, -11.657286643981934, -37.21980667114258, 
466, 1484241419, 0.6463613, -0.4465894, -0.5960793, -0.16572443, 8.03164005279541, -3.044738292694092, -0.8903387188911438, -7.148262977600098, -12.52692699432373, -40.93422317504883, 
467, 1484258086, 0.6444457, -0.44293064, -0.59985274, -0.16934901, 8.270978927612305, -3.3244361877441406, -0.7167015671730042, 0.9302984476089478, -8.734614372253418, -44.666259765625, 
468, 1484274753, 0.6428514, -0.43848005, -0.6039009, -0.17257215, 8.247840881347656, -3.4204251766204834, -0.4102898836135864, 7.360611438751221, -8.917933464050293, -46.613975524902344, 
469, 1484291420, 0.64110655, -0.43375555, -0.60842997, -0.17507558, 8.0294189453125, -3.180839776992798, -0.3422713279724121, 11.587912559509277, -13.48353099822998, -46.19183349609375, 
470, 1484308087, 0.63850987, -0.42987734, -0.6131183, -0.17775422, 7.890596866607666, -2.8065061569213867, -0.25463056564331055, 4.770930767059326, -18.253652572631836, -44.928245544433594, 
471, 1484324754, 0.63520837, -0.42703402, -0.61758965, -0.18092905, 8.140649795532227, -2.558185577392578, -0.31485888361930847, -4.113515853881836, -20.12520408630371, -42.97972106933594, 
472, 1484341421, 0.63148135, -0.42523447, -0.62129045, -0.18548678, 8.665898323059082, -2.753500461578369, -0.5696748495101929, -16.69870376586914, -15.837430953979492, -42.85886001586914, 
473, 1484358088, 0.6270685, -0.42471457, -0.62430024, -0.19144674, 8.75001049041748, -3.203535318374634, -0.7735900282859802, -31.18341064453125, -13.288653373718262, -42.32949447631836, 
474, 1484374755, 0.62251216, -0.42482463, -0.6268848, -0.19753018, 8.192316055297852, -3.4172651767730713, -0.6193938255310059, -35.39809799194336, -12.553446769714355, -39.11445999145508, 
475, 1484391422, 0.6182278, -0.42490935, -0.62950265, -0.20241812, 7.903959274291992, -3.2356855869293213, -0.2484113872051239, -29.314851760864258, -14.984152793884277, -33.84757614135742, 
476, 1484408089, 0.61401355, -0.425324, -0.63185257, -0.20700112, 8.28769302368164, -3.1764492988586426, -0.3675960600376129, -29.680105209350586, -14.869026184082031, -30.23967170715332, 
477, 1484424756, 0.60862744, -0.42783287, -0.6332992, -0.21322261, 8.718642234802246, -3.821969509124756, -1.2016249895095825, -50.35780715942383, -14.350568771362305, -27.099422454833984, 
478, 1484441423, 0.60277915, -0.43080595, -0.63489795, -0.21901704, 8.783964157104492, -4.521820545196533, -2.373680353164673, -51.581756591796875, -18.943450927734375, -24.438505172729492, 
479, 1484458090, 0.5986202, -0.43103427, -0.63800126, -0.22094792, 10.782791137695312, -3.9887797832489014, -1.901213526725769, -16.075855255126953, -25.103225708007812, -22.35417366027832, 
480, 1484474757, 0.59422594, -0.43147326, -0.6413248, -0.22232608, 14.425982475280762, -4.471007823944092, -2.3581199645996094, -14.8843412399292, -29.002595901489258, -20.184415817260742, 
481, 1484491424, 0.5906491, -0.43123853, -0.6448989, -0.22197376, 12.201568603515625, -4.102982997894287, -3.6428263187408447, -1.698186993598938, -30.533994674682617, -15.593647956848145, 
482, 1484508091, 0.5886552, -0.42885008, -0.6500333, -0.2168631, 9.77667236328125, -2.019080638885498, -2.6942334175109863, 35.21986770629883, -40.6574821472168, -8.048138618469238, 
483, 1484524758, 0.58654463, -0.4282535, -0.6535513, -0.21315525, 10.388890266418457, 0.943760097026825, -0.9814183712005615, 18.945680618286133, -33.164405822753906, -1.1209262609481812, 
484, 1484541425, 0.58323956, -0.43160558, -0.65394306, -0.21425852, 12.064302444458008, 0.7954972386360168, -1.793317437171936, -26.686565399169922, -17.563966751098633, 4.722959995269775, 
485, 1484558092, 0.58112615, -0.43532804, -0.6524922, -0.21687797, 10.353693962097168, -2.365013360977173, -2.5378541946411133, -34.15794372558594, -0.8788972496986389, 7.584696292877197, 
486, 1484574759, 0.5790503, -0.43779773, -0.6524255, -0.21765839, 9.999635696411133, -2.112621784210205, -2.5892088413238525, -18.726478576660156, -9.877763748168945, 5.224024772644043, 
487, 1484591426, 0.5762481, -0.43861893, -0.65451753, -0.21716022, 13.306097984313965, -1.9352974891662598, -4.703759670257568, -5.382218837738037, -23.108535766601562, -4.6610918045043945, 
488, 1484608093, 0.5737877, -0.43808296, -0.6570646, -0.217065, 14.498976707458496, -3.525453567504883, -4.991180896759033, -0.09962720423936844, -20.111995697021484, -13.21175479888916, 
489, 1484624760, 0.57306033, -0.4353824, -0.66009116, -0.21522951, 11.709171295166016, -5.054288387298584, -3.8759593963623047, 22.239351272583008, -16.168731689453125, -14.985573768615723, 
490, 1484641427, 0.5747986, -0.43028507, -0.6635343, -0.21019934, 11.167184829711914, -3.0192673206329346, -2.6665761470794678, 54.17213821411133, -12.625109672546387, -10.909141540527344, 
491, 1484658094, 0.57639533, -0.42518935, -0.66682154, -0.20574696, 10.057313919067383, 0.5134203433990479, -3.2348055839538574, 50.883323669433594, -10.951210021972656, -12.936495780944824, 
492, 1484674761, 0.5760246, -0.42198265, -0.669496, -0.20469931, 8.716669082641602, 2.44472599029541, -4.535325050354004, 21.180042266845703, -10.253046035766602, -18.721939086914062, 
493, 1484691428, 0.57406163, -0.4201096, -0.67208713, -0.20557334, 8.331339836120605, 1.0367350578308105, -4.280880928039551, 2.3369979858398438, -13.521957397460938, -22.134273529052734, 
494, 1484708095, 0.5717986, -0.4186336, -0.67462087, -0.20658848, 9.519567489624023, -1.66852867603302, -3.065397262573242, -0.815004289150238, -14.805831909179688, -21.075654983520508, 
495, 1484724762, 0.5700621, -0.417335, -0.67656827, -0.20764418, 10.149561882019043, -3.0444061756134033, -2.2327489852905273, -1.0158716440200806, -10.188395500183105, -17.97475814819336, 
496, 1484741429, 0.5691846, -0.41564694, -0.67818993, -0.2081466, 9.849678993225098, -2.1226768493652344, -1.7938240766525269, 5.079195976257324, -5.956565856933594, -15.47115707397461, 
497, 1484758096, 0.56816244, -0.41386816, -0.67990863, -0.20887531, 9.776954650878906, -0.3173609673976898, -2.013805627822876, 4.1006364822387695, -6.246618747711182, -17.266265869140625, 
498, 1484774763, 0.5664768, -0.41244963, -0.68156976, -0.21083695, 10.063249588012695, 0.17628023028373718, -2.508662700653076, -5.036265850067139, -6.142672061920166, -21.16805648803711, 
499, 1484791430, 0.5648382, -0.41099012, -0.6830652, -0.21322963, 9.749040603637695, -0.5570417046546936, -2.310232162475586, -6.997562885284424, -3.999988079071045, -22.473169326782227, 
500, 1484808097, 0.5630971, -0.41039768, -0.6839016, -0.21627341, 9.583015441894531, -1.8700600862503052, -1.8649181127548218, -14.674629211425781, -1.3598772287368774, -19.2033748626709, 
501, 1484824764, 0.5616396, -0.4105788, -0.68400216, -0.21937944, 9.115466117858887, -2.871866226196289, -2.2538483142852783, -18.259471893310547, 1.834486961364746, -13.312113761901855, 
502, 1484841431, 0.5607126, -0.4109124, -0.6838305, -0.22164953, 8.94137191772461, -2.955829381942749, -2.4233410358428955, -13.836769104003906, 2.783808708190918, -7.817073822021484, 
503, 1484858098, 0.5605084, -0.41103205, -0.6835666, -0.2227557, 9.131016731262207, -2.5112578868865967, -2.625580072402954, -5.644495487213135, 3.5722930431365967, -2.9958345890045166, 
504, 1484874765, 0.5604688, -0.41100168, -0.68343055, -0.22332774, 8.877610206604004, -1.6099426746368408, -2.7752339839935303, -1.8996750116348267, 2.573423385620117, -1.7666168212890625, 
505, 1484891432, 0.56021506, -0.41104478, -0.68351305, -0.22363202, 8.928492546081543, -1.1747065782546997, -3.2651612758636475, -1.1947747468948364, -0.14200320839881897, -1.338987112045288, 
506, 1484908099, 0.55978775, -0.4109526, -0.6838042, -0.22398134, 9.15075969696045, -1.2122005224227905, -3.1716179847717285, -1.0541099309921265, -1.4172978401184082, -3.0031208992004395, 
507, 1484924766, 0.5589607, -0.41084462, -0.6843471, -0.22458619, 9.142026901245117, -1.5714558362960815, -3.342247486114502, -2.934210777282715, -3.511559247970581, -5.385410308837891, 
508, 1484941433, 0.5581037, -0.41024002, -0.68535835, -0.22473882, 9.021655082702637, -1.7578202486038208, -3.3336029052734375, 1.7401273250579834, -5.954422950744629, -7.355937957763672, 
509, 1484958100, 0.55758625, -0.4091532, -0.68650097, -0.22451638, 9.105684280395508, -1.7028064727783203, -3.1800107955932617, 6.518973350524902, -5.1623382568359375, -8.041962623596191, 
510, 1484974767, 0.557301, -0.40821558, -0.68734014, -0.2243649, 9.643316268920898, -2.001953363418579, -3.0445895195007324, 5.795040130615234, -2.9273204803466797, -6.40199089050293, 
511, 1484991434, 0.5574733, -0.4069918, -0.6880552, -0.22396748, 9.379124641418457, -1.9397603273391724, -3.0403194427490234, 9.14510726928711, -0.5355809330940247, -5.766182899475098, 
512, 1485008101, 0.5577813, -0.40555823, -0.68887645, -0.2232751, 9.309693336486816, -1.5895286798477173, -2.7062816619873047, 11.885183334350586, -0.79939204454422, -5.724371910095215, 
513, 1485024768, 0.557905, -0.40427363, -0.6896673, -0.22285414, 9.320591926574707, -1.130910873413086, -2.421771764755249, 9.466175079345703, -1.0280237197875977, -6.261136531829834, 
514, 1485041435, 0.5579813, -0.4026493, -0.6908122, -0.22205657, 9.385126113891602, -0.9382348656654358, -2.485252857208252, 12.967013359069824, -3.1416237354278564, -7.481993198394775, 
515, 1485058102, 0.5581539, -0.40103176, -0.69179577, -0.22148731, 9.403722763061523, -1.0278065204620361, -2.8601372241973877, 11.877230644226074, -1.447252869606018, -7.72784948348999, 
516, 1485074769, 0.5582578, -0.3996704, -0.69254726, -0.22133745, 9.465444564819336, -1.0115641355514526, -2.863295078277588, 8.356698036193848, -0.11527641117572784, -7.57971715927124, 
517, 1485091436, 0.55845636, -0.39869043, -0.6928701, -0.22159334, 9.652772903442383, -0.7851497530937195, -2.28129243850708, 4.570689678192139, 2.5162432193756104, -5.995555400848389, 
518, 1485108103, 0.55856764, -0.39838812, -0.6926208, -0.22263342, 9.499485969543457, -0.5091865062713623, -2.3959286212921143, -2.878042221069336, 5.406496524810791, -4.336788177490234, 
519, 1485124770, 0.55865103, -0.39840993, -0.6921211, -0.22393548, 9.46051025390625, -0.4185965657234192, -2.7594192028045654, -5.827652454376221, 6.451443195343018, -3.146181344985962, 
520, 1485141437, 0.5584799, -0.39888376, -0.6913463, -0.22590354, 9.334047317504883, -0.5525809526443481, -2.967073440551758, -11.850934982299805, 7.425562381744385, -3.1811187267303467, 
521, 1485158104, 0.55814344, -0.3994596, -0.69056314, -0.22810233, 8.909552574157715, -1.0974857807159424, -2.8712573051452637, -13.804521560668945, 7.148638725280762, -3.8071320056915283, 
522, 1485174771, 0.5578031, -0.40018037, -0.68972796, -0.23018911, 8.64684009552002, -1.82793390750885, -2.831831932067871, -13.921530723571777, 6.797103404998779, -2.5515198707580566, 
523, 1485191438, 0.55767274, -0.40086243, -0.68890584, -0.2317744, 8.563437461853027, -2.488646984100342, -2.571157693862915, -10.798684120178223, 6.427971839904785, -0.525976300239563, 
524, 1485208105, 0.5577884, -0.4015749, -0.68812734, -0.23257387, 8.942987442016602, -2.6141974925994873, -2.245018720626831, -6.450924396514893, 5.2112884521484375, 2.8859751224517822, 
525, 1485224772, 0.5582344, -0.40194836, -0.6876331, -0.23232016, 9.251423835754395, -2.272066354751587, -2.749619722366333, 1.1927067041397095, 3.3138608932495117, 5.045202732086182, 
526, 1485241439, 0.5587961, -0.40198472, -0.68729764, -0.23189925, 9.164337158203125, -1.3237087726593018, -2.7320492267608643, 3.847014904022217, 3.3291006088256836, 3.8249499797821045, 
527, 1485258106, 0.5594213, -0.40191436, -0.6868821, -0.2317454, 9.075139999389648, -1.1829627752304077, -2.590883731842041, 3.041790246963501, 4.846512317657471, 2.615377187728882, 
528, 1485274773, 0.5602337, -0.40207338, -0.68605334, -0.23196124, 9.216108322143555, -1.9243481159210205, -2.316969394683838, 0.27312105894088745, 7.976166725158691, 3.717465877532959, 
529, 1485291440, 0.56132644, -0.40248793, -0.6848022, -0.23229724, 9.071415901184082, -2.538938045501709, -2.211224317550659, -1.1797664165496826, 10.846012115478516, 6.065333843231201, 
530, 1485308107, 0.5627526, -0.40309933, -0.68323874, -0.23239048, 8.89717960357666, -2.510828971862793, -2.0468153953552246, -0.3780245780944824, 12.63029956817627, 9.308918952941895, 
531, 1485324774, 0.5646203, -0.4040994, -0.6810955, -0.23241481, 8.641678810119629, -2.2475550174713135, -1.9430506229400635, -1.2653911113739014, 16.129854202270508, 13.697834014892578, 
532, 1485341441, 0.566806, -0.4055278, -0.6784023, -0.23248403, 8.71360969543457, -2.1442840099334717, -1.2530473470687866, -3.137326240539551, 19.18794059753418, 17.553321838378906, 
533, 1485358108, 0.569072, -0.4075398, -0.67510015, -0.2330419, 8.847614288330078, -1.4952685832977295, -1.5308990478515625, -8.44460678100586, 22.353485107421875, 20.186527252197266, 
534, 1485374775, 0.5713658, -0.40985864, -0.67121804, -0.23457073, 8.297442436218262, -1.3993021249771118, -2.3181312084198, -15.004611015319824, 26.971038818359375, 19.479890823364258, 
535, 1485391442, 0.5736326, -0.41257393, -0.6668467, -0.23673627, 8.216011047363281, -1.1670812368392944, -2.4920308589935303, -20.365633010864258, 29.925098419189453, 20.141334533691406, 
536, 1485408109, 0.5756942, -0.41585585, -0.661914, -0.23981272, 8.300341606140137, -1.7295173406600952, -1.7503563165664673, -28.271671295166016, 32.864891052246094, 20.40737533569336, 
537, 1485424776, 0.5778945, -0.4190598, -0.6570096, -0.24241564, 8.23013973236084, -2.34446382522583, -1.2632540464401245, -25.366544723510742, 32.15569305419922, 22.06981086730957, 
538, 1485441443, 0.580431, -0.42206448, -0.6521665, -0.24421379, 7.879587173461914, -1.6268343925476074, -1.6790450811386108, -19.87279510498047, 31.435956954956055, 24.74040412902832, 
539, 1485458110, 0.5827322, -0.4252429, -0.6472351, -0.24633037, 7.747879505157471, -1.1933517456054688, -2.1399707794189453, -22.8243408203125, 31.365196228027344, 24.105850219726562, 
540, 1485474777, 0.58450073, -0.4283985, -0.6425129, -0.24901988, 8.481812477111816, -1.8268769979476929, -2.525850772857666, -26.48540496826172, 29.875619888305664, 20.198318481445312, 
541, 1485491444, 0.5860274, -0.43140733, -0.63778895, -0.25235888, 8.464845657348633, -3.613274574279785, -2.124133348464966, -29.480121612548828, 30.98817253112793, 16.52793312072754, 
542, 1485508111, 0.58804435, -0.43350145, -0.63374996, -0.25424674, 7.651312351226807, -4.368671417236328, -2.27413272857666, -16.791040420532227, 27.665225982666016, 17.158411026000977, 
543, 1485524778, 0.5906508, -0.43508664, -0.63024324, -0.25421432, 7.555820465087891, -3.8680357933044434, -2.3150906562805176, -3.684035539627075, 23.25628662109375, 22.114879608154297, 
544, 1485541445, 0.59402776, -0.43557945, -0.6274158, -0.25249034, 8.326274871826172, -3.191805601119995, -2.592982053756714, 11.5723876953125, 20.695974349975586, 23.537281036376953, 
545, 1485558112, 0.5976375, -0.43520546, -0.6250513, -0.25047326, 8.671725273132324, -2.796023368835449, -2.382935047149658, 17.876672744750977, 20.44768524169922, 19.995147705078125, 
546, 1485574779, 0.601491, -0.43406975, -0.62309813, -0.24807462, 8.433832168579102, -2.1900131702423096, -3.014751434326172, 24.08622932434082, 19.985244750976562, 17.46781349182129, 
547, 1485591446, 0.6047976, -0.43335074, -0.62122774, -0.2459742, 8.196660041809082, -2.0339601039886475, -3.0722296237945557, 19.596994400024414, 17.496166229248047, 16.835128784179688, 
548, 1485608113, 0.60727644, -0.4330847, -0.61950576, -0.24467498, 8.619483947753906, -2.895495653152466, -3.1679134368896484, 12.07938289642334, 14.983381271362305, 13.593915939331055, 
549, 1485624780, 0.6096622, -0.4325994, -0.61788934, -0.2436853, 9.267526626586914, -3.857659101486206, -2.6223607063293457, 11.580557823181152, 15.457083702087402, 10.88540267944336, 
550, 1485641447, 0.6125588, -0.4322756, -0.61574876, -0.2424107, 9.01669692993164, -4.575613498687744, -2.4355571269989014, 12.757001876831055, 18.72003746032715, 15.162166595458984, 
551, 1485658114, 0.6162315, -0.4326232, -0.6127969, -0.23995045, 9.326189041137695, -5.178736686706543, -2.14805006980896, 15.902914047241211, 20.789379119873047, 26.67436408996582, 
552, 1485674781, 0.62106264, -0.43318862, -0.60928667, -0.2353693, 10.066609382629395, -5.934791088104248, -2.11318302154541, 26.440441131591797, 21.3747615814209, 40.117740631103516, 
553, 1485691448, 0.6274076, -0.43311855, -0.6055478, -0.22821029, 11.278510093688965, -5.332141876220703, -2.1355483531951904, 44.093196868896484, 22.04866600036621, 51.556766510009766, 
554, 1485708115, 0.63434577, -0.43337741, -0.6011289, -0.22007662, 12.391803741455078, -5.086575031280518, -1.8334378004074097, 47.43402099609375, 24.03550148010254, 60.059513092041016, 
555, 1485724782, 0.64183253, -0.4338596, -0.59613216, -0.21081613, 12.62103271484375, -4.509337902069092, -1.3016796112060547, 51.88339614868164, 25.127534866333008, 68.43234252929688, 
556, 1485741449, 0.6493407, -0.43550044, -0.59021515, -0.20085432, 12.188244819641113, -3.2920281887054443, -0.45227473974227905, 48.378326416015625, 25.500410079956055, 79.04658508300781, 
557, 1485758116, 0.6565363, -0.43851462, -0.5834041, -0.19053799, 11.613194465637207, -2.0717172622680664, -0.3569861352443695, 41.51926040649414, 25.254091262817383, 88.45803833007812, 
558, 1485774783, 0.6630704, -0.44275331, -0.5759742, -0.18044709, 10.950984954833984, -0.7863280177116394, -0.8914292454719543, 32.287906646728516, 24.45940589904785, 93.37547302246094, 
559, 1485791450, 0.66787106, -0.44833207, -0.5687612, -0.17163116, 10.898277282714844, -0.6692003607749939, -1.59709632396698, 16.128786087036133, 18.82500457763672, 90.09732818603516, 
560, 1485808117, 0.6700196, -0.45512164, -0.5626918, -0.16527595, 12.076252937316895, -2.537961483001709, -1.8704543113708496, -5.87070369720459, 9.366609573364258, 76.9204330444336, 
561, 1485824784, 0.6705587, -0.46113425, -0.558658, -0.16002348, 12.54547119140625, -4.007556915283203, -2.0240280628204346, -9.271132469177246, -1.8911323547363281, 60.66704559326172, 
562, 1485841451, 0.67145616, -0.46483955, -0.55632246, -0.15354522, 11.818192481994629, -3.577303409576416, -1.1146053075790405, 9.08865737915039, -9.68055248260498, 52.48670959472656, 
563, 1485858118, 0.67216676, -0.46829554, -0.55434865, -0.146931, 11.319411277770996, -2.845309257507324, -0.3015173673629761, 10.54892635345459, -12.23219108581543, 50.8319206237793, 
564, 1485874785, 0.67171466, -0.4727884, -0.55259895, -0.14108565, 10.77780818939209, -3.7013723850250244, -0.5201518535614014, -0.6889305114746094, -16.277671813964844, 49.364986419677734, 
565, 1485891452, 0.6711917, -0.47640863, -0.55156916, -0.1353075, 10.361788749694824, -4.074143409729004, -0.4284732937812805, 3.555647373199463, -18.809545516967773, 43.35036087036133, 
566, 1485908119, 0.67152524, -0.4783561, -0.550966, -0.1290954, 9.622943878173828, -3.772146701812744, -0.22193899750709534, 16.123502731323242, -17.399965286254883, 38.424217224121094, 
567, 1485924786, 0.6730935, -0.47870407, -0.5503768, -0.12195467, 8.740592956542969, -3.7657294273376465, 0.025986673310399055, 31.099365234375, -14.428245544433594, 37.71956253051758, 
568, 1485941453, 0.6757243, -0.47768697, -0.54978913, -0.11377136, 8.179964065551758, -4.073940277099609, 0.2448999434709549, 44.85918045043945, -12.7094087600708, 38.275238037109375, 
569, 1485958120, 0.6791336, -0.47517624, -0.5495769, -0.10464377, 8.203997611999512, -3.925877571105957, 0.3135150671005249, 58.21504211425781, -13.453079223632812, 36.39824676513672, 
570, 1485974787, 0.68214625, -0.4724324, -0.54980206, -0.09592635, 8.340789794921875, -3.4181573390960693, 0.11523650586605072, 56.769222259521484, -15.496724128723145, 31.8967342376709, 
571, 1485991454, 0.6842221, -0.47032684, -0.5502604, -0.0885792, 8.30058765411377, -2.9192793369293213, -0.1659010797739029, 45.70562744140625, -16.107419967651367, 26.522533416748047, 
572, 1486008121, 0.6853077, -0.4691849, -0.5507973, -0.08271229, 7.95813512802124, -2.73648738861084, -0.47071373462677, 32.417903900146484, -16.026281356811523, 22.367765426635742, 
573, 1486024788, 0.6855162, -0.46892112, -0.551429, -0.07814658, 7.7692341804504395, -2.9847114086151123, -0.708903431892395, 20.578853607177734, -16.095775604248047, 18.77991485595703, 
574, 1486041455, 0.6851156, -0.46954325, -0.5518462, -0.07491119, 7.9790496826171875, -3.471585512161255, -0.5024282932281494, 9.284441947937012, -13.579617500305176, 16.250289916992188, 
575, 1486058122, 0.68397737, -0.4710168, -0.55228686, -0.07278423, 8.314679145812988, -4.108110427856445, -0.4508541226387024, -1.2998782396316528, -13.349400520324707, 13.819668769836426, 
576, 1486074789, 0.68225974, -0.47273263, -0.5531766, -0.07100268, 8.550803184509277, -4.669707775115967, -0.7072163820266724, -5.401182174682617, -16.665037155151367, 11.384567260742188, 
577, 1486091456, 0.68090785, -0.47351354, -0.5544423, -0.068871826, 8.50644588470459, -4.95543098449707, -0.8974288702011108, 1.687584638595581, -17.71698760986328, 8.432480812072754, 
578, 1486108123, 0.6801035, -0.4735318, -0.55566067, -0.066845894, 8.136475563049316, -4.862523078918457, -0.8752580881118774, 6.6189680099487305, -14.70350170135498, 5.454101085662842, 
579, 1486124790, 0.67928284, -0.47326338, -0.55703956, -0.065601766, 7.782479286193848, -4.650930404663086, -0.8854989409446716, 4.996041774749756, -12.837445259094238, 0.17867428064346313, 
580, 1486141457, 0.67925245, -0.47138846, -0.5587993, -0.064440496, 7.760193824768066, -4.545437812805176, -0.4327000081539154, 14.926321983337402, -10.59417724609375, -7.239740371704102, 
581, 1486158124, 0.6803059, -0.4680871, -0.5604424, -0.06311011, 7.790316581726074, -4.343186378479004, 0.21514900028705597, 25.69771385192871, -5.8024516105651855, -11.066388130187988, 
582, 1486174791, 0.6808683, -0.4651988, -0.562267, -0.06216379, 7.798853397369385, -4.280778884887695, 0.0829649418592453, 20.779645919799805, -7.494325160980225, -12.061323165893555, 
583, 1486191458, 0.68088585, -0.46264663, -0.56438017, -0.061868545, 7.985560894012451, -4.109767436981201, -0.036740370094776154, 15.066405296325684, -9.017807960510254, -14.958019256591797, 
584, 1486208125, 0.680413, -0.46062377, -0.56652325, -0.06257385, 8.004328727722168, -3.935713291168213, 0.08472379297018051, 7.156031131744385, -8.109177589416504, -17.8828182220459, 
585, 1486224792, 0.67871404, -0.4604378, -0.5684057, -0.06526467, 7.893662452697754, -3.7810356616973877, -0.40892335772514343, -13.16891860961914, -6.173871040344238, -19.70598602294922, 
586, 1486241459, 0.6765047, -0.46111384, -0.57001054, -0.069308236, 7.854913234710693, -4.048952579498291, -0.6230481863021851, -24.2191219329834, -2.9813106060028076, -21.98858070373535, 
587, 1486258126, 0.67438483, -0.46169665, -0.5714574, -0.07401273, 8.058429718017578, -4.388221740722656, -0.2984965145587921, -26.168136596679688, 0.24316807091236115, -24.875751495361328, 
588, 1486274793, 0.6724025, -0.4620989, -0.5727838, -0.0791092, 8.247930526733398, -4.575068473815918, -0.19017043709754944, -26.497642517089844, 2.6705214977264404, -26.944456100463867, 
589, 1486291460, 0.6704899, -0.4623098, -0.57410675, -0.084346965, 8.232388496398926, -4.517853736877441, -0.4450497031211853, -25.95378303527832, 3.5070242881774902, -28.297306060791016, 
590, 1486308127, 0.6687244, -0.46204424, -0.575604, -0.08946029, 8.150290489196777, -4.414333820343018, -0.6163340210914612, -22.700347900390625, 3.159303903579712, -30.069576263427734, 
591, 1486324794, 0.66667277, -0.46198535, -0.5770885, -0.095320426, 8.156108856201172, -4.303722381591797, -0.7838055491447449, -27.52418327331543, 4.328945636749268, -32.81558609008789, 
592, 1486341461, 0.6636808, -0.4629221, -0.5785804, -0.10235168, 8.083800315856934, -4.575240135192871, -1.4767913818359375, -39.71830368041992, 3.627075433731079, -34.870643615722656, 
593, 1486358128, 0.6604883, -0.4638755, -0.58017796, -0.10940011, 8.104069709777832, -4.971534252166748, -1.5139787197113037, -40.42461013793945, 2.393300771713257, -35.360042572021484, 
594, 1486374795, 0.6571427, -0.46456754, -0.5821539, -0.115920484, 7.958600044250488, -5.154915809631348, -1.2848893404006958, -37.33452606201172, -1.4216525554656982, -35.331329345703125, 
595, 1486391462, 0.65365386, -0.4648473, -0.5846825, -0.12165603, 8.044301986694336, -5.1415534019470215, -1.334406852722168, -32.347999572753906, -6.669275283813477, -35.32247543334961, 
596, 1486408129, 0.6503299, -0.464699, -0.5874438, -0.12663198, 8.547416687011719, -5.093961715698242, -1.5566543340682983, -26.649208068847656, -9.121199607849121, -34.244354248046875, 
597, 1486424796, 0.64771354, -0.4637426, -0.59015656, -0.13086331, 8.654195785522461, -5.223955154418945, -1.7557228803634644, -17.810361862182617, -7.719188690185547, -33.414520263671875, 
598, 1486441463, 0.64627886, -0.46129763, -0.5930721, -0.13339317, 8.523887634277344, -5.250891208648682, -1.8900851011276245, -0.3265438675880432, -7.909364223480225, -31.46957015991211, 
599, 1486458130, 0.64582163, -0.45749348, -0.5962372, -0.13459344, 8.489029884338379, -5.382575035095215, -1.6723642349243164, 14.463516235351562, -7.996313571929932, -31.009401321411133, 
600, 1486474797, 0.64574134, -0.45290077, -0.5996774, -0.13522574, 8.552644729614258, -5.508469104766846, -1.352927327156067, 21.73258399963379, -8.725072860717773, -32.24972152709961, 
601, 1486491464, 0.6461079, -0.44705707, -0.6037641, -0.1347349, 8.660735130310059, -5.337297439575195, -1.3653061389923096, 33.90751266479492, -12.086296081542969, -34.0350341796875, 
602, 1486508131, 0.64681345, -0.44003388, -0.6085533, -0.132912, 8.96074390411377, -4.904661655426025, -1.273903489112854, 46.36687088012695, -16.798620223999023, -34.87253189086914, 
603, 1486524798, 0.6476563, -0.4328038, -0.6132431, -0.13097802, 9.310397148132324, -4.430031776428223, -0.9979655146598816, 48.07520294189453, -15.927412033081055, -34.82810592651367, 
604, 1486541465, 0.6481343, -0.42632908, -0.61749536, -0.12986481, 9.134148597717285, -4.119344711303711, -0.7809229493141174, 39.769004821777344, -13.7573823928833, -34.32975769042969, 
605, 1486558132, 0.648413, -0.42012727, -0.62164026, -0.1289083, 9.091703414916992, -3.7710442543029785, -0.7602227330207825, 37.20524597167969, -13.912636756896973, -33.73609161376953, 
606, 1486574799, 0.648627, -0.41426662, -0.62547827, -0.12823172, 9.121844291687012, -3.486321449279785, -0.39287638664245605, 34.02732849121094, -12.317524909973145, -32.69743728637695, 
607, 1486591466, 0.6480559, -0.40965402, -0.62906325, -0.12840036, 9.063956260681152, -3.462796449661255, -0.09810613095760345, 22.363842010498047, -13.264846801757812, -31.06842803955078, 
608, 1486608133, 0.6477351, -0.40588585, -0.63165855, -0.12924209, 8.826895713806152, -3.3279459476470947, -0.18586282432079315, 15.51919937133789, -6.634371757507324, -27.40757179260254, 
609, 1486624800, 0.64767075, -0.40278733, -0.6334841, -0.13031836, 8.346019744873047, -2.9501659870147705, -0.26114803552627563, 11.545554161071777, -2.041445732116699, -23.1668758392334, 
610, 1486641467, 0.6471951, -0.40076035, -0.6348957, -0.1320501, 8.262319564819336, -2.562859058380127, -0.12847170233726501, 2.4079430103302, -1.1427314281463623, -20.638917922973633, 
611, 1486658134, 0.64625084, -0.40004683, -0.63575476, -0.13467817, 7.964939594268799, -2.3281350135803223, 0.04941115528345108, -9.144062042236328, 0.537124752998352, -17.792537689208984, 
612, 1486674801, 0.64450747, -0.40108207, -0.6360538, -0.13848779, 7.795143127441406, -2.321599006652832, -0.27456456422805786, -24.79793357849121, 1.1524338722229004, -14.59360122680664, 
613, 1486691468, 0.6421823, -0.40338138, -0.6358353, -0.14352371, 7.658092021942139, -2.350707530975342, -0.6631557941436768, -37.861480712890625, 3.0696611404418945, -13.62181568145752, 
614, 1486708135, 0.6390053, -0.40676758, -0.635361, -0.1500962, 7.639942169189453, -2.6126840114593506, -1.1020199060440063, -51.99245071411133, 3.659888505935669, -15.783141136169434, 
615, 1486724802, 0.63561296, -0.40996867, -0.6350884, -0.15679492, 7.527811050415039, -2.68326735496521, -1.4554009437561035, -52.12569046020508, 2.3735291957855225, -17.932546615600586, 
616, 1486741469, 0.63197196, -0.41274834, -0.6352752, -0.16332692, 7.98172664642334, -2.9203896522521973, -1.4731553792953491, -49.760719299316406, -0.7336000800132751, -20.608978271484375, 
617, 1486758136, 0.6285896, -0.41487274, -0.63552314, -0.16990079, 8.40597152709961, -3.383913040161133, -1.4601627588272095, -46.293922424316406, 0.9854964017868042, -23.53846549987793, 
618, 1486774803, 0.6255676, -0.4160756, -0.63613003, -0.1757412, 8.34458065032959, -3.622084617614746, -1.227873682975769, -37.66041564941406, -0.008522686548531055, -25.00442886352539, 
619, 1486791470, 0.6227881, -0.41658005, -0.6371029, -0.18082067, 8.193204879760742, -3.5190227031707764, -0.911523699760437, -30.19383430480957, -1.8566172122955322, -25.550674438476562, 
620, 1486808137, 0.6198468, -0.4172443, -0.638105, -0.18579386, 8.179224967956543, -2.984508514404297, -1.065901756286621, -30.841768264770508, -3.198793888092041, -24.68974494934082, 
621, 1486824804, 0.61667365, -0.41791555, -0.6393251, -0.19058827, 8.268714904785156, -2.6268768310546875, -1.138553500175476, -30.475982666015625, -5.672367572784424, -24.824691772460938, 
622, 1486841471, 0.6132523, -0.41831216, -0.64087695, -0.19548306, 8.117488861083984, -2.435659170150757, -0.6495174765586853, -30.03214454650879, -7.524360179901123, -27.739076614379883, 
623, 1486858138, 0.6093143, -0.41918632, -0.6423048, -0.20115583, 8.302901268005371, -2.0553812980651855, -0.3875490427017212, -37.127262115478516, -7.6909613609313965, -29.254594802856445, 
624, 1486874805, 0.6046296, -0.42134956, -0.6431062, -0.2080919, 8.868730545043945, -1.7394754886627197, -1.2634674310684204, -51.12550735473633, -6.518311977386475, -28.082748413085938, 
625, 1486891472, 0.5986998, -0.42423508, -0.64416915, -0.2159382, 9.28336238861084, -2.389345407485962, -2.8563084602355957, -61.3853645324707, -11.510987281799316, -31.206953048706055, 
626, 1486908139, 0.592894, -0.42504916, -0.6467177, -0.22263485, 10.285239219665527, -2.8393666744232178, -2.450413227081299, -45.197566986083984, -17.34674072265625, -39.80072021484375, 
627, 1486924806, 0.5868243, -0.42565146, -0.6493938, -0.22966479, 12.450602531433105, -3.9001526832580566, -2.608657121658325, -46.39240264892578, -17.74057960510254, -42.88206100463867, 
628, 1486941473, 0.58169526, -0.42664754, -0.65131146, -0.2353635, 12.121308326721191, -6.404511451721191, -3.3427531719207764, -40.483009338378906, -14.998214721679688, -32.06098175048828, 
629, 1486958140, 0.57915336, -0.42501333, -0.6550348, -0.23425326, 9.862887382507324, -6.729970932006836, -3.6583447456359863, 11.03165054321289, -26.34613800048828, -17.75419807434082, 
630, 1486974807, 0.57823443, -0.42147288, -0.66042966, -0.22768036, 10.383686065673828, -3.487834930419922, -2.685946226119995, 50.650882720947266, -38.574161529541016, -6.903177261352539, 
631, 1486991474, 0.5776987, -0.41832742, -0.6651155, -0.22110625, 11.131431579589844, -0.09444504976272583, -2.401930809020996, 49.082576751708984, -34.634029388427734, -2.463454484939575, 
632, 1487008141, 0.5763696, -0.4185528, -0.6670149, -0.21840967, 9.892287254333496, 0.6824216246604919, -2.4243009090423584, 11.449322700500488, -21.1690731048584, 4.376220703125, 
633, 1487024808, 0.5736164, -0.4210022, -0.66795814, -0.2180676, 9.079458236694336, -1.068601131439209, -2.568791151046753, -13.689945220947266, -20.473600387573242, 5.883979797363281, 
634, 1487041475, 0.5709824, -0.42287034, -0.66920364, -0.21754664, 11.224252700805664, -1.5040998458862305, -2.6979851722717285, -9.775328636169434, -20.7628116607666, 3.2306127548217773, 
635, 1487058142, 0.56962436, -0.42288128, -0.6708456, -0.21602283, 11.704569816589355, -1.6482871770858765, -3.442246437072754, 6.4339680671691895, -16.58831787109375, -0.6162229776382446, 
