sep=,
DeviceTag:,Trunk - 8,,,,,,,,,,,,,,,,,
FirmwareVersion:,3.0.0,,,,,,,,,,,,,,,,,
AppVersion:,2023.6.1,,,,,,,,,,,,,,,,,
StartTime:,2024-05-25 15:19:41.000 +0200,,,,,,,,,,,,,,,,,
 2024,,,,,,,,,,,,,,,,,,,

PacketCounter,SampleTimeFine,Quat_W,Quat_X,Quat_Y,Quat_Z,Acc_X,Acc_Y,Acc_Z,Gyr_X,Gyr_Y,Gyr_Z,
0, 1213478737, 0.8386048, 0.15561366, -0.49451098, 0.1672876, 0.0, 0.0, 0.0, 0.0, 0.0, 0.0, 
1, 1213495404, 0.83837026, 0.15736324, -0.49424952, 0.16759984, 8.733782768249512, 1.175336480140686, 4.66943883895874, 6.3569769859313965, 0.5471705794334412, -0.05318478122353554, 
2, 1213512071, 0.83891433, 0.15917565, -0.49317268, 0.16633329, 8.761716842651367, 1.2088849544525146, 4.694940090179443, 4.193765640258789, 0.1534648984670639, 0.34669989347457886, 
3, 1213528738, 0.8396342, 0.16070753, -0.49190164, 0.16498673, 8.785611152648926, 1.1151615381240845, 4.704438209533691, 2.3342392444610596, 1.2230961322784424, 0.49815425276756287, 
4, 1213545405, 0.8402952, 0.16128966, -0.49091822, 0.16397901, 8.810627937316895, 1.0321635007858276, 4.71912145614624, 2.2665765285491943, 2.3022167682647705, 0.40339359641075134, 
5, 1213562072, 0.84081113, 0.16124493, -0.4901853, 0.16357012, 8.731318473815918, 0.9722287058830261, 4.693274021148682, 2.2025961875915527, 2.995872735977173, 0.6851077079772949, 
6, 1213578739, 0.8411715, 0.16094477, -0.48964667, 0.16362618, 8.679176330566406, 0.9581077694892883, 4.644232273101807, 2.4625906944274902, 2.8105392456054688, 1.0853958129882812, 
7, 1213595406, 0.84136164, 0.16060044, -0.48937836, 0.16378924, 8.676678657531738, 1.008804440498352, 4.60115385055542, 3.17462420463562, 1.784968614578247, 1.3134257793426514, 
8, 1213612073, 0.8414191, 0.16033351, -0.48933783, 0.1638771, 8.738405227661133, 1.0173802375793457, 4.63200044631958, 3.9159324169158936, 0.8915076851844788, 1.5808607339859009, 
9, 1213628740, 0.84132034, 0.16023676, -0.48948905, 0.16402744, 8.74540901184082, 1.078095555305481, 4.768979072570801, 3.5178213119506836, -0.5247786641120911, 1.2107315063476562, 
10, 1213645407, 0.84132046, 0.1602603, -0.4894167, 0.16421857, 8.828510284423828, 1.0359294414520264, 4.667986869812012, 4.120078086853027, 0.5189325213432312, 1.111520767211914, 
11, 1213662074, 0.8412499, 0.16040581, -0.48938283, 0.16453919, 8.7362642288208, 1.02000093460083, 4.752830982208252, 4.392520904541016, 0.36863717436790466, 1.2450909614562988, 
12, 1213678741, 0.8411751, 0.16048725, -0.48937163, 0.16487606, 8.709650993347168, 1.0089956521987915, 4.786077976226807, 4.27858304977417, 0.07927772402763367, 1.7821639776229858, 
13, 1213695408, 0.8411466, 0.16048503, -0.4892923, 0.16525753, 8.655044555664062, 0.9677351117134094, 4.728296279907227, 4.09613037109375, 0.4829082489013672, 2.3088505268096924, 
14, 1213712075, 0.8411213, 0.16045777, -0.48919487, 0.16570131, 8.65399169921875, 0.9516699314117432, 4.733323574066162, 4.232326507568359, 0.5975251197814941, 2.7123146057128906, 
15, 1213728742, 0.8410604, 0.16046439, -0.48912922, 0.16619623, 8.667404174804688, 0.9957950711250305, 4.703074932098389, 4.4745073318481445, 0.23103299736976624, 2.857231378555298, 
16, 1213745409, 0.84093827, 0.16054383, -0.48912433, 0.16675118, 8.67310619354248, 1.0407499074935913, 4.717206954956055, 4.480928897857666, -0.3637388050556183, 2.8868203163146973, 
17, 1213762076, 0.8407927, 0.16062297, -0.48917037, 0.16727333, 8.717700958251953, 1.0309549570083618, 4.720346927642822, 4.323738098144531, -0.74004065990448, 2.9854233264923096, 
18, 1213778743, 0.84067994, 0.16069803, -0.48917148, 0.16776477, 8.736576080322266, 1.0337574481964111, 4.755225658416748, 4.608038425445557, -0.289154589176178, 3.0876944065093994, 
19, 1213795410, 0.8405295, 0.16095321, -0.4891173, 0.16843048, 8.696269989013672, 0.9891769886016846, 4.75031042098999, 5.27984619140625, -0.22391900420188904, 3.020460605621338, 
20, 1213812077, 0.840354, 0.16129994, -0.48905703, 0.16914754, 8.690988540649414, 0.9630301594734192, 4.722046852111816, 5.85565185546875, -0.3484095633029938, 2.9798965454101562, 
21, 1213828744, 0.8401954, 0.16160981, -0.48900104, 0.16979977, 8.692200660705566, 0.9609028100967407, 4.72245979309082, 6.060202598571777, -0.24090029299259186, 3.067486524581909, 
22, 1213845411, 0.8400033, 0.16196081, -0.48896217, 0.17052625, 8.697457313537598, 0.9833097457885742, 4.720186233520508, 6.311264991760254, -0.42523494362831116, 3.2879157066345215, 
23, 1213862078, 0.83976674, 0.16232765, -0.48896646, 0.17132907, 8.739278793334961, 1.0298819541931152, 4.70184326171875, 6.164362907409668, -0.7909010052680969, 3.548921585083008, 
24, 1213878745, 0.83952594, 0.16267002, -0.48898405, 0.1721317, 8.772951126098633, 1.061212420463562, 4.717182636260986, 5.822311878204346, -0.8176599740982056, 3.6306838989257812, 
25, 1213895412, 0.8393191, 0.16291898, -0.4890286, 0.17277761, 8.741326332092285, 1.069453239440918, 4.740413665771484, 5.166274070739746, -0.8171732425689697, 3.3843982219696045, 
26, 1213912079, 0.8391337, 0.16314025, -0.48906675, 0.17336038, 8.725687980651855, 1.0459390878677368, 4.727593898773193, 4.59435510635376, -0.7559780478477478, 3.0774168968200684, 
27, 1213928746, 0.8390368, 0.16311477, -0.48914108, 0.17364283, 8.706195831298828, 0.9867718815803528, 4.781786918640137, 3.093809127807617, -0.5697736740112305, 2.741224765777588, 
28, 1213945413, 0.8388773, 0.16338748, -0.48913318, 0.17417836, 8.679337501525879, 1.0745272636413574, 4.700590133666992, 4.0705695152282715, -0.6199811100959778, 2.247713327407837, 
29, 1213962080, 0.83881176, 0.16350734, -0.48910478, 0.17446184, 8.715912818908691, 1.0698697566986084, 4.761059284210205, 4.144455909729004, -0.04749876260757446, 2.2523555755615234, 
30, 1213978747, 0.8388832, 0.16320941, -0.48907533, 0.1744798, 8.677363395690918, 1.0073394775390625, 4.811909198760986, 0.5018423795700073, 0.5936511158943176, 1.919517993927002, 
31, 1213995414, 0.8389766, 0.16313066, -0.48888707, 0.17463169, 8.598828315734863, 1.0404056310653687, 4.729698657989502, 0.9078933000564575, 1.2563155889511108, 0.9747681021690369, 
32, 1214012081, 0.83894485, 0.16330491, -0.48886192, 0.1746924, 8.593527793884277, 1.0704141855239868, 4.702581405639648, 3.0072898864746094, -0.40444374084472656, 0.5051721334457397, 
33, 1214028748, 0.8387946, 0.16351335, -0.48904666, 0.17470086, 8.643478393554688, 1.074785828590393, 4.847905158996582, 3.010772943496704, -2.0952792167663574, 0.5686787962913513, 
34, 1214045415, 0.8387243, 0.16357143, -0.48920673, 0.17453626, 8.646990776062012, 0.9815309643745422, 4.8577094078063965, 1.8107924461364746, -1.7054858207702637, 0.15386830270290375, 
35, 1214062082, 0.8387017, 0.1636971, -0.48923397, 0.17445077, 8.701573371887207, 0.9517054557800293, 4.800141334533691, 1.20704984664917, -0.9746849536895752, -0.5657525062561035, 
36, 1214078749, 0.8386485, 0.1639319, -0.4892383, 0.1744737, 8.72835636138916, 1.0432921648025513, 4.803302764892578, 1.3375463485717773, -1.0714880228042603, -0.8168721199035645, 
37, 1214095416, 0.83859164, 0.16389567, -0.4894248, 0.17425752, 8.662323951721191, 1.0803636312484741, 4.7501444816589355, -0.044117871671915054, -1.9345782995224, -0.4238133132457733, 
38, 1214112083, 0.83857214, 0.16367619, -0.48960194, 0.17406002, 8.598831176757812, 1.0488166809082031, 4.784304141998291, -0.8806542754173279, -1.4848066568374634, 0.37352922558784485, 
39, 1214128750, 0.83866435, 0.16330625, -0.48966697, 0.17377967, 8.557714462280273, 0.9749032855033875, 4.810951232910156, -0.9758821725845337, -0.2665257453918457, 0.7129166722297668, 
40, 1214145417, 0.83869123, 0.16320542, -0.48966038, 0.17376304, 8.55289363861084, 0.8991589546203613, 4.877138614654541, 0.05428612232208252, -0.3124557435512543, 0.4805454909801483, 
41, 1214162084, 0.83860743, 0.1633749, -0.4897509, 0.17375404, 8.605642318725586, 0.9393678903579712, 4.930182933807373, 2.1848530769348145, -1.5386574268341064, 0.10473033040761948, 
42, 1214178751, 0.83844095, 0.16373995, -0.4898778, 0.17385586, 8.680925369262695, 1.049851655960083, 4.879616737365723, 3.4606661796569824, -2.210247755050659, 0.057020269334316254, 
43, 1214195418, 0.83831793, 0.16407268, -0.48990104, 0.17407024, 8.68103313446045, 1.1167833805084229, 4.864019870758057, 3.5561702251434326, -1.336464524269104, 0.57051020860672, 
44, 1214212085, 0.83824086, 0.16425328, -0.48995104, 0.17412964, 8.634048461914062, 1.138903021812439, 4.892715930938721, 3.0310325622558594, -1.221789836883545, 0.702646017074585, 
45, 1214228752, 0.83815634, 0.16451053, -0.48997116, 0.17423683, 8.639815330505371, 1.1091963052749634, 4.819618225097656, 3.317561626434326, -1.174271821975708, 0.5398388504981995, 
46, 1214245419, 0.8380381, 0.16488276, -0.48998964, 0.17440204, 8.58719539642334, 1.0838265419006348, 4.87276029586792, 3.7504680156707764, -1.407161831855774, 0.3015127182006836, 
47, 1214262086, 0.8379107, 0.16531672, -0.49002692, 0.17449886, 8.555543899536133, 1.083855152130127, 4.890763759613037, 4.536008834838867, -1.6337635517120361, 0.10205379873514175, 
48, 1214278753, 0.83778507, 0.16585034, -0.48997912, 0.17473018, 8.598623275756836, 1.0857956409454346, 4.868520259857178, 5.221264362335205, -1.1800988912582397, 0.22030764818191528, 
49, 1214295420, 0.8376413, 0.16664602, -0.48973766, 0.17533763, 8.654973983764648, 1.1964181661605835, 4.889476776123047, 8.862189292907715, 0.04999599978327751, 1.6373178958892822, 
50, 1214312087, 0.8378826, 0.16756539, -0.48852324, 0.17669201, 8.870736122131348, 1.403941035270691, 4.882894515991211, 12.069085121154785, 7.557443141937256, 3.5798768997192383, 
51, 1214328754, 0.83885574, 0.16760795, -0.48645556, 0.17773466, 8.714210510253906, 1.3673964738845825, 4.653634548187256, 6.5838541984558105, 15.70883560180664, 3.1556544303894043, 
52, 1214345421, 0.83946204, 0.16717078, -0.48542878, 0.17809084, 8.30113410949707, 1.0406204462051392, 4.903799533843994, 0.3387024402618408, 8.281126022338867, 2.3361477851867676, 
53, 1214362088, 0.83920735, 0.16727903, -0.4858904, 0.17793143, 8.525007247924805, 0.841437041759491, 5.06406307220459, 1.0607051849365234, -4.459222793579102, 0.3634890913963318, 
54, 1214378755, 0.8389749, 0.16781653, -0.48622102, 0.17761765, 8.734719276428223, 0.8147241473197937, 5.068953037261963, 2.967487335205078, -4.38930606842041, -2.297222375869751, 
55, 1214395422, 0.8390019, 0.16847755, -0.48603138, 0.17738342, 8.624939918518066, 0.8356415033340454, 4.923383712768555, 4.161820888519287, -0.6124573349952698, -3.295618772506714, 
56, 1214412089, 0.83908707, 0.16910961, -0.48566553, 0.17738113, 8.551963806152344, 0.8923211693763733, 4.87014102935791, 4.27116060256958, 0.8179416060447693, -2.532564640045166, 
57, 1214428756, 0.839157, 0.16953206, -0.48540014, 0.17737344, 8.56820011138916, 0.9661059379577637, 4.893402576446533, 3.973310708999634, 0.5691012740135193, -1.2098990678787231, 
58, 1214445423, 0.839225, 0.16968653, -0.48527074, 0.17725798, 8.591096878051758, 0.9545465707778931, 4.856023788452148, 2.8653054237365723, 0.10101648420095444, -0.27949216961860657, 
59, 1214462090, 0.83915037, 0.16990933, -0.4852958, 0.17732912, 8.593207359313965, 0.9482964873313904, 4.924233436584473, 2.6426351070404053, -1.2821204662322998, 0.24143171310424805, 
60, 1214478757, 0.8391203, 0.17009315, -0.48522425, 0.17749076, 8.681441307067871, 0.9462021589279175, 4.931040287017822, 2.5455310344696045, -0.45837128162384033, 0.5725847482681274, 
61, 1214495424, 0.83924156, 0.17015786, -0.48494068, 0.17763016, 8.669612884521484, 0.9735631346702576, 4.909709453582764, 2.41762113571167, 1.4631638526916504, 0.6815667748451233, 
62, 1214512091, 0.8393797, 0.17015436, -0.4847025, 0.17763104, 8.64062786102295, 0.9954882264137268, 4.958638668060303, 2.09859561920166, 1.261252522468567, 0.45479828119277954, 
63, 1214528758, 0.83949864, 0.17002138, -0.4846327, 0.1773865, 8.609590530395508, 1.045936942100525, 4.962080478668213, 0.40192729234695435, 0.09972304105758667, -0.29610198736190796, 
64, 1214545425, 0.8395295, 0.1701411, -0.48461398, 0.17717704, 8.594403266906738, 1.0952682495117188, 4.92662239074707, 1.6979427337646484, -0.8028364777565002, -0.948227047920227, 
65, 1214562092, 0.839562, 0.17032245, -0.48454314, 0.177043, 8.583051681518555, 1.1079421043395996, 4.985135078430176, 1.9205811023712158, -0.5427011251449585, -1.0197761058807373, 
66, 1214578759, 0.83963996, 0.17030546, -0.4845109, 0.17677756, 8.525053977966309, 1.007462978363037, 5.076868534088135, 0.5037633776664734, -0.4998894929885864, -0.9815235137939453, 
67, 1214595426, 0.8397823, 0.17032048, -0.4843658, 0.17648374, 8.504714012145996, 0.9821324944496155, 4.950811862945557, 0.9209814667701721, 0.30646878480911255, -1.330829381942749, 
68, 1214612093, 0.8398114, 0.1704638, -0.4843269, 0.17631428, 8.498730659484863, 0.9442291855812073, 4.87756872177124, 1.6028939485549927, -0.7657620906829834, -1.0511516332626343, 
69, 1214628760, 0.83967316, 0.17059366, -0.48456267, 0.17619833, 8.511659622192383, 0.9582118391990662, 4.996128559112549, 1.589485764503479, -2.828211784362793, -0.17955142259597778, 
70, 1214645427, 0.83954185, 0.17072758, -0.48475397, 0.17616886, 8.562352180480957, 0.9671669006347656, 5.00146484375, 2.0402562618255615, -2.4523072242736816, 0.27871736884117126, 
71, 1214662094, 0.8394916, 0.17089108, -0.4847414, 0.17628442, 8.644880294799805, 1.0278103351593018, 4.985124588012695, 2.9416956901550293, -0.8700442314147949, 0.7141846418380737, 
72, 1214678761, 0.839514, 0.17097263, -0.4845755, 0.17655332, 8.682708740234375, 1.0591984987258911, 4.976169586181641, 2.906003952026367, 0.507746160030365, 1.5021336078643799, 
73, 1214695428, 0.8395641, 0.17086479, -0.48442274, 0.1768391, 8.6622314453125, 1.0963854789733887, 4.9310407638549805, 1.606095552444458, 0.7430884838104248, 2.09253191947937, 
74, 1214712095, 0.83960307, 0.17070729, -0.48430336, 0.17713302, 8.614086151123047, 1.0748411417007446, 4.899561882019043, 1.4459776878356934, 0.6011684536933899, 2.428083896636963, 
75, 1214728762, 0.8395248, 0.17076653, -0.48430195, 0.17745097, 8.577117919921875, 1.0746996402740479, 4.983872890472412, 3.0854852199554443, -0.6621587872505188, 2.295346260070801, 
76, 1214745429, 0.8394701, 0.17095484, -0.48419982, 0.17780614, 8.515890121459961, 1.1076487302780151, 4.975564002990723, 3.9054372310638428, -0.14365525543689728, 1.8562932014465332, 
77, 1214762096, 0.8394135, 0.17117096, -0.48410618, 0.17811956, 8.431814193725586, 1.1171942949295044, 4.958357334136963, 3.89026141166687, -0.29630690813064575, 1.524147629737854, 
78, 1214778763, 0.83930707, 0.17138268, -0.48412788, 0.17835894, 8.458426475524902, 1.1357014179229736, 4.964172840118408, 3.583908796310425, -1.2152138948440552, 1.340837836265564, 
79, 1214795430, 0.839196, 0.1715032, -0.48421258, 0.17853601, 8.535724639892578, 1.1767650842666626, 5.079611778259277, 2.870415210723877, -1.5548508167266846, 1.4214791059494019, 
80, 1214812097, 0.83912086, 0.17157489, -0.4842622, 0.17868595, 8.626815795898438, 1.1543127298355103, 4.974130153656006, 2.234311103820801, -1.258723258972168, 1.208432674407959, 
81, 1214828764, 0.8391191, 0.17157346, -0.48420936, 0.17883785, 8.6437406539917, 1.1056398153305054, 4.932186603546143, 1.8820596933364868, -0.3315628170967102, 1.272464632987976, 
82, 1214845431, 0.8390147, 0.1715771, -0.4843308, 0.17899562, 8.599088668823242, 1.0449706315994263, 4.994655609130859, 2.129209041595459, -1.6399873495101929, 1.7800184488296509, 
83, 1214862098, 0.83884025, 0.17159598, -0.48455128, 0.17919876, 8.545389175415039, 0.9853549599647522, 4.982508182525635, 2.2530856132507324, -2.429896354675293, 2.1465108394622803, 
84, 1214878765, 0.83862, 0.17162026, -0.4848287, 0.17945492, 8.484243392944336, 0.9209794998168945, 4.9839887619018555, 2.2465155124664307, -2.8912577629089355, 2.4400579929351807, 
85, 1214895432, 0.83838147, 0.17163278, -0.48512733, 0.17975025, 8.500246047973633, 0.952365517616272, 5.041196346282959, 2.5251944065093994, -3.0010271072387695, 2.8545992374420166, 
86, 1214912099, 0.83814585, 0.17163108, -0.485387, 0.18014959, 8.553772926330566, 1.013343095779419, 5.088626384735107, 2.6599557399749756, -2.6675946712493896, 3.3453259468078613, 
87, 1214928766, 0.83798206, 0.1715118, -0.48553994, 0.18061256, 8.61389446258545, 1.07161545753479, 5.072338104248047, 2.1478044986724854, -1.6261568069458008, 3.8327231407165527, 
88, 1214945433, 0.8378672, 0.1712903, -0.4856612, 0.18102966, 8.628507614135742, 1.079940676689148, 5.044915676116943, 2.0217771530151367, -1.1433318853378296, 4.1515631675720215, 
89, 1214962100, 0.8377517, 0.17112237, -0.48576698, 0.18143816, 8.591096878051758, 1.1024645566940308, 5.0271477699279785, 2.0781121253967285, -1.1780754327774048, 3.7763876914978027, 
90, 1214978767, 0.83761346, 0.17110686, -0.48586473, 0.18182866, 8.521344184875488, 1.087161898612976, 4.9949750900268555, 2.4950098991394043, -1.4895384311676025, 2.9536049365997314, 
91, 1214995434, 0.83745635, 0.171198, -0.48601177, 0.18207408, 8.4803466796875, 1.06967294216156, 4.988382816314697, 3.023181915283203, -2.099095106124878, 2.081812858581543, 
92, 1215012101, 0.83728766, 0.1713055, -0.48619595, 0.18225676, 8.506402015686035, 1.0732077360153198, 5.01458215713501, 2.662094831466675, -2.488459825515747, 1.6131136417388916, 
93, 1215028768, 0.83711696, 0.1714043, -0.48640606, 0.18238708, 8.547263145446777, 1.0725548267364502, 5.00344181060791, 2.2872910499572754, -2.726747512817383, 1.3137010335922241, 
94, 1215045435, 0.83696944, 0.17144409, -0.4866164, 0.18246575, 8.58143138885498, 1.0799107551574707, 5.040153980255127, 2.0069596767425537, -2.619762659072876, 1.3255723714828491, 
95, 1215062102, 0.83687127, 0.17146257, -0.48675025, 0.18254215, 8.581518173217773, 1.0885199308395386, 4.977848529815674, 2.039757013320923, -1.9904718399047852, 1.3000239133834839, 
96, 1215078769, 0.8368008, 0.17159595, -0.48680073, 0.1826044, 8.543999671936035, 1.0869414806365967, 4.959342956542969, 2.52748703956604, -1.616616129875183, 0.5986585021018982, 
97, 1215095436, 0.83670765, 0.17185897, -0.4868515, 0.1826485, 8.532382011413574, 1.110661268234253, 4.921243667602539, 3.246960163116455, -1.8886739015579224, 0.09830153733491898, 
98, 1215112103, 0.8365931, 0.17216389, -0.4869248, 0.18269138, 8.532709121704102, 1.0910720825195312, 4.919098377227783, 3.4009313583374023, -2.1631526947021484, -0.03264979273080826, 
99, 1215128770, 0.83645713, 0.17223431, -0.4871871, 0.18254717, 8.520501136779785, 1.08797287940979, 4.9953203201293945, 1.5347129106521606, -3.2197020053863525, 0.09973584115505219, 
100, 1215145437, 0.8362308, 0.17243655, -0.4875253, 0.18249017, 8.554011344909668, 1.1521453857421875, 4.9280571937561035, 2.453709840774536, -4.054753303527832, 0.28864237666130066, 
101, 1215162104, 0.836082, 0.17254005, -0.48772576, 0.18253912, 8.651366233825684, 1.0945314168930054, 4.994620323181152, 2.2185592651367188, -2.7771401405334473, 0.921468198299408, 
102, 1215178771, 0.8360672, 0.17236657, -0.48784754, 0.1824451, 8.612778663635254, 0.9902278184890747, 5.022543907165527, -0.04603242501616478, -1.7268273830413818, 0.6960378885269165, 
103, 1215195438, 0.83605987, 0.17248471, -0.48783636, 0.18239734, 8.525799751281738, 1.0468807220458984, 4.957280158996582, 2.124586343765259, -1.2436437606811523, -0.09341591596603394, 
104, 1215212105, 0.8358963, 0.1729281, -0.48795643, 0.18240604, 8.468660354614258, 1.0750651359558105, 4.917670249938965, 4.305764675140381, -2.8645825386047363, -0.4573596715927124, 
105, 1215228772, 0.83558714, 0.17345056, -0.4882916, 0.18242915, 8.489128112792969, 1.0921591520309448, 5.127450466156006, 4.671666622161865, -4.690639972686768, -0.2221965789794922, 
106, 1215245439, 0.8353883, 0.17384781, -0.48849025, 0.18243048, 8.518284797668457, 1.071366310119629, 5.009711742401123, 4.03028678894043, -3.4196865558624268, -0.16890938580036163, 
107, 1215262106, 0.835299, 0.1741988, -0.48848757, 0.18251097, 8.614510536193848, 1.0667970180511475, 4.963670253753662, 4.083400726318359, -1.7703627347946167, 0.026169776916503906, 
108, 1215278773, 0.83519036, 0.17454153, -0.48849365, 0.18266451, 8.672131538391113, 1.0596259832382202, 5.043679714202881, 4.033641338348389, -1.835373878479004, 0.36887407302856445, 
109, 1215295440, 0.8350544, 0.17471337, -0.48864356, 0.18272091, 8.673197746276855, 1.0524705648422241, 5.029918193817139, 2.6452672481536865, -2.6637661457061768, 0.623131513595581, 
110, 1215312107, 0.8348941, 0.17492989, -0.48882368, 0.18276456, 8.608154296875, 1.0061413049697876, 4.979579448699951, 2.8629488945007324, -3.0053751468658447, 0.4686099588871002, 
111, 1215328774, 0.83473635, 0.17530823, -0.48895308, 0.1827775, 8.513904571533203, 0.9674254655838013, 4.973991394042969, 4.1676926612854, -2.90810489654541, -0.10620306432247162, 
112, 1215345441, 0.8346137, 0.17576277, -0.48898178, 0.18282352, 8.423442840576172, 0.9266335368156433, 4.917994499206543, 4.5519537925720215, -2.320081949234009, -0.4786566197872162, 
113, 1215362108, 0.8345038, 0.17616548, -0.48901132, 0.1828584, 8.439779281616211, 0.9212214946746826, 4.909632205963135, 4.43286657333374, -2.2187576293945312, -0.275829553604126, 
114, 1215378775, 0.8343504, 0.17665029, -0.48904762, 0.18299347, 8.533441543579102, 0.9585974216461182, 4.876980781555176, 5.042449951171875, -2.4359023571014404, -0.054804783314466476, 
115, 1215395442, 0.8341368, 0.1771142, -0.48918906, 0.18314104, 8.609964370727539, 0.9848998188972473, 5.059848785400391, 4.914865970611572, -3.2118966579437256, 0.2832188308238983, 
116, 1215412109, 0.83390915, 0.17766131, -0.4893193, 0.18329982, 8.619843482971191, 1.013382911682129, 4.994320869445801, 5.689523220062256, -3.277798652648926, 0.17869344353675842, 
117, 1215428776, 0.8337303, 0.17832759, -0.48929456, 0.18353269, 8.62447738647461, 1.0356791019439697, 5.0309739112854, 6.686081409454346, -2.3118348121643066, -0.09517040848731995, 
118, 1215445443, 0.8335173, 0.17912409, -0.48928207, 0.18375696, 8.57629680633545, 1.097253680229187, 5.126064300537109, 7.540188312530518, -2.67812180519104, -0.4748530983924866, 
119, 1215462110, 0.83333904, 0.17999771, -0.48917153, 0.18400615, 8.57522964477539, 1.1434061527252197, 5.036499500274658, 8.03806209564209, -2.108649492263794, -0.8167188167572021, 
120, 1215478777, 0.8331975, 0.18083337, -0.48901922, 0.18423265, 8.527482032775879, 1.2051897048950195, 5.07729434967041, 7.595357418060303, -1.7685508728027344, -0.9966992139816284, 
121, 1215495444, 0.83311176, 0.18151586, -0.4888573, 0.18437879, 8.508219718933105, 1.2773092985153198, 5.090137004852295, 6.8659348487854, -1.392492413520813, -0.7762634754180908, 
122, 1215512111, 0.8330561, 0.18212867, -0.4886415, 0.1845983, 8.495826721191406, 1.2947849035263062, 5.071563720703125, 6.325786590576172, -0.8871855735778809, -0.43421217799186707, 
123, 1215528778, 0.8330498, 0.18266198, -0.48837444, 0.18480533, 8.502327919006348, 1.248223066329956, 5.0450286865234375, 6.0163984298706055, -0.3440234363079071, -0.25982165336608887, 
124, 1215545445, 0.8330417, 0.18319628, -0.48811468, 0.18499875, 8.514059066772461, 1.2249531745910645, 5.062298774719238, 6.096884727478027, -0.41520097851753235, -0.258809894323349, 
125, 1215562112, 0.8330323, 0.18379939, -0.48782563, 0.18520564, 8.501440048217773, 1.220420002937317, 5.07058572769165, 6.416378974914551, -0.3710448145866394, -0.5262449979782104, 
126, 1215578779, 0.8330125, 0.184458, -0.48752692, 0.18542646, 8.491654396057129, 1.2132527828216553, 5.052395343780518, 6.773920059204102, -0.4333477318286896, -0.6477260589599609, 
127, 1215595446, 0.8329748, 0.18512106, -0.48725274, 0.18565594, 8.466976165771484, 1.213845133781433, 5.079474449157715, 6.79807186126709, -0.6554482579231262, -0.5693126916885376, 
128, 1215612113, 0.8329403, 0.18573038, -0.48697904, 0.18591946, 8.492474555969238, 1.2326936721801758, 5.064532279968262, 6.777223110198975, -0.535683274269104, -0.10609421133995056, 
129, 1215628780, 0.8329035, 0.18631318, -0.4866932, 0.18624939, 8.50041389465332, 1.269228458404541, 5.056176662445068, 6.824722766876221, -0.3863484263420105, 0.33027583360671997, 
130, 1215645447, 0.8328624, 0.18686704, -0.4864157, 0.18660311, 8.517940521240234, 1.3091903924942017, 5.021082401275635, 6.829280853271484, -0.389678031206131, 0.6321086883544922, 
131, 1215662114, 0.83280486, 0.18737745, -0.48618373, 0.18695301, 8.497894287109375, 1.3276150226593018, 5.001582145690918, 6.454055309295654, -0.6866061687469482, 0.80019211769104, 
132, 1215678781, 0.8327284, 0.1878451, -0.48602667, 0.18723206, 8.462105751037598, 1.3223657608032227, 5.018223762512207, 5.80892276763916, -1.2484272718429565, 0.6178681254386902, 
133, 1215695448, 0.8326543, 0.18818645, -0.48595673, 0.187401, 8.446784973144531, 1.280824065208435, 5.030081272125244, 4.685997486114502, -1.7273011207580566, 0.5659382343292236, 
134, 1215712115, 0.8324843, 0.18875532, -0.48593557, 0.18763815, 8.39462661743164, 1.3421053886413574, 4.96475887298584, 6.261743068695068, -2.5574350357055664, 0.3763274848461151, 
135, 1215728782, 0.8322808, 0.18938902, -0.48589984, 0.18799442, 8.480476379394531, 1.3194236755371094, 4.909693241119385, 7.197362422943115, -2.519374370574951, 0.9254766702651978, 
136, 1215745449, 0.83228314, 0.18955332, -0.48578414, 0.18811803, 8.475040435791016, 1.2605270147323608, 4.9843268394470215, 3.486400842666626, -1.097920536994934, 0.7521681785583496, 
137, 1215762116, 0.832314, 0.18970124, -0.48565197, 0.18817289, 8.443170547485352, 1.2651113271713257, 4.925965309143066, 3.4459073543548584, -0.9509803652763367, 0.5083993077278137, 
138, 1215778783, 0.83219856, 0.19005226, -0.4856205, 0.1884108, 8.513341903686523, 1.362989068031311, 4.92365026473999, 5.04821252822876, -2.092730760574341, 1.0766940116882324, 
139, 1215795450, 0.8319052, 0.19044228, -0.4858543, 0.18870926, 8.475900650024414, 1.3536217212677002, 5.138726234436035, 5.426685333251953, -4.179814338684082, 1.9087547063827515, 
140, 1215812117, 0.83169323, 0.19073418, -0.48600128, 0.18897057, 8.486004829406738, 1.3078739643096924, 5.070927619934082, 5.016171455383301, -3.3197457790374756, 1.9451570510864258, 
141, 1215828784, 0.83163756, 0.19104621, -0.48583907, 0.18931685, 8.499221801757812, 1.30596923828125, 4.985201358795166, 5.478991985321045, -0.9888871908187866, 1.6868011951446533, 
142, 1215845451, 0.83158696, 0.19131668, -0.48567283, 0.1896925, 8.549080848693848, 1.3534672260284424, 4.960106372833252, 5.216078281402588, -0.895298421382904, 1.9200562238693237, 
143, 1215862118, 0.8315145, 0.19136845, -0.48566017, 0.18998991, 8.555329322814941, 1.3845690488815308, 4.97062873840332, 3.5222842693328857, -1.6808398962020874, 2.4319260120391846, 
144, 1215878785, 0.8314361, 0.19128783, -0.48573434, 0.19022445, 8.50979995727539, 1.36595618724823, 4.936868190765381, 2.457819938659668, -2.121851921081543, 2.6457021236419678, 
145, 1215895452, 0.8313367, 0.19128689, -0.48579642, 0.19050133, 8.414952278137207, 1.307724118232727, 4.943088054656982, 3.0831801891326904, -2.1902382373809814, 2.629502534866333, 
146, 1215912119, 0.831239, 0.19131787, -0.4858455, 0.1907708, 8.374933242797852, 1.2882680892944336, 4.982883930206299, 3.2141506671905518, -2.18662691116333, 2.440199136734009, 
147, 1215928786, 0.8311818, 0.19128639, -0.48587382, 0.19097945, 8.409297943115234, 1.2986923456192017, 4.9709038734436035, 2.872579336166382, -1.9159514904022217, 2.34739089012146, 
148, 1215945453, 0.83113986, 0.19124228, -0.4858549, 0.19125374, 8.524237632751465, 1.30892813205719, 4.963529109954834, 2.764878511428833, -1.5593589544296265, 2.529484987258911, 
149, 1215962120, 0.83116144, 0.19105425, -0.48577663, 0.19154653, 8.613146781921387, 1.277295470237732, 4.971075057983398, 2.1754019260406494, -0.7828715443611145, 3.0475404262542725, 
150, 1215978787, 0.8311565, 0.19079445, -0.4857953, 0.19177964, 8.560794830322266, 1.2720959186553955, 4.965291976928711, 1.2946707010269165, -1.452451229095459, 3.0145504474639893, 
151, 1215995454, 0.8311721, 0.1905363, -0.48578066, 0.1920059, 8.554088592529297, 1.2530676126480103, 4.934283256530762, 1.4058940410614014, -1.2032783031463623, 2.952542781829834, 
152, 1216012121, 0.83110994, 0.19031455, -0.48593444, 0.19210586, 8.506467819213867, 1.2545028924942017, 5.0490217208862305, 1.5550369024276733, -2.5815234184265137, 2.679460048675537, 
153, 1216028788, 0.831018, 0.19022422, -0.48603523, 0.1923372, 8.512991905212402, 1.2746695280075073, 5.013080596923828, 2.461182117462158, -2.459562063217163, 2.7559711933135986, 
154, 1216045455, 0.83098316, 0.19014178, -0.48602676, 0.19259132, 8.529401779174805, 1.2741001844406128, 4.969018459320068, 2.544276237487793, -1.6601577997207642, 2.5862300395965576, 
155, 1216062122, 0.8309802, 0.19002493, -0.48599768, 0.19279267, 8.52428913116455, 1.2886418104171753, 5.014726638793945, 2.289391040802002, -1.4551407098770142, 2.3992056846618652, 
156, 1216078789, 0.830993, 0.18984412, -0.48598453, 0.19294816, 8.542901039123535, 1.284472942352295, 5.007750988006592, 1.725783348083496, -1.4880657196044922, 2.3511557579040527, 
157, 1216095456, 0.83104175, 0.1895785, -0.48595604, 0.19307087, 8.545584678649902, 1.2593249082565308, 5.030835151672363, 1.1657363176345825, -1.2180439233779907, 2.4119222164154053, 
158, 1216112123, 0.83116263, 0.18925394, -0.48582447, 0.19320028, 8.59921932220459, 1.2406607866287231, 5.0071702003479, 0.7575212717056274, -0.3390929400920868, 2.3461103439331055, 
159, 1216128790, 0.83135843, 0.18885121, -0.48561478, 0.19327852, 8.577165603637695, 1.254893183708191, 5.005760192871094, 0.4293457269668579, 0.4210728108882904, 2.258873701095581, 
160, 1216145457, 0.83159286, 0.18844026, -0.48533967, 0.19336288, 8.560029983520508, 1.2332011461257935, 5.019298076629639, 0.2799852192401886, 0.9038081169128418, 2.1038401126861572, 
161, 1216162124, 0.8318129, 0.1880125, -0.48509192, 0.1934545, 8.552937507629395, 1.2371019124984741, 5.049736499786377, 0.15380428731441498, 0.7107524871826172, 2.2371158599853516, 
162, 1216178791, 0.8320021, 0.18760313, -0.484888, 0.19354875, 8.564541816711426, 1.2390387058258057, 5.030599117279053, 0.3698730170726776, 0.33797240257263184, 2.351156234741211, 
163, 1216195458, 0.83216685, 0.18726927, -0.48467404, 0.19369999, 8.561134338378906, 1.274607539176941, 5.04024076461792, 0.8915395736694336, 0.25054341554641724, 2.3706088066101074, 
164, 1216212125, 0.8323575, 0.18696289, -0.48440272, 0.19385579, 8.564471244812012, 1.1992979049682617, 5.010049819946289, 1.3380203247070312, 0.6537128686904907, 2.3215606212615967, 
165, 1216228792, 0.83254373, 0.18674347, -0.48408523, 0.19406046, 8.549489974975586, 1.1842715740203857, 5.003754138946533, 1.9013073444366455, 0.8147398829460144, 2.1719439029693604, 
166, 1216245459, 0.8327264, 0.18648268, -0.4838024, 0.1942328, 8.545833587646484, 1.135581612586975, 5.009176731109619, 1.6309654712677002, 0.6230416893959045, 2.2341573238372803, 
167, 1216262126, 0.83280885, 0.18631005, -0.48365337, 0.19441558, 8.493276596069336, 1.1448726654052734, 5.0629191398620605, 2.297856330871582, -0.566412091255188, 2.395376682281494, 
168, 1216278793, 0.8327437, 0.18649356, -0.4835065, 0.19488388, 8.551887512207031, 1.156982421875, 4.851856231689453, 5.2943878173828125, -1.2207973003387451, 2.9492125511169434, 
169, 1216295460, 0.8328512, 0.18627422, -0.4832729, 0.19521286, 8.516767501831055, 1.1133908033370972, 5.010709762573242, 2.4297876358032227, 0.2111511379480362, 3.153231143951416, 
170, 1216312127, 0.833017, 0.18601097, -0.4830011, 0.19542894, 8.458394050598145, 1.0417252779006958, 4.946365833282471, 1.8704185485839844, 0.5394418239593506, 2.5687360763549805, 
171, 1216328794, 0.8331486, 0.18599184, -0.48265988, 0.19572929, 8.492928504943848, 1.1090894937515259, 4.8755784034729, 3.498745918273926, 0.569344699382782, 2.0924293994903564, 
172, 1216345461, 0.83313876, 0.18602803, -0.48253444, 0.1960459, 8.510345458984375, 1.1799763441085815, 4.971084117889404, 4.223585605621338, -1.129052758216858, 2.710963487625122, 
173, 1216362128, 0.8329926, 0.18613711, -0.4825725, 0.19646941, 8.495006561279297, 1.169152855873108, 5.112911224365234, 4.477176666259766, -2.5520684719085693, 3.2241008281707764, 
174, 1216378795, 0.8329884, 0.18612371, -0.48240656, 0.19690761, 8.517151832580566, 1.129044532775879, 5.055568218231201, 3.948927640914917, -0.7392017841339111, 3.2787587642669678, 
175, 1216395462, 0.8330448, 0.18614355, -0.48210746, 0.19738153, 8.575393676757812, 1.071906566619873, 5.023397922515869, 4.4687113761901855, 0.2288750857114792, 3.1757569313049316, 
176, 1216412129, 0.833067, 0.18620281, -0.4818604, 0.1978356, 8.606095314025879, 1.1222851276397705, 5.063378810882568, 4.583200931549072, -0.27114245295524597, 3.030456304550171, 
177, 1216428796, 0.83307654, 0.18614964, -0.48169768, 0.19824015, 8.565817832946777, 1.1469842195510864, 5.044103622436523, 3.6448793411254883, -0.7193775773048401, 3.224818468093872, 
178, 1216445463, 0.83310205, 0.1860295, -0.4815336, 0.19864409, 8.546276092529297, 1.142836093902588, 5.029508590698242, 3.2145864963531494, -0.5798652172088623, 3.406118154525757, 
179, 1216462130, 0.8331363, 0.1859282, -0.4813667, 0.19900021, 8.514681816101074, 1.1111918687820435, 5.064538955688477, 3.245680093765259, -0.6170036792755127, 3.1009044647216797, 
180, 1216478797, 0.83318985, 0.18587199, -0.48117858, 0.19928241, 8.474458694458008, 1.1263209581375122, 5.085173606872559, 3.3376550674438477, -0.5883941650390625, 2.512349843978882, 
181, 1216495464, 0.83323866, 0.18585743, -0.48099744, 0.19952969, 8.45854663848877, 1.147026777267456, 5.061664581298828, 3.404273509979248, -0.7630343437194824, 2.161327838897705, 
182, 1216512131, 0.8333072, 0.18576908, -0.48080686, 0.19978447, 8.476359367370605, 1.1272740364074707, 5.083158016204834, 2.948662519454956, -0.5500008463859558, 2.3857595920562744, 
183, 1216528798, 0.83335096, 0.18561336, -0.4807069, 0.1999869, 8.455964088439941, 1.1504981517791748, 5.11762809753418, 2.296422004699707, -1.136006474494934, 2.45747447013855, 
184, 1216545465, 0.8334263, 0.18540831, -0.48058024, 0.20016803, 8.507828712463379, 1.115241289138794, 5.054501056671143, 2.027641773223877, -0.8383484482765198, 2.468730926513672, 
185, 1216562132, 0.83346826, 0.18518588, -0.4805469, 0.20027877, 8.486263275146484, 1.0952699184417725, 5.145737171173096, 1.6754932403564453, -1.5478073358535767, 2.321688652038574, 
186, 1216578799, 0.83350176, 0.18502462, -0.48051164, 0.20037346, 8.492652893066406, 1.0746716260910034, 5.145537853240967, 2.107208251953125, -1.6662276983261108, 2.098012924194336, 
187, 1216595466, 0.8335364, 0.18489738, -0.48044762, 0.20050016, 8.482083320617676, 1.0488030910491943, 5.098642826080322, 2.3204078674316406, -1.5323500633239746, 2.059081554412842, 
188, 1216612133, 0.83356434, 0.18478468, -0.48039585, 0.2006112, 8.488431930541992, 1.0593732595443726, 5.109231472015381, 2.3115077018737793, -1.67747163772583, 1.9247686862945557, 
189, 1216628800, 0.8335661, 0.18467319, -0.48040757, 0.20067906, 8.47236156463623, 1.069106936454773, 5.095934867858887, 2.28041410446167, -2.173513174057007, 1.8705214262008667, 
190, 1216645467, 0.83353496, 0.18458977, -0.48046014, 0.20075913, 8.490423202514648, 1.0530016422271729, 5.056061267852783, 2.282975435256958, -2.572699785232544, 1.8426676988601685, 
191, 1216662134, 0.8334802, 0.18455602, -0.4805353, 0.20083804, 8.487603187561035, 1.0382006168365479, 5.0751190185546875, 2.665168285369873, -2.8426320552825928, 1.7842447757720947, 
192, 1216678801, 0.83338666, 0.18458307, -0.48065814, 0.20090723, 8.501744270324707, 1.0408923625946045, 5.10303258895874, 3.036168098449707, -3.3398516178131104, 1.6737260818481445, 
193, 1216695468, 0.8332827, 0.1846571, -0.48077098, 0.20100026, 8.493623733520508, 1.0262261629104614, 5.101053237915039, 3.3002727031707764, -3.3731093406677246, 1.5920597314834595, 
194, 1216712135, 0.8331886, 0.18475726, -0.48085672, 0.20109323, 8.494245529174805, 1.0286118984222412, 5.067744731903076, 3.560204029083252, -3.218754529953003, 1.4979461431503296, 
195, 1216728802, 0.8330936, 0.18488632, -0.48093835, 0.20117363, 8.498566627502441, 1.051653265953064, 5.0423431396484375, 3.8869709968566895, -3.2346858978271484, 1.42507803440094, 
196, 1216745469, 0.83299035, 0.1850433, -0.4809965, 0.20131694, 8.50460147857666, 1.0872575044631958, 5.055593490600586, 4.090707302093506, -3.1178150177001953, 1.559992790222168, 
197, 1216762136, 0.83288836, 0.18520051, -0.48105568, 0.201453, 8.503471374511719, 1.0919138193130493, 5.047415733337402, 4.10397481918335, -3.1307365894317627, 1.5355199575424194, 
198, 1216778803, 0.8327797, 0.18535155, -0.48112693, 0.2015927, 8.517715454101562, 1.0830409526824951, 5.056896209716797, 4.005378723144531, -3.221457004547119, 1.565563678741455, 
199, 1216795470, 0.8327298, 0.18530466, -0.4812577, 0.20153086, 8.523398399353027, 1.0374048948287964, 5.074710369110107, 2.796522855758667, -3.259478807449341, 1.4576444625854492, 
200, 1216812137, 0.8326454, 0.18534347, -0.48140004, 0.20150386, 8.46670913696289, 1.11283278465271, 5.119113445281982, 2.8335206508636475, -3.5975537300109863, 1.11130952835083, 
201, 1216828804, 0.8324714, 0.18572555, -0.48144856, 0.20175466, 8.542542457580566, 1.085069179534912, 4.911257266998291, 5.716383934020996, -3.5214970111846924, 1.4377180337905884, 
202, 1216845471, 0.83247, 0.18565953, -0.48145983, 0.20179397, 8.48392391204834, 1.0678925514221191, 5.062666893005371, 2.340603828430176, -2.374457359313965, 1.4537256956100464, 
203, 1216862138, 0.8325005, 0.18542443, -0.48154768, 0.2016743, 8.458169937133789, 1.0084236860275269, 5.030346393585205, 0.9131569266319275, -2.6548142433166504, 1.2671372890472412, 
204, 1216878805, 0.83250564, 0.18541962, -0.4815493, 0.20165418, 8.4423828125, 1.1113519668579102, 4.958017826080322, 2.613442897796631, -2.456738233566284, 0.9394481182098389, 
205, 1216895472, 0.8323507, 0.18555112, -0.4817348, 0.20172983, 8.468903541564941, 1.0998048782348633, 4.992424011230469, 3.7074129581451416, -4.103327751159668, 1.5194478034973145, 
206, 1216912139, 0.8320951, 0.18566167, -0.48210868, 0.2017893, 8.489145278930664, 1.0804444551467896, 5.1400957107543945, 3.5508556365966797, -5.489641189575195, 1.9546974897384644, 
207, 1216928806, 0.8319272, 0.18574871, -0.4823484, 0.20182832, 8.527787208557129, 0.9941906332969666, 5.098443508148193, 3.376035690307617, -4.442042827606201, 1.5944931507110596, 
208, 1216945473, 0.8318249, 0.18593486, -0.4824415, 0.20185563, 8.561239242553711, 0.9654761552810669, 5.078874111175537, 4.0894904136657715, -3.5375559329986572, 0.9471833109855652, 
209, 1216962140, 0.8317048, 0.18620187, -0.4825322, 0.20188785, 8.609415054321289, 1.031851887702942, 5.091624736785889, 4.38331937789917, -3.7218008041381836, 0.6078278422355652, 
210, 1216978807, 0.8316235, 0.18633364, -0.48262095, 0.20188943, 8.607512474060059, 1.060591697692871, 5.045913219451904, 3.584625482559204, -3.4220938682556152, 0.8840606808662415, 
211, 1216995474, 0.83156586, 0.18637978, -0.4826766, 0.20195106, 8.592835426330566, 1.0708670616149902, 5.032802581787109, 3.316755533218384, -2.9618723392486572, 1.436347484588623, 
212, 1217012141, 0.83150995, 0.18641165, -0.48271558, 0.20205897, 8.540489196777344, 1.0479174852371216, 5.02958869934082, 3.4006757736206055, -2.786834955215454, 1.7169733047485352, 
213, 1217028808, 0.8314435, 0.18645982, -0.48274913, 0.20220746, 8.48039436340332, 1.0425301790237427, 5.011229038238525, 3.3863065242767334, -2.799987316131592, 1.7594776153564453, 
214, 1217045475, 0.8313955, 0.18645637, -0.48280886, 0.20226514, 8.49903678894043, 1.0340101718902588, 5.00507926940918, 3.4176440238952637, -2.849368095397949, 1.7811459302902222, 
215, 1217062142, 0.8313207, 0.1864492, -0.48287198, 0.20242837, 8.513531684875488, 1.0319433212280273, 5.050034999847412, 3.2423243522644043, -2.8907837867736816, 2.1512234210968018, 
216, 1217078809, 0.83123857, 0.18644717, -0.48294947, 0.20258264, 8.580900192260742, 1.0466469526290894, 5.046455383300781, 3.386549711227417, -3.001674175262451, 2.1886565685272217, 
217, 1217095476, 0.8311941, 0.18641724, -0.482948, 0.2027965, 8.609912872314453, 1.051034927368164, 5.01123046875, 3.581129312515259, -2.3035998344421387, 2.5158331394195557, 
218, 1217112143, 0.83111197, 0.18642034, -0.48298097, 0.20305131, 8.592090606689453, 1.0635089874267578, 5.052542686462402, 3.718080997467041, -2.6448891162872314, 2.6341638565063477, 
219, 1217128810, 0.83107066, 0.18637356, -0.48298317, 0.20325838, 8.587657928466797, 1.047912836074829, 5.028481483459473, 3.730656623840332, -2.2710461616516113, 2.675259590148926, 
220, 1217145477, 0.83103585, 0.18635277, -0.48296186, 0.20347005, 8.539186477661133, 1.0361918210983276, 5.0231146812438965, 3.6037068367004395, -2.1889443397521973, 2.40769624710083, 
221, 1217162144, 0.8310253, 0.18628848, -0.48293707, 0.20363119, 8.506056785583496, 1.0633403062820435, 5.019595623016357, 3.116438150405884, -2.101771831512451, 2.1979663372039795, 
222, 1217178811, 0.83104855, 0.18617786, -0.48288345, 0.20376427, 8.534782409667969, 1.0707606077194214, 5.005850315093994, 2.775456666946411, -1.798901915550232, 2.118004083633423, 
223, 1217195478, 0.8310994, 0.18601494, -0.48280573, 0.20389001, 8.552870750427246, 1.0759469270706177, 4.982089996337891, 2.396669864654541, -1.5163549184799194, 2.150775194168091, 
224, 1217212145, 0.83116335, 0.18580346, -0.48275837, 0.20393386, 8.562421798706055, 1.0547994375228882, 5.0066328048706055, 2.125328779220581, -1.641537070274353, 2.0434067249298096, 
225, 1217228812, 0.8311941, 0.1856731, -0.48273537, 0.203982, 8.546748161315918, 1.037977933883667, 5.001805305480957, 2.348287343978882, -2.0346152782440186, 1.7361310720443726, 
226, 1217245479, 0.831263, 0.18553397, -0.4826706, 0.20398071, 8.541933059692383, 1.0132602453231812, 5.019496917724609, 2.3821089267730713, -1.6926791667938232, 1.500327706336975, 
227, 1217262146, 0.83136207, 0.185422, -0.48253345, 0.20400372, 8.528644561767578, 1.013082504272461, 5.0007171630859375, 2.52730131149292, -1.207728624343872, 1.330432653427124, 
228, 1217278813, 0.83147115, 0.18531919, -0.48237538, 0.20402656, 8.52653980255127, 1.015069603919983, 5.001895427703857, 2.8268096446990967, -1.0419565439224243, 1.378885269165039, 
229, 1217295480, 0.83155966, 0.18524624, -0.48221827, 0.2041029, 8.529339790344238, 1.0301376581192017, 5.0156965255737305, 2.9422078132629395, -1.1235203742980957, 1.4769947528839111, 
230, 1217312147, 0.8316368, 0.18518907, -0.48206723, 0.20419715, 8.537093162536621, 1.0396325588226318, 5.027341365814209, 3.1552157402038574, -1.1906511783599854, 1.5802522897720337, 
231, 1217328814, 0.83171797, 0.18514468, -0.48191547, 0.20426525, 8.560133934020996, 1.0539631843566895, 4.999486446380615, 3.394105911254883, -1.1945444345474243, 1.5181418657302856, 
232, 1217345481, 0.8317857, 0.18515724, -0.48176077, 0.20434272, 8.547676086425781, 1.032792091369629, 5.001985549926758, 3.5152668952941895, -1.322403073310852, 1.2610797882080078, 
233, 1217362148, 0.8318676, 0.18502817, -0.4816803, 0.20431621, 8.538697242736816, 0.9819009304046631, 5.024751663208008, 2.1196558475494385, -1.648862361907959, 1.1466675996780396, 
234, 1217378815, 0.8318769, 0.1850632, -0.48166665, 0.2042792, 8.462605476379395, 1.1115220785140991, 5.005849361419678, 3.0653860569000244, -2.5111589431762695, 0.748358428478241, 
235, 1217395482, 0.8318181, 0.1852975, -0.48162007, 0.20441554, 8.555584907531738, 1.0673823356628418, 4.917874336242676, 5.18269157409668, -2.5756325721740723, 1.2818005084991455, 
236, 1217412149, 0.8318468, 0.18519625, -0.48162672, 0.20437546, 8.510899543762207, 1.0081514120101929, 4.9874982833862305, 2.4630837440490723, -2.343940019607544, 1.3131887912750244, 
237, 1217428816, 0.8318452, 0.1851956, -0.48165506, 0.20431502, 8.526219367980957, 1.056712031364441, 5.042636394500732, 2.9322314262390137, -2.7418458461761475, 0.906241238117218, 
238, 1217445483, 0.8318402, 0.1853283, -0.48162737, 0.20428015, 8.56723690032959, 1.0872173309326172, 4.923763751983643, 3.983518362045288, -2.5733275413513184, 0.608032763004303, 
239, 1217462150, 0.8317916, 0.18547423, -0.4816481, 0.20429699, 8.552459716796875, 1.1011022329330444, 5.030502796173096, 4.056257724761963, -2.9641387462615967, 0.897251307964325, 
240, 1217478817, 0.831756, 0.18557778, -0.48168528, 0.20426059, 8.541596412658691, 1.0900949239730835, 5.079788684844971, 3.8133978843688965, -2.9972429275512695, 0.8532998561859131, 
241, 1217495484, 0.83183074, 0.18563117, -0.4815423, 0.20424446, 8.564984321594238, 1.0595839023590088, 5.014778137207031, 3.537946939468384, -1.5296739339828491, 0.6607693433761597, 
242, 1217512151, 0.83193004, 0.18570532, -0.48131397, 0.20431115, 8.592366218566895, 1.0381542444229126, 5.014101982116699, 3.943075180053711, -0.8938639760017395, 0.8820244669914246, 
243, 1217528818, 0.8320512, 0.18571454, -0.4810611, 0.20440474, 8.602551460266113, 1.0487178564071655, 5.055759906768799, 3.60953426361084, -0.561244785785675, 1.1576814651489258, 
244, 1217545485, 0.83219844, 0.18560925, -0.48082063, 0.20446648, 8.57253360748291, 1.0588527917861938, 5.0091471672058105, 3.169008255004883, -0.37953540682792664, 1.530051589012146, 
245, 1217562152, 0.83231336, 0.18557224, -0.48059064, 0.20457342, 8.559554100036621, 1.0558249950408936, 5.0084052085876465, 3.5761609077453613, -0.6037746667861938, 1.537786841392517, 
246, 1217578819, 0.8324387, 0.18556367, -0.4803627, 0.2046063, 8.505064010620117, 1.0900533199310303, 5.028116703033447, 3.8695664405822754, -0.6652194261550903, 1.2187033891677856, 
247, 1217595486, 0.83259493, 0.18557349, -0.48005265, 0.20468974, 8.493692398071289, 1.081758975982666, 5.048873424530029, 3.378058671951294, -0.16285192966461182, 0.8510331511497498, 
248, 1217612153, 0.832823, 0.18548377, -0.479685, 0.20470484, 8.542009353637695, 1.0637286901474, 5.0323381423950195, 3.202458143234253, 0.5359328985214233, 0.9535094499588013, 
249, 1217628820, 0.833043, 0.18532039, -0.47933143, 0.20478614, 8.543011665344238, 1.0620619058609009, 5.1282453536987305, 2.6562676429748535, 0.5752612948417664, 1.4267171621322632, 
250, 1217645487, 0.8332579, 0.18515655, -0.47894758, 0.20495774, 8.598219871520996, 1.0124543905258179, 5.069400310516357, 2.9529013633728027, 0.8381243348121643, 1.8889110088348389, 
251, 1217662154, 0.83346516, 0.18496722, -0.4785593, 0.20519248, 8.56885051727295, 0.9701679348945618, 5.091671466827393, 3.0864970684051514, 0.9621410965919495, 2.3691365718841553, 
252, 1217678821, 0.83359545, 0.18486293, -0.47825104, 0.20547614, 8.520356178283691, 0.980157732963562, 5.133238315582275, 3.7457680702209473, 0.19545051455497742, 2.5903661251068115, 
253, 1217695488, 0.83370876, 0.18479623, -0.47797096, 0.20572752, 8.48210334777832, 0.9965360164642334, 5.143399238586426, 4.050687313079834, -0.09157181531190872, 2.455925226211548, 
254, 1217712155, 0.83380795, 0.18480991, -0.47768095, 0.20598707, 8.4297513961792, 1.0516514778137207, 5.128732204437256, 4.307159900665283, -0.22204291820526123, 2.1027133464813232, 
255, 1217728822, 0.83391285, 0.18482006, -0.47741982, 0.20615828, 8.42243480682373, 1.1300525665283203, 5.086945056915283, 4.169812202453613, -0.4508155286312103, 1.7564421892166138, 
256, 1217745489, 0.8340199, 0.18480147, -0.47720852, 0.20623171, 8.44167423248291, 1.1773021221160889, 5.10673713684082, 3.7321550846099854, -0.7989306449890137, 1.423208236694336, 
257, 1217762156, 0.8341358, 0.18471918, -0.47702324, 0.20626561, 8.457806587219238, 1.171513319015503, 5.134379863739014, 2.810148239135742, -0.9282873868942261, 1.224466323852539, 
258, 1217778823, 0.8342785, 0.18459341, -0.47684354, 0.20621577, 8.48091983795166, 1.1385974884033203, 5.085548400878906, 2.622305154800415, -0.8718499541282654, 1.0691381692886353, 
259, 1217795490, 0.8344124, 0.18451455, -0.47666225, 0.20616432, 8.5040864944458, 1.081851601600647, 5.109428405761719, 2.8167309761047363, -0.9690884947776794, 0.874251127243042, 
260, 1217812157, 0.8345358, 0.18447436, -0.47649503, 0.2060866, 8.491955757141113, 1.0252187252044678, 5.118960380554199, 3.114952325820923, -1.1503239870071411, 0.7245448231697083, 
261, 1217828824, 0.8346321, 0.18451266, -0.4763143, 0.20608036, 8.48586368560791, 1.0019930601119995, 5.119837760925293, 3.5937693119049072, -1.215406060218811, 0.7553440928459167, 
262, 1217845491, 0.83471185, 0.18460913, -0.47607237, 0.20623037, 8.493157386779785, 1.0173388719558716, 5.134387016296387, 4.362061500549316, -0.8258496522903442, 1.3024828433990479, 
263, 1217862158, 0.83479905, 0.18468413, -0.47580838, 0.20641911, 8.482118606567383, 1.0537596940994263, 5.123869895935059, 4.610849380493164, -0.5669947862625122, 1.6798347234725952, 
264, 1217878825, 0.8348848, 0.1847411, -0.4755479, 0.20662181, 8.478132247924805, 1.0868539810180664, 5.1021013259887695, 4.621965408325195, -0.5392177700996399, 1.863938570022583, 
265, 1217895492, 0.83494574, 0.18480755, -0.47532758, 0.20682304, 8.487936973571777, 1.1063698530197144, 5.0953369140625, 4.469710826873779, -0.8883061408996582, 1.8172082901000977, 
266, 1217912159, 0.83498967, 0.18487842, -0.4751664, 0.20695254, 8.473404884338379, 1.1119275093078613, 5.073023319244385, 4.423774719238281, -1.3503719568252563, 1.6176598072052002, 
267, 1217928826, 0.835022, 0.18491355, -0.47507074, 0.2070105, 8.445891380310059, 1.0605113506317139, 5.090300559997559, 4.384907245635986, -1.7406840324401855, 1.6911042928695679, 
268, 1217945493, 0.83501256, 0.1848891, -0.4750519, 0.20711279, 8.417472839355469, 1.0379512310028076, 5.138103485107422, 3.571704149246216, -2.2478413581848145, 1.98643159866333, 
269, 1217962160, 0.8349399, 0.18510295, -0.47501624, 0.20729719, 8.456284523010254, 1.0804362297058105, 5.0281829833984375, 5.6568217277526855, -2.54921293258667, 1.9383822679519653, 
270, 1217978827, 0.83494186, 0.18520378, -0.4748702, 0.20753318, 8.515593528747559, 1.0488100051879883, 5.087801933288574, 5.411604404449463, -1.419795036315918, 2.453875780105591, 
271, 1217995494, 0.83501166, 0.18510747, -0.4747058, 0.207714, 8.482175827026367, 1.005467176437378, 5.08145809173584, 3.5297889709472656, -0.9443978667259216, 2.3783953189849854, 
272, 1218012161, 0.83501005, 0.1852763, -0.4745445, 0.20793872, 8.44326400756836, 1.0966212749481201, 5.073143005371094, 5.172074794769287, -1.531517744064331, 1.8091529607772827, 
273, 1218028828, 0.8348324, 0.18569303, -0.4745484, 0.20827146, 8.459256172180176, 1.1418414115905762, 5.082164287567139, 7.016434192657471, -3.257596492767334, 2.1296706199645996, 
274, 1218045495, 0.8345625, 0.18610395, -0.474705, 0.20862912, 8.471174240112305, 1.132990837097168, 5.319361686706543, 6.9633002281188965, -4.39241886138916, 2.619539499282837, 
275, 1218062162, 0.8344761, 0.186326, -0.47463304, 0.20893988, 8.49831485748291, 1.0845072269439697, 5.203598499298096, 5.954249382019043, -2.260762929916382, 2.4892988204956055, 
276, 1218078829, 0.8345181, 0.18652716, -0.47433576, 0.20926814, 8.510639190673828, 1.0423221588134766, 5.121985912322998, 6.297062873840332, -0.4660423696041107, 2.322009563446045, 
277, 1218095496, 0.8344899, 0.18676908, -0.47411737, 0.20965843, 8.548971176147461, 1.119834542274475, 5.156792163848877, 6.227651596069336, -1.1879491806030273, 2.479975461959839, 
278, 1218112163, 0.83443123, 0.18684722, -0.47408265, 0.20990074, 8.499866485595703, 1.1618430614471436, 5.138724327087402, 4.887467384338379, -2.253655195236206, 2.617797613143921, 
279, 1218128830, 0.8343591, 0.18694256, -0.4740714, 0.21012779, 8.422255516052246, 1.1358476877212524, 5.074776649475098, 4.758481025695801, -2.496783494949341, 2.437791347503662, 
280, 1218145497, 0.83431196, 0.18715312, -0.47398722, 0.21031778, 8.362367630004883, 1.1136349439620972, 5.091750621795654, 5.684841632843018, -2.169325590133667, 1.8958395719528198, 
281, 1218162164, 0.8342576, 0.18747282, -0.47387493, 0.21050131, 8.351181983947754, 1.105547547340393, 5.068942070007324, 5.974931716918945, -2.245382785797119, 1.2771520614624023, 
282, 1218178831, 0.8342213, 0.18775788, -0.47375193, 0.21066816, 8.400973320007324, 1.131960391998291, 5.073124885559082, 5.58146858215332, -2.1125547885894775, 1.1824871301651, 
283, 1218195498, 0.8341709, 0.18795688, -0.47368488, 0.21084136, 8.529214859008789, 1.125489354133606, 5.108713150024414, 5.397428035736084, -2.2987334728240967, 1.7895593643188477, 
284, 1218212165, 0.83412516, 0.18801561, -0.47367442, 0.21099304, 8.566553115844727, 1.1466023921966553, 5.126290798187256, 4.408944129943848, -2.4350953102111816, 2.1765925884246826, 
285, 1218228832, 0.83411384, 0.18809341, -0.47355834, 0.21122792, 8.593663215637207, 1.1457430124282837, 5.058635234832764, 4.75759744644165, -1.6532036066055298, 2.3292062282562256, 
286, 1218245499, 0.83407086, 0.18824969, -0.47345573, 0.21148938, 8.50888442993164, 1.124860167503357, 5.139604568481445, 5.089231014251709, -1.9369159936904907, 2.1684482097625732, 
287, 1218262166, 0.8340292, 0.18844609, -0.47335565, 0.21170264, 8.457818984985352, 1.1136940717697144, 5.110273838043213, 5.479414939880371, -2.0257532596588135, 1.940584659576416, 
288, 1218278833, 0.8339902, 0.18868887, -0.47321498, 0.21195449, 8.460726737976074, 1.1127662658691406, 5.0830535888671875, 5.867947101593018, -1.8085323572158813, 1.9242442846298218, 
289, 1218295500, 0.83396256, 0.188888, -0.47308493, 0.21217555, 8.456746101379395, 1.146710991859436, 5.1175856590271, 5.550809860229492, -1.7980434894561768, 1.9214518070220947, 
290, 1218312167, 0.8339354, 0.1890223, -0.4729794, 0.212398, 8.47729778289795, 1.1753437519073486, 5.109979629516602, 5.008525848388672, -1.8589249849319458, 2.098768711090088, 
291, 1218328834, 0.833937, 0.18908529, -0.47285306, 0.21261698, 8.493215560913086, 1.1830952167510986, 5.069772720336914, 4.5903215408325195, -1.5429539680480957, 2.2517151832580566, 
292, 1218345501, 0.8339148, 0.18917456, -0.4727416, 0.21287194, 8.444397926330566, 1.1536800861358643, 5.057168006896973, 4.776026248931885, -1.706913709640503, 2.3787667751312256, 
293, 1218362168, 0.83383876, 0.18932228, -0.47270465, 0.2131203, 8.443307876586914, 1.1492562294006348, 5.066375255584717, 5.001610279083252, -2.4076132774353027, 2.3006865978240967, 
294, 1218378835, 0.83372617, 0.18951136, -0.47272003, 0.21335882, 8.446162223815918, 1.1541303396224976, 5.096164226531982, 5.425614833831787, -2.864441394805908, 2.3715953826904297, 
295, 1218395502, 0.8336341, 0.18970543, -0.47268122, 0.21363173, 8.478402137756348, 1.1665953397750854, 5.089696884155273, 5.657526016235352, -2.4448800086975098, 2.475083589553833, 
296, 1218412169, 0.833579, 0.18984883, -0.47257882, 0.2139458, 8.50019359588623, 1.1604083776474, 5.096256732940674, 5.528719902038574, -1.8324671983718872, 2.7324912548065186, 
297, 1218428836, 0.83353865, 0.18993439, -0.47248068, 0.21424386, 8.521744728088379, 1.1621848344802856, 5.071894645690918, 5.10715913772583, -1.7440646886825562, 2.8080098628997803, 
298, 1218445503, 0.83351076, 0.18995006, -0.472427, 0.21445629, 8.506892204284668, 1.166832447052002, 5.049360275268555, 4.865683555603027, -1.8963582515716553, 2.873450756072998, 
299, 1218462170, 0.8334595, 0.18995567, -0.47239903, 0.21471295, 8.507669448852539, 1.1619480848312378, 5.04564905166626, 4.644773960113525, -2.083906888961792, 3.0643036365509033, 
300, 1218478837, 0.8334079, 0.18997163, -0.47235727, 0.2149905, 8.493102073669434, 1.1445996761322021, 5.064344882965088, 4.6593217849731445, -2.0081958770751953, 3.060833215713501, 
301, 1218495504, 0.8333625, 0.18999656, -0.47230217, 0.2152651, 8.470849990844727, 1.1360960006713867, 5.068989276885986, 4.666249752044678, -1.9318573474884033, 2.965169668197632, 
302, 1218512171, 0.8333082, 0.1899798, -0.47231328, 0.21546598, 8.475489616394043, 1.099226474761963, 5.1244049072265625, 4.186716556549072, -2.362227439880371, 2.8265795707702637, 
303, 1218528838, 0.8331531, 0.19018488, -0.47239202, 0.21571094, 8.456210136413574, 1.2363431453704834, 5.060042858123779, 5.806450366973877, -3.3258416652679443, 2.69220232963562, 
304, 1218545505, 0.833048, 0.19030687, -0.47238663, 0.21602151, 8.554349899291992, 1.1681859493255615, 5.018727779388428, 5.412834644317627, -2.495234251022339, 3.052432060241699, 
305, 1218562172, 0.8331262, 0.19005784, -0.4723023, 0.21612395, 8.470284461975098, 1.0782476663589478, 5.029212474822998, 2.4315545558929443, -1.1712239980697632, 2.661518096923828, 
306, 1218578839, 0.8331642, 0.18993248, -0.47224084, 0.21622135, 8.426815032958984, 1.1172744035720825, 4.981931209564209, 3.0611913204193115, -1.6313176155090332, 2.274458885192871, 
307, 1218595506, 0.83306295, 0.18995896, -0.47232226, 0.21641077, 8.44869327545166, 1.1825661659240723, 5.019760608673096, 4.248660564422607, -2.998485565185547, 2.7305445671081543, 
308, 1218612173, 0.83283854, 0.19007729, -0.47258317, 0.21660095, 8.461806297302246, 1.1537643671035767, 5.219887733459473, 4.755433559417725, -4.548860549926758, 2.904198408126831, 
309, 1218628840, 0.8327868, 0.19008783, -0.47262082, 0.21670832, 8.531147956848145, 1.1255332231521606, 5.0881571769714355, 4.3336687088012695, -2.6140003204345703, 2.4305431842803955, 
310, 1218645507, 0.8328584, 0.19009925, -0.47238785, 0.21693094, 8.578890800476074, 1.107995867729187, 5.023762226104736, 4.494350910186768, -0.5718740224838257, 2.2963197231292725, 
311, 1218662174, 0.8328879, 0.19004771, -0.4722664, 0.21712694, 8.60588264465332, 1.1529223918914795, 5.033500671386719, 3.832083225250244, -1.2960220575332642, 2.5004658699035645, 
312, 1218678841, 0.8328968, 0.18976647, -0.47237337, 0.21710636, 8.526883125305176, 1.134438395500183, 5.006419658660889, 2.1180295944213867, -2.528069496154785, 2.679062843322754, 
313, 1218695508, 0.83289135, 0.18949546, -0.4724956, 0.21709815, 8.4630126953125, 1.0561209917068481, 4.947822570800781, 1.9071087837219238, -2.6974077224731445, 2.590442657470703, 
314, 1218712175, 0.83287317, 0.18939367, -0.47253355, 0.21717398, 8.443611145019531, 0.9930400848388672, 4.946535587310791, 3.1622209548950195, -2.4117367267608643, 2.358443260192871, 
315, 1218728842, 0.8328754, 0.18930936, -0.472538, 0.2172292, 8.42098331451416, 1.03387451171875, 5.001114368438721, 3.4336133003234863, -2.174473524093628, 2.224079132080078, 
316, 1218745509, 0.83284634, 0.18925583, -0.47257563, 0.21730597, 8.48085880279541, 1.0746560096740723, 5.032414436340332, 3.457484006881714, -2.5096285343170166, 2.2179572582244873, 
317, 1218762176, 0.8328277, 0.18914661, -0.47259387, 0.21743222, 8.580251693725586, 1.0893378257751465, 5.011293888092041, 3.269205093383789, -2.2202048301696777, 2.616503953933716, 
318, 1218778843, 0.8328536, 0.1889262, -0.47260964, 0.21748997, 8.59216022491455, 1.1119965314865112, 5.13919734954834, 2.5416505336761475, -1.9565860033035278, 2.618309259414673, 
319, 1218795510, 0.8329287, 0.18873017, -0.47250682, 0.21759656, 8.59415340423584, 1.0923088788986206, 5.002659320831299, 2.8668811321258545, -1.1017625331878662, 2.5450961589813232, 
320, 1218812177, 0.8329874, 0.18856017, -0.4724359, 0.21767306, 8.499074935913086, 1.0829005241394043, 5.047593593597412, 2.7714226245880127, -1.425673484802246, 2.288687229156494, 
321, 1218828844, 0.8330231, 0.18836407, -0.4724843, 0.21760105, 8.47492504119873, 1.086008071899414, 5.05881404876709, 2.779995918273926, -2.237294912338257, 2.148937225341797, 
322, 1218845511, 0.83300257, 0.18834634, -0.47241116, 0.21785371, 8.507019996643066, 1.0615392923355103, 5.038784980773926, 2.9657328128814697, -1.8350536823272705, 2.1705994606018066, 
323, 1218862178, 0.83301574, 0.18830907, -0.47227728, 0.21812631, 8.541072845458984, 1.059090256690979, 5.075570583343506, 2.9666805267333984, -1.3203539848327637, 2.220390558242798, 
324, 1218878845, 0.8330164, 0.18828182, -0.4721533, 0.21841472, 8.561595916748047, 1.0752719640731812, 5.108459949493408, 2.927173376083374, -1.428542137145996, 2.226832628250122, 
325, 1218895512, 0.83301294, 0.18823671, -0.47205248, 0.21868475, 8.533703804016113, 1.0852699279785156, 5.1027445793151855, 2.7389330863952637, -1.568694829940796, 2.2184314727783203, 
326, 1218912179, 0.8330159, 0.1881753, -0.471964, 0.21891741, 8.519081115722656, 1.0729633569717407, 5.062557220458984, 2.672646999359131, -1.619792103767395, 2.1624293327331543, 
327, 1218928846, 0.83301085, 0.18813206, -0.47187805, 0.21915847, 8.478554725646973, 1.073631763458252, 5.029624938964844, 2.7012689113616943, -1.6876144409179688, 2.107349157333374, 
328, 1218945513, 0.8330307, 0.18805239, -0.47182196, 0.21927181, 8.468274116516113, 1.0782302618026733, 5.029586315155029, 2.7530577182769775, -1.7932794094085693, 1.9127819538116455, 
329, 1218962180, 0.8330211, 0.18801938, -0.47176075, 0.2194687, 8.46688461303711, 1.0748646259307861, 5.036612033843994, 2.6219468116760254, -1.9062830209732056, 1.8820469379425049, 
330, 1218978847, 0.8330044, 0.18796629, -0.47172353, 0.21965735, 8.475132942199707, 1.0561989545822144, 5.051158428192139, 2.4794631004333496, -2.0414795875549316, 1.958052635192871, 
331, 1218995514, 0.8329862, 0.18790886, -0.47168458, 0.21985944, 8.50317096710205, 1.0495269298553467, 5.047273635864258, 2.4945619106292725, -2.0114102363586426, 2.045545816421509, 
332, 1219012181, 0.832992, 0.18783177, -0.47160608, 0.22007081, 8.54233169555664, 1.0487505197525024, 5.061263561248779, 2.569568634033203, -1.6471080780029297, 2.1469461917877197, 
333, 1219028848, 0.832988, 0.18780923, -0.4714854, 0.22036393, 8.5374174118042, 1.0281633138656616, 5.057941436767578, 2.9882211685180664, -1.4409129619598389, 2.2690165042877197, 
334, 1219045515, 0.8329658, 0.18783806, -0.47139943, 0.22060767, 8.524353981018066, 1.029130458831787, 5.064755439758301, 3.4348294734954834, -1.7959176301956177, 2.082914352416992, 
335, 1219062182, 0.8329298, 0.18785526, -0.4713503, 0.22083342, 8.496274948120117, 1.0426645278930664, 5.074121475219727, 3.1317930221557617, -2.071523427963257, 2.006294012069702, 
336, 1219078849, 0.8328425, 0.18785378, -0.4714095, 0.22103758, 8.456812858581543, 1.057093858718872, 5.123287677764893, 2.709157943725586, -2.87253475189209, 2.08113431930542, 
337, 1219095516, 0.83262616, 0.18816033, -0.47149765, 0.22140361, 8.467556953430176, 1.1317604780197144, 4.991811752319336, 5.10532808303833, -3.7184321880340576, 2.236001491546631, 
338, 1219112183, 0.8325487, 0.18818171, -0.47144604, 0.22178619, 8.526989936828613, 1.0709925889968872, 5.039342403411865, 3.471109628677368, -2.0195932388305664, 2.816526174545288, 
339, 1219128850, 0.83255565, 0.18797648, -0.47142616, 0.2219767, 8.433195114135742, 1.0187828540802002, 5.07520866394043, 1.6588449478149414, -1.7963786125183105, 2.5163838863372803, 
340, 1219145517, 0.83254963, 0.1879262, -0.4713429, 0.22221756, 8.472024917602539, 1.0797843933105469, 4.995853424072266, 2.7740862369537354, -1.6512831449508667, 2.2108631134033203, 
341, 1219162184, 0.83241695, 0.18798904, -0.47141847, 0.22250111, 8.485010147094727, 1.1729722023010254, 5.0035295486450195, 3.7795257568359375, -3.050325632095337, 2.6566648483276367, 
342, 1219178851, 0.8320874, 0.18821202, -0.47175646, 0.22282927, 8.476890563964844, 1.1633650064468384, 5.129947662353516, 4.37876033782959, -5.411587238311768, 2.8633084297180176, 
343, 1219195518, 0.83183414, 0.188389, -0.4719928, 0.22312453, 8.502480506896973, 1.1310079097747803, 5.1366777420043945, 4.187587738037109, -4.541138648986816, 2.6486096382141113, 
344, 1219212185, 0.83164746, 0.18864693, -0.47200742, 0.22357148, 8.506891250610352, 1.0935606956481934, 5.0589070320129395, 4.82866096496582, -3.0506584644317627, 2.553279161453247, 
345, 1219228852, 0.83144873, 0.18890303, -0.47203723, 0.22403061, 8.535710334777832, 1.1064451932907104, 5.096364974975586, 5.182423114776611, -3.1172516345977783, 2.8545613288879395, 
346, 1219245519, 0.8312457, 0.18901514, -0.47214457, 0.22446339, 8.526344299316406, 1.1458020210266113, 5.087611675262451, 4.269573211669922, -3.3744285106658936, 3.3419711589813232, 
347, 1219262186, 0.8310549, 0.18902835, -0.4722675, 0.22489862, 8.52321720123291, 1.14542818069458, 5.051046848297119, 3.804600715637207, -3.251347303390503, 3.7569994926452637, 
348, 1219278853, 0.83084744, 0.1891255, -0.47234228, 0.22542608, 8.540446281433105, 1.116036295890808, 5.075189113616943, 4.479636192321777, -3.0602376461029053, 3.867377281188965, 
349, 1219295520, 0.8306448, 0.18927248, -0.4723953, 0.22593772, 8.514364242553711, 1.121546983718872, 5.055308818817139, 4.952485084533691, -2.9937856197357178, 3.7003443241119385, 
350, 1219312187, 0.8304357, 0.18949404, -0.47240153, 0.22650807, 8.502342224121094, 1.1278225183486938, 5.044785022735596, 5.3745317459106445, -2.8171608448028564, 3.5959601402282715, 
351, 1219328854, 0.8302483, 0.18963178, -0.4723925, 0.22709712, 8.483121871948242, 1.1345269680023193, 5.078615665435791, 4.862827301025391, -2.5145976543426514, 3.876943826675415, 
352, 1219345521, 0.83004254, 0.18966293, -0.47250557, 0.2275872, 8.466080665588379, 1.2200794219970703, 5.079636096954346, 4.170541763305664, -3.1860857009887695, 4.072624206542969, 
353, 1219362188, 0.82985985, 0.1896278, -0.4725807, 0.22812612, 8.497941970825195, 1.2040526866912842, 5.007528781890869, 3.966856002807617, -2.72796368598938, 4.478713512420654, 
354, 1219378855, 0.8296205, 0.18958886, -0.47273606, 0.22870667, 8.467988014221191, 1.1946927309036255, 5.072793960571289, 3.556016206741333, -3.362236976623535, 4.670719623565674, 
355, 1219395522, 0.8293843, 0.18958654, -0.47287646, 0.2292743, 8.475675582885742, 1.14582097530365, 5.063474178314209, 3.7725846767425537, -3.337303400039673, 4.47590970993042, 
356, 1219412189, 0.82916456, 0.18962283, -0.47302005, 0.22974269, 8.47972297668457, 1.1257072687149048, 5.059202194213867, 4.046550273895264, -3.4462594985961914, 3.988845109939575, 
357, 1219428856, 0.82896507, 0.18958707, -0.4732342, 0.23005064, 8.529857635498047, 1.1648849248886108, 5.1056365966796875, 3.7425668239593506, -3.7937471866607666, 3.7926392555236816, 
358, 1219445523, 0.82871145, 0.18962497, -0.47343406, 0.2305218, 8.551139831542969, 1.201525092124939, 5.145109176635742, 3.4941747188568115, -3.935590982437134, 3.847694158554077, 
359, 1219462190, 0.8284749, 0.1895908, -0.47366607, 0.2309225, 8.600278854370117, 1.1961082220077515, 5.094018936157227, 3.448007345199585, -3.9679386615753174, 4.067360877990723, 
360, 1219478857, 0.8281587, 0.18971293, -0.47388735, 0.23150226, 8.610909461975098, 1.141684651374817, 5.057933330535889, 4.0268168449401855, -4.291069030761719, 4.143379211425781, 
361, 1219495524, 0.8278237, 0.1898657, -0.47419477, 0.23194553, 8.56467056274414, 1.110821008682251, 5.037594795227051, 4.644761562347412, -4.9585747718811035, 3.958455801010132, 
362, 1219512191, 0.8274081, 0.19020414, -0.47451514, 0.23249455, 8.512556076049805, 1.0808366537094116, 5.016289710998535, 5.535187244415283, -5.517725467681885, 3.782266855239868, 
363, 1219528858, 0.8269134, 0.1906924, -0.4748759, 0.23311722, 8.495766639709473, 1.0896903276443481, 4.998767852783203, 6.793834686279297, -6.134263038635254, 3.9642324447631836, 
364, 1219545525, 0.82632786, 0.1912901, -0.47529274, 0.23385367, 8.524697303771973, 1.0918781757354736, 4.972866535186768, 7.660094738006592, -6.792086601257324, 4.394052028656006, 
365, 1219562192, 0.8256585, 0.19185476, -0.4758826, 0.23455483, 8.57801342010498, 1.125198245048523, 4.975010395050049, 7.418312072753906, -8.015761375427246, 4.791331768035889, 
366, 1219578859, 0.8249449, 0.19229004, -0.4766293, 0.23519164, 8.6076078414917, 1.0851035118103027, 4.881712436676025, 6.424193382263184, -8.909387588500977, 5.210816383361816, 
367, 1219595526, 0.8241144, 0.19276275, -0.47755107, 0.23584561, 8.476275444030762, 0.9148591160774231, 4.798573017120361, 6.516143798828125, -10.325746536254883, 5.583405494689941, 
368, 1219612193, 0.823045, 0.19336513, -0.4788038, 0.23654565, 8.21349811553955, 0.7120836973190308, 4.737592697143555, 7.026274681091309, -13.14892578125, 6.162485599517822, 
369, 1219628860, 0.8218979, 0.19392358, -0.4802524, 0.23714016, 7.944026947021484, 0.5082319974899292, 4.478816986083984, 7.146512985229492, -14.483501434326172, 6.5795369148254395, 
370, 1219645527, 0.82074076, 0.19431321, -0.48177034, 0.23774898, 7.774387836456299, 0.3061327338218689, 4.268827438354492, 5.655033111572266, -14.664569854736328, 7.062656879425049, 
371, 1219662194, 0.81949496, 0.19480744, -0.48332986, 0.23847616, 7.815101623535156, 0.3628125488758087, 4.100947380065918, 6.649704933166504, -15.205129623413086, 7.547892093658447, 
372, 1219678861, 0.81819427, 0.19534008, -0.48475263, 0.2396152, 8.331610679626465, 0.23183807730674744, 4.056622505187988, 8.205384254455566, -14.154805183410645, 9.46861743927002, 
373, 1219695528, 0.8169794, 0.19547386, -0.48615235, 0.2408123, 8.856867790222168, 0.1779283732175827, 4.512187957763672, 5.899827480316162, -13.010170936584473, 10.847259521484375, 
374, 1219712195, 0.81558454, 0.19593537, -0.48759124, 0.2422526, 9.400805473327637, 0.2623991370201111, 4.810120582580566, 8.410850524902344, -14.072257041931152, 11.291092872619629, 
375, 1219728862, 0.8140662, 0.19679278, -0.48902288, 0.24377374, 9.782760620117188, 0.4822665750980377, 4.857693195343018, 11.691062927246094, -14.928688049316406, 10.904560089111328, 
376, 1219745529, 0.812482, 0.19764262, -0.49063843, 0.2451215, 9.865859031677246, 0.766255259513855, 5.099587917327881, 11.489250183105469, -16.33405876159668, 10.623730659484863, 
377, 1219762196, 0.8110778, 0.19827281, -0.49213088, 0.24626921, 9.738486289978027, 0.9621575474739075, 5.324078559875488, 8.660971641540527, -15.021797180175781, 9.339018821716309, 
378, 1219778863, 0.8101495, 0.19866067, -0.4931302, 0.2470118, 9.512782096862793, 1.0442607402801514, 5.34991979598999, 6.124391555786133, -10.808695793151855, 6.423151016235352, 
379, 1219795530, 0.8096404, 0.19889118, -0.49373946, 0.24727808, 9.223094940185547, 1.0400317907333374, 5.284531593322754, 3.877603530883789, -7.590389251708984, 3.139624834060669, 
380, 1219812197, 0.8094945, 0.1988131, -0.49409604, 0.24710648, 8.999316215515137, 0.9034672975540161, 5.092726707458496, 0.7532310485839844, -5.022362232208252, 0.8606507778167725, 
381, 1219828864, 0.80963236, 0.19835082, -0.49433413, 0.24654908, 8.713033676147461, 0.6925691962242126, 4.906791687011719, -2.0305302143096924, -3.208714246749878, -0.22040370106697083, 
382, 1219845531, 0.80989206, 0.19763008, -0.4945504, 0.24584009, 8.44151496887207, 0.4790676236152649, 4.750071048736572, -4.533326625823975, -2.4893436431884766, -0.6282348036766052, 
383, 1219862198, 0.81013113, 0.19689152, -0.49478182, 0.2451789, 8.248108863830566, 0.29586806893348694, 4.5884480476379395, -5.233897686004639, -2.6158058643341064, -0.6142885684967041, 
384, 1219878865, 0.8103584, 0.1962301, -0.49498677, 0.24454379, 8.258600234985352, 0.2347426414489746, 4.515911102294922, -3.7590672969818115, -2.534562587738037, -0.33577612042427063, 
385, 1219895532, 0.81044483, 0.19583394, -0.49520904, 0.24412446, 8.411236763000488, 0.15661495923995972, 4.487046718597412, -1.4548333883285522, -3.2750771045684814, 0.1773807555437088, 
386, 1219912199, 0.810286, 0.19569024, -0.4955822, 0.24400924, 8.601875305175781, 0.192938894033432, 4.713868141174316, -0.151223823428154, -5.072909832000732, 1.0293744802474976, 
387, 1219928866, 0.8101142, 0.19530743, -0.4961252, 0.24378316, 8.808317184448242, 0.24851155281066895, 4.7640380859375, -0.7541467547416687, -5.697166919708252, 2.119169235229492, 
388, 1219945533, 0.8100764, 0.1945938, -0.4965493, 0.24361585, 8.87999439239502, 0.307034432888031, 4.812234878540039, -2.4463908672332764, -3.953941583633423, 3.1449837684631348, 
389, 1219962200, 0.810175, 0.19363366, -0.49691305, 0.24331152, 8.82015609741211, 0.3303142189979553, 4.823341369628906, -3.659844160079956, -2.8692309856414795, 3.2379963397979736, 
390, 1219978867, 0.8103499, 0.19268799, -0.4971457, 0.24300413, 8.766730308532715, 0.3807781934738159, 4.8418989181518555, -4.7524943351745605, -2.0148935317993164, 2.252431869506836, 
391, 1219995534, 0.81061953, 0.19172312, -0.49738336, 0.24238083, 8.760777473449707, 0.3927513659000397, 4.7870774269104, -5.4915618896484375, -2.064133882522583, 0.673550009727478, 
392, 1220012201, 0.8108637, 0.19085144, -0.49770954, 0.24158134, 8.726000785827637, 0.3252556025981903, 4.726044654846191, -5.596215724945068, -3.0307064056396484, -0.43351420760154724, 
393, 1220028868, 0.81096244, 0.19015874, -0.49820912, 0.24076477, 8.684317588806152, 0.2677644193172455, 4.694656848907471, -5.88264274597168, -4.9073872566223145, -1.219529628753662, 
394, 1220045535, 0.8110681, 0.18935853, -0.49887595, 0.23965669, 8.697650909423828, 0.2543097138404846, 4.6317291259765625, -6.395638942718506, -5.917488098144531, -1.631830096244812, 
395, 1220062202, 0.81112987, 0.18875961, -0.49953517, 0.23854373, 8.669546127319336, 0.23361985385417938, 4.616635322570801, -5.378143310546875, -6.376821517944336, -2.3737986087799072, 
396, 1220078869, 0.81108665, 0.18844959, -0.5002249, 0.23748782, 8.64479923248291, 0.23664209246635437, 4.5915141105651855, -4.095951557159424, -7.351275444030762, -3.1315183639526367, 
397, 1220095536, 0.81098616, 0.18832944, -0.50093895, 0.23641935, 8.58919906616211, 0.3277170956134796, 4.583549976348877, -3.3693580627441406, -8.037042617797852, -3.8927152156829834, 
398, 1220112203, 0.81097364, 0.18817489, -0.5015986, 0.23518395, 8.54682445526123, 0.41472646594047546, 4.642332553863525, -3.1672608852386475, -7.518181324005127, -4.464211463928223, 
399, 1220128870, 0.811093, 0.18792711, -0.5021183, 0.23385754, 8.554520606994629, 0.4265017807483673, 4.63321590423584, -3.9110662937164307, -6.249698162078857, -5.03464412689209, 
400, 1220145537, 0.8113112, 0.18763724, -0.5025062, 0.23249614, 8.648231506347656, 0.38761499524116516, 4.618550777435303, -4.58272123336792, -5.185977458953857, -5.608112812042236, 
401, 1220162204, 0.8116001, 0.18733886, -0.50279063, 0.2311092, 8.796998023986816, 0.3191676139831543, 4.680938720703125, -5.261931896209717, -4.438521862030029, -6.2649126052856445, 
402, 1220178871, 0.8119737, 0.18696685, -0.5030367, 0.22955745, 8.9133882522583, 0.25153645873069763, 4.800912857055664, -5.511592388153076, -3.965160608291626, -6.76176118850708, 
403, 1220195538, 0.81236434, 0.18660368, -0.5032271, 0.22804941, 9.01200008392334, 0.2084859162569046, 4.850381374359131, -5.457817077636719, -3.5722615718841553, -6.754371166229248, 
404, 1220212205, 0.81284237, 0.18608586, -0.5033734, 0.22644028, 9.060154914855957, 0.17718541622161865, 4.89754056930542, -5.583653450012207, -2.817929267883301, -6.465447902679443, 
405, 1220228872, 0.81334794, 0.18551692, -0.5033907, 0.22504893, 9.040595054626465, 0.1740671992301941, 4.991790294647217, -6.850636959075928, -1.8153454065322876, -6.186038494110107, 
406, 1220245539, 0.81397104, 0.18491694, -0.503269, 0.22355725, 8.919408798217773, 0.32511621713638306, 5.01173734664917, -6.323348045349121, -0.6286447048187256, -6.549904823303223, 
407, 1220262206, 0.8146361, 0.18439792, -0.50295013, 0.22227725, 8.816434860229492, 0.33274132013320923, 5.018917083740234, -6.053991794586182, 0.6560694575309753, -6.516199111938477, 
408, 1220278873, 0.81550676, 0.1835409, -0.5025415, 0.22071303, 8.690311431884766, 0.25665518641471863, 5.055862903594971, -8.565832138061523, 2.063628911972046, -7.146093368530273, 
409, 1220295540, 0.8164481, 0.18276405, -0.50202763, 0.2190411, 8.554024696350098, 0.2496764361858368, 5.05993127822876, -8.048973083496094, 2.6621406078338623, -8.105923652648926, 
410, 1220312207, 0.8175178, 0.18181546, -0.5015768, 0.21686271, 8.540024757385254, 0.27368196845054626, 4.93323278427124, -7.725742340087891, 2.6663155555725098, -8.91727066040039, 
411, 1220328874, 0.81842947, 0.18121968, -0.5010619, 0.21510589, 8.59369945526123, 0.2319784164428711, 4.975944519042969, -6.540659427642822, 2.2461066246032715, -8.824456214904785, 
412, 1220345541, 0.8191863, 0.18090212, -0.5005728, 0.21362549, 8.6785306930542, 0.10712458193302155, 5.072637557983398, -5.359971523284912, 1.3485411405563354, -8.701045989990234, 
413, 1220362208, 0.8199449, 0.18065192, -0.5000367, 0.21217772, 8.74028205871582, -0.0022954693995416164, 5.046406269073486, -4.4573211669921875, 1.5923290252685547, -8.64861011505127, 
414, 1220378875, 0.82068795, 0.18040377, -0.4994979, 0.21078072, 8.801106452941895, 0.05672919750213623, 5.075728893280029, -3.3525936603546143, 1.6973921060562134, -7.933438301086426, 
415, 1220395542, 0.8214722, 0.18015525, -0.49877784, 0.20963994, 8.899120330810547, 0.200731098651886, 4.995871067047119, -2.6706557273864746, 3.1325747966766357, -6.985653877258301, 
416, 1220412209, 0.82223487, 0.1799855, -0.49794507, 0.20877405, 8.98697280883789, 0.2862110435962677, 4.933842658996582, -1.579272747039795, 3.867978811264038, -6.063953876495361, 
417, 1220428876, 0.8229314, 0.17986989, -0.49717322, 0.20796679, 8.993611335754395, 0.27880823612213135, 4.839879989624023, -0.22757525742053986, 3.3797500133514404, -5.33892297744751, 
418, 1220445543, 0.82350785, 0.17986834, -0.4965076, 0.20727605, 8.929758071899414, 0.2944986820220947, 4.700006484985352, 0.5950726866722107, 2.3287196159362793, -4.881416320800781, 
419, 1220462210, 0.8240147, 0.18002225, -0.49583116, 0.20674567, 8.867465019226074, 0.31869059801101685, 4.583301544189453, 2.302748441696167, 2.1543612480163574, -4.337812423706055, 
420, 1220478877, 0.8244169, 0.18052231, -0.49501973, 0.2066517, 8.83765697479248, 0.417598158121109, 4.506694793701172, 5.168348789215088, 2.5156924724578857, -3.5221240520477295, 
421, 1220495544, 0.8247144, 0.1811995, -0.49422628, 0.20677112, 8.862824440002441, 0.6949225664138794, 4.5737175941467285, 7.409818649291992, 2.1215896606445312, -2.5472090244293213, 
422, 1220512211, 0.8249977, 0.18197457, -0.49330902, 0.20715024, 9.021150588989258, 0.9311415553092957, 4.544865131378174, 9.141040802001953, 2.9754860401153564, -1.4908006191253662, 
423, 1220528878, 0.825343, 0.18261747, -0.49227357, 0.20767184, 9.110552787780762, 1.060180902481079, 4.537840366363525, 8.715018272399902, 4.201547145843506, -0.5910708904266357, 
424, 1220545545, 0.8257982, 0.1829961, -0.4911808, 0.20811574, 9.102225303649902, 1.0760407447814941, 4.430144309997559, 6.996187686920166, 5.198150157928467, -0.3083193600177765, 
425, 1220562212, 0.8262747, 0.1832381, -0.49016672, 0.20840196, 8.965665817260742, 1.0697981119155884, 4.30319356918335, 5.3966474533081055, 4.812229633331299, -0.7443626523017883, 
426, 1220578879, 0.82672787, 0.18350296, -0.48926657, 0.2084875, 8.802103996276855, 1.0520613193511963, 4.127758502960205, 4.746417999267578, 3.8159854412078857, -1.7614432573318481, 
427, 1220595546, 0.8271243, 0.18390182, -0.48845273, 0.20847191, 8.669939994812012, 1.1277925968170166, 3.962618827819824, 5.074414253234863, 2.8237109184265137, -2.6123485565185547, 
428, 1220612213, 0.82735825, 0.18447667, -0.48788565, 0.20836425, 8.572153091430664, 1.2594859600067139, 3.914722204208374, 5.795296669006348, 0.5424514412879944, -3.082277536392212, 
429, 1220628880, 0.8273778, 0.18516476, -0.48766914, 0.20818193, 8.612835884094238, 1.4323134422302246, 3.923325300216675, 5.377617835998535, -2.484464168548584, -3.4252824783325195, 
430, 1220645547, 0.8272842, 0.18572825, -0.48780206, 0.20774078, 8.70297622680664, 1.603317141532898, 3.922443389892578, 4.06182861328125, -4.909602165222168, -3.5400660037994385, 
431, 1220662214, 0.82713234, 0.18606271, -0.48819906, 0.20711318, 8.839790344238281, 1.7028554677963257, 3.9812374114990234, 1.9607036113739014, -6.485693454742432, -3.3283259868621826, 
432, 1220678881, 0.8270452, 0.18605748, -0.4887059, 0.2062681, 8.922639846801758, 1.7720427513122559, 4.0225396156311035, -1.240493655204773, -6.709228515625, -3.5154781341552734, 
433, 1220695548, 0.82705563, 0.18583108, -0.48924014, 0.20516115, 8.879510879516602, 1.675152063369751, 4.071423053741455, -3.548032283782959, -6.5432844161987305, -4.349748134613037, 
434, 1220712215, 0.8271239, 0.18556815, -0.48977038, 0.20385484, 8.835655212402344, 1.5634092092514038, 4.09600305557251, -4.5071258544921875, -6.515610218048096, -5.4390058517456055, 
435, 1220728882, 0.82720745, 0.18540262, -0.4902794, 0.20243792, 8.81204605102539, 1.3962562084197998, 4.047160625457764, -4.325928688049316, -6.608827590942383, -6.438132286071777, 
436, 1220745549, 0.82718945, 0.18546408, -0.49081057, 0.20116389, 8.916976928710938, 1.3159780502319336, 4.031896591186523, -2.5904884338378906, -7.215336799621582, -6.282112121582031, 
437, 1220762216, 0.82698333, 0.18578292, -0.49143535, 0.20018996, 9.011086463928223, 1.2615442276000977, 4.1009039878845215, -0.03796444088220596, -8.345972061157227, -5.0744476318359375, 
438, 1220778883, 0.8265288, 0.18623611, -0.49231592, 0.19948143, 9.164630889892578, 1.226170301437378, 4.239037990570068, 1.8013420104980469, -10.445779800415039, -3.2369539737701416, 
439, 1220795550, 0.82585603, 0.1868541, -0.4933564, 0.1991186, 9.272502899169922, 1.2398847341537476, 4.334491729736328, 3.8692355155944824, -11.877786636352539, -1.3719000816345215, 
440, 1220812217, 0.82504195, 0.18756789, -0.49446827, 0.19906437, 9.332958221435547, 1.2631897926330566, 4.443321704864502, 5.5596747398376465, -12.485308647155762, 0.35345545411109924, 
441, 1220828884, 0.82419527, 0.18844095, -0.49547523, 0.19924332, 9.283886909484863, 1.4865338802337646, 4.447809219360352, 7.464064121246338, -11.907339096069336, 1.0590025186538696, 
442, 1220845551, 0.8233318, 0.18956265, -0.4962736, 0.19976187, 9.188241004943848, 1.5634149312973022, 4.367844104766846, 10.266357421875, -10.685683250427246, 1.8650412559509277, 
443, 1220862218, 0.8227176, 0.19022526, -0.49690673, 0.20008853, 9.015905380249023, 1.619428038597107, 4.344335556030273, 6.950533390045166, -8.507882118225098, 1.815569519996643, 
444, 1220878885, 0.8222392, 0.19078238, -0.4974078, 0.20027949, 8.749923706054688, 1.7123717069625854, 4.3832807540893555, 6.009739875793457, -7.308411598205566, 1.1167011260986328, 
445, 1220895552, 0.82178164, 0.19143432, -0.49790826, 0.20029198, 8.619729995727539, 1.8216798305511475, 4.270195960998535, 5.850863933563232, -7.6044697761535645, -0.2607053518295288, 
446, 1220912219, 0.82129824, 0.19220021, -0.49844825, 0.20019822, 8.563671112060547, 1.7757753133773804, 4.353994369506836, 6.069309711456299, -8.215110778808594, -1.1671072244644165, 
447, 1220928886, 0.8209165, 0.19298333, -0.49887514, 0.19994746, 8.554708480834961, 1.718846321105957, 4.3570966720581055, 5.431302547454834, -7.487945079803467, -2.492955207824707, 
448, 1220945553, 0.82079023, 0.19385457, -0.4988769, 0.19961786, 8.577249526977539, 1.6499745845794678, 4.17564058303833, 6.122756004333496, -4.407607555389404, -4.037708759307861, 
449, 1220962220, 0.82060295, 0.19495931, -0.4989213, 0.19920036, 8.635187149047852, 1.643744945526123, 4.177887916564941, 7.553560256958008, -5.237345218658447, -4.994203567504883, 
450, 1220978887, 0.8202758, 0.19608396, -0.4991693, 0.19882289, 8.729829788208008, 1.6387999057769775, 4.237396240234375, 7.32348108291626, -6.8892364501953125, -4.547914505004883, 
451, 1220995554, 0.8199081, 0.19716404, -0.49946433, 0.19852975, 8.731964111328125, 1.5495078563690186, 4.246779441833496, 7.295882701873779, -7.125436782836914, -3.8180928230285645, 
452, 1221012221, 0.8195254, 0.19840978, -0.49961793, 0.1984826, 8.687018394470215, 1.4516412019729614, 4.21240234375, 9.55303955078125, -6.230503082275391, -3.0377378463745117, 
453, 1221028888, 0.8190598, 0.19991511, -0.49965045, 0.19881228, 8.574905395507812, 1.4351392984390259, 4.187196731567383, 12.360063552856445, -5.704233646392822, -1.9605764150619507, 
454, 1221045555, 0.8185085, 0.20148201, -0.49965543, 0.19948657, 8.495133399963379, 1.434198260307312, 4.19035530090332, 13.792436599731445, -5.490617752075195, -0.26713427901268005, 
455, 1221062222, 0.8179345, 0.20289654, -0.49963704, 0.20045225, 8.465924263000488, 1.3782066106796265, 4.101896286010742, 14.206250190734863, -4.7928385734558105, 1.9986248016357422, 
456, 1221078889, 0.8172529, 0.2041146, -0.49971533, 0.20179553, 8.414114952087402, 1.2926424741744995, 4.176723957061768, 14.405949592590332, -4.908159255981445, 5.081051349639893, 
457, 1221095556, 0.8164682, 0.20511664, -0.49991566, 0.20345323, 8.418603897094727, 1.2665225267410278, 4.129974842071533, 14.267810821533203, -5.205357074737549, 7.9169697761535645, 
458, 1221112223, 0.8157249, 0.20598423, -0.49990422, 0.20557539, 8.438220977783203, 1.2537800073623657, 4.14515495300293, 15.248353004455566, -3.0447134971618652, 10.585492134094238, 
459, 1221128890, 0.81497335, 0.20676693, -0.4997585, 0.20810933, 8.439048767089844, 1.2904911041259766, 4.252192497253418, 16.43671226501465, -1.6101959943771362, 13.033329963684082, 
460, 1221145557, 0.81430864, 0.20734307, -0.4994208, 0.21093002, 8.48929214477539, 1.3449662923812866, 4.317206859588623, 16.30004119873047, 0.4491194784641266, 14.902827262878418, 
461, 1221162224, 0.8137581, 0.20766498, -0.49894273, 0.21384826, 8.660786628723145, 1.4545155763626099, 4.394464015960693, 15.455906867980957, 2.1620357036590576, 16.054811477661133, 
462, 1221178891, 0.8132972, 0.2078539, -0.4983376, 0.21680868, 8.78102970123291, 1.6005240678787231, 4.495882034301758, 14.964655876159668, 3.4418535232543945, 16.46457862854004, 
463, 1221195558, 0.8127931, 0.2080043, -0.49781424, 0.21973793, 8.662636756896973, 1.7159128189086914, 4.523801326751709, 14.508544921875, 2.835394859313965, 16.578489303588867, 
464, 1221212225, 0.81228226, 0.20811765, -0.49730542, 0.22265291, 8.429259300231934, 1.7521475553512573, 4.328512668609619, 13.999156951904297, 2.7309329509735107, 16.554473876953125, 
465, 1221228892, 0.8119183, 0.20806795, -0.4966451, 0.22548217, 8.138138771057129, 1.6691100597381592, 4.120400428771973, 13.020159721374512, 4.2328643798828125, 16.300819396972656, 
466, 1221245559, 0.8116261, 0.20805934, -0.49585274, 0.22826889, 7.861832618713379, 1.509738564491272, 4.103994846343994, 13.411844253540039, 5.116298198699951, 15.733267784118652, 
467, 1221262226, 0.8113242, 0.20820545, -0.49502438, 0.23099156, 7.67691707611084, 1.4416309595108032, 4.23585844039917, 13.62493896484375, 4.8826584815979, 14.584711074829102, 
468, 1221278893, 0.8111357, 0.20829439, -0.49408585, 0.23356797, 7.632816791534424, 1.3348023891448975, 4.229959487915039, 12.885419845581055, 5.769345283508301, 13.665149688720703, 
469, 1221295560, 0.811107, 0.20827937, -0.4929067, 0.23615761, 7.712287425994873, 1.2534621953964233, 4.178779125213623, 12.527586936950684, 7.837074279785156, 13.508631706237793, 
470, 1221312227, 0.81117344, 0.20812258, -0.49153337, 0.23891479, 7.827033042907715, 1.2260700464248657, 4.144885063171387, 12.477554321289062, 9.709673881530762, 14.494185447692871, 
471, 1221328894, 0.81125426, 0.20776737, -0.49012002, 0.24183501, 7.796161651611328, 1.1648601293563843, 4.2488532066345215, 12.099447250366211, 10.555946350097656, 16.063583374023438, 
472, 1221345561, 0.8112507, 0.20735145, -0.48877525, 0.2449066, 7.73857307434082, 1.1248104572296143, 4.285360336303711, 12.39943790435791, 10.217476844787598, 17.4163875579834, 
473, 1221362228, 0.8111852, 0.20706823, -0.48736617, 0.24814957, 7.645535945892334, 1.0938490629196167, 4.260772705078125, 13.84640884399414, 10.378519058227539, 17.913036346435547, 
474, 1221378895, 0.8111411, 0.20693393, -0.48582426, 0.25140825, 7.583276748657227, 1.1420103311538696, 4.392296314239502, 14.938185691833496, 10.958513259887695, 17.287708282470703, 
475, 1221395562, 0.8113051, 0.20687273, -0.48395446, 0.25451595, 7.535543918609619, 1.3632115125656128, 4.393132209777832, 15.114400863647461, 13.136096000671387, 15.38424301147461, 
476, 1221412229, 0.81158954, 0.20700501, -0.4818412, 0.2574946, 7.575822353363037, 1.503037929534912, 4.442785263061523, 16.00977897644043, 14.36805248260498, 13.470991134643555, 
477, 1221428896, 0.812143, 0.20669392, -0.47974974, 0.25989315, 7.636085510253906, 1.539778709411621, 4.589829921722412, 11.171009063720703, 15.090413093566895, 11.259553909301758, 
478, 1221445563, 0.8128457, 0.2062683, -0.47776198, 0.26169017, 7.414383888244629, 1.5320160388946533, 4.676023006439209, 8.222518920898438, 14.356359481811523, 8.211544036865234, 
479, 1221462230, 0.8135193, 0.20603572, -0.47595945, 0.26306126, 7.250952243804932, 1.571721076965332, 4.518835067749023, 7.569206237792969, 12.26333999633789, 5.5031046867370605, 
480, 1221478897, 0.8142302, 0.20573197, -0.47427115, 0.26414692, 7.047637939453125, 1.4918466806411743, 4.45428991317749, 5.925975322723389, 11.460871696472168, 4.221602916717529, 
481, 1221495564, 0.8151153, 0.20524107, -0.47252825, 0.2649212, 6.859199523925781, 1.3626446723937988, 4.401534557342529, 3.7238965034484863, 12.228263854980469, 2.7113614082336426, 
482, 1221512231, 0.81634444, 0.20457399, -0.470416, 0.26541138, 6.791923999786377, 1.2132805585861206, 4.2227935791015625, 1.976789951324463, 15.32810115814209, 0.5404669046401978, 
483, 1221528898, 0.8177589, 0.20388305, -0.46820113, 0.2655051, 7.03938627243042, 1.2438586950302124, 4.33373498916626, 0.5069910883903503, 15.987948417663574, -2.071486711502075, 
484, 1221545565, 0.8193234, 0.20310488, -0.46603963, 0.26508114, 7.670851230621338, 1.3243651390075684, 4.651752471923828, -2.0013716220855713, 15.597915649414062, -4.917507648468018, 
485, 1221562232, 0.8213005, 0.20179738, -0.4637203, 0.26402625, 8.88925838470459, 1.2525073289871216, 4.789195537567139, -7.278685092926025, 17.89271354675293, -7.733734607696533, 
486, 1221578899, 0.8236235, 0.20016675, -0.46108198, 0.2626487, 10.725592613220215, 1.3792861700057983, 5.3619279861450195, -10.037774085998535, 20.94037437438965, -9.597336769104004, 
487, 1221595566, 0.82560295, 0.19866289, -0.45910323, 0.2610364, 12.0255126953125, 1.505626916885376, 5.687662601470947, -10.781471252441406, 15.57809066772461, -9.797442436218262, 
488, 1221612233, 0.82697886, 0.19716598, -0.4585325, 0.25881025, 11.689284324645996, 1.4127928018569946, 5.609648704528809, -14.380155563354492, 4.84884786605835, -10.29426097869873, 
489, 1221628900, 0.82794815, 0.19572051, -0.45892903, 0.2560911, 11.098233222961426, 1.1771866083145142, 5.375592231750488, -16.812986373901367, -2.674795389175415, -11.226338386535645, 
490, 1221645567, 0.82876545, 0.19486538, -0.4591404, 0.25370884, 10.699295997619629, 0.6663739681243896, 5.007998466491699, -11.872888565063477, -2.6706836223602295, -11.163312911987305, 
491, 1221662234, 0.82908535, 0.19494267, -0.45972812, 0.25153106, 9.90203857421875, 0.5598633885383606, 5.32988166809082, -5.881736755371094, -7.716709613800049, -11.566736221313477, 
492, 1221678901, 0.82946646, 0.19510251, -0.46017146, 0.24932952, 9.770149230957031, 0.7725037336349487, 5.3406877517700195, -5.301813125610352, -6.86509895324707, -12.263900756835938, 
493, 1221695568, 0.8304644, 0.19473684, -0.45963028, 0.2472835, 10.502413749694824, 0.9904887080192566, 5.372960090637207, -6.953731536865234, 1.8154550790786743, -12.10437297821045, 
494, 1221712235, 0.83186984, 0.19381064, -0.458548, 0.24528901, 11.627223014831543, 1.022330641746521, 5.872894287109375, -9.615456581115723, 7.226398944854736, -11.46086597442627, 
495, 1221728902, 0.8330008, 0.19235368, -0.45832437, 0.2430052, 12.115930557250977, 0.8670894503593445, 6.419670581817627, -14.659117698669434, 1.9731018543243408, -9.85037899017334, 
496, 1221745569, 0.83376044, 0.19046032, -0.4589721, 0.2406568, 11.904417037963867, 0.5180399417877197, 6.382306098937988, -18.313791275024414, -3.531733751296997, -7.075639724731445, 
497, 1221762236, 0.8342639, 0.18902668, -0.45950752, 0.23901446, 11.16810417175293, 0.2566671669483185, 5.885796070098877, -12.919240951538086, -3.5216784477233887, -4.2127604484558105, 
498, 1221778903, 0.83429676, 0.18870015, -0.45993617, 0.23833221, 10.231731414794922, 0.28065958619117737, 5.570457935333252, -2.7386574745178223, -4.955807685852051, -1.5814114809036255, 
499, 1221795570, 0.8338873, 0.1892928, -0.46043357, 0.23833515, 9.289175987243652, 0.6096924543380737, 5.558050632476807, 5.162215232849121, -7.358780384063721, 0.24139977991580963, 
500, 1221812237, 0.8334424, 0.1901567, -0.46064934, 0.23878649, 8.597821235656738, 0.9405196905136108, 5.428732872009277, 8.652880668640137, -5.714278221130371, 1.643682599067688, 
501, 1221828904, 0.83334196, 0.19081764, -0.46019197, 0.23949113, 8.15466594696045, 1.1498225927352905, 5.019967555999756, 8.94741439819336, -0.1047111377120018, 2.2911462783813477, 
502, 1221845571, 0.83357483, 0.191304, -0.45920202, 0.24019074, 7.825292110443115, 1.2429187297821045, 4.706639289855957, 8.35392951965332, 4.280075550079346, 1.559852123260498, 
503, 1221862238, 0.8339689, 0.19170846, -0.45813888, 0.24053076, 7.664758205413818, 1.2199174165725708, 4.640554904937744, 6.675260066986084, 4.875288963317871, -0.5897517204284668, 
504, 1221878905, 0.8344033, 0.19209349, -0.45722795, 0.24044995, 7.7323079109191895, 1.0046921968460083, 4.545144557952881, 4.923248767852783, 3.607062578201294, -2.8088109493255615, 
505, 1221895572, 0.8346934, 0.19261035, -0.4565536, 0.24031122, 7.94404935836792, 0.7426431775093079, 4.436576843261719, 5.305108070373535, 1.5048742294311523, -2.9988951683044434, 
506, 1221912239, 0.83471817, 0.19334549, -0.45608792, 0.24051875, 8.230348587036133, 0.5977848768234253, 4.429348468780518, 7.623237609863281, -0.42485713958740234, -1.0017319917678833, 
507, 1221928906, 0.8344039, 0.1942983, -0.4558872, 0.24122064, 8.321544647216797, 0.5870298147201538, 4.616810321807861, 10.460411071777344, -2.7003417015075684, 2.0745911598205566, 
508, 1221945573, 0.8338096, 0.19509152, -0.45611575, 0.24220124, 8.328787803649902, 0.6162591576576233, 4.6714582443237305, 10.086503028869629, -5.397039890289307, 5.207358360290527, 
509, 1221962240, 0.8330946, 0.19551522, -0.4567332, 0.24315421, 8.287782669067383, 0.7085132002830505, 4.687253952026367, 7.388576030731201, -7.42272424697876, 6.920836925506592, 
510, 1221978907, 0.83244056, 0.19565317, -0.45740455, 0.24401909, 8.36072063446045, 0.7512224316596985, 4.577569484710693, 5.302357196807861, -7.175266742706299, 7.279170989990234, 
511, 1221995574, 0.83209085, 0.19506674, -0.45803925, 0.2444912, 8.438745498657227, 0.7057493925094604, 4.74473237991333, -0.43597307801246643, -5.316807746887207, 6.739560604095459, 
512, 1222012241, 0.8319456, 0.19428837, -0.45854586, 0.24465549, 8.452474594116211, 0.6478701233863831, 4.8603835105896, -2.5213725566864014, -4.020638465881348, 5.086427211761475, 
513, 1222028908, 0.8317145, 0.19401675, -0.45901555, 0.24477598, 8.617658615112305, 0.7251436114311218, 4.930013179779053, 0.3986104726791382, -4.990397930145264, 3.317216634750366, 
514, 1222045575, 0.83130246, 0.19414803, -0.45958275, 0.24500664, 8.78402328491211, 0.7782105207443237, 5.1038336753845215, 3.133739948272705, -6.645683288574219, 3.109689474105835, 
515, 1222062242, 0.83080465, 0.19430599, -0.46025452, 0.24530889, 8.936650276184082, 0.8066543936729431, 5.076596260070801, 3.455538272857666, -7.461218357086182, 3.718273401260376, 
516, 1222078909, 0.83037764, 0.19445874, -0.46074843, 0.24570614, 8.899455070495605, 0.7031908631324768, 5.024312496185303, 3.9262616634368896, -6.082960605621338, 3.9135196208953857, 
517, 1222095576, 0.829893, 0.19471788, -0.46131083, 0.24608263, 8.729364395141602, 0.6711668968200684, 5.045041084289551, 4.410252094268799, -6.862610340118408, 3.6312410831451416, 
518, 1222112243, 0.8293713, 0.19496043, -0.46194685, 0.2464558, 8.618033409118652, 0.71454918384552, 4.987960338592529, 4.2386474609375, -7.374032974243164, 3.825962543487549, 
519, 1222128910, 0.8288676, 0.19522136, -0.46249545, 0.24691434, 8.576486587524414, 0.7740187644958496, 5.043340682983398, 4.7479424476623535, -6.732024192810059, 4.108559608459473, 
520, 1222145577, 0.828431, 0.19554405, -0.46285355, 0.247453, 8.661550521850586, 0.8113340139389038, 4.976388454437256, 5.585132122039795, -5.430219650268555, 3.9943902492523193, 
521, 1222162244, 0.828031, 0.19597849, -0.46306175, 0.24805772, 8.703749656677246, 0.7992183566093445, 4.903285980224609, 6.631744384765625, -4.56118106842041, 3.7457427978515625, 
522, 1222178911, 0.82765436, 0.19638318, -0.4632669, 0.24861147, 8.680225372314453, 0.7993153929710388, 4.8300652503967285, 6.283884525299072, -4.483138561248779, 3.5113608837127686, 
523, 1222195578, 0.82729876, 0.19670299, -0.46350902, 0.24909033, 8.5864896774292, 0.823884129524231, 4.824604511260986, 5.501147747039795, -4.575973033905029, 3.383643627166748, 
524, 1222212245, 0.8269264, 0.19692157, -0.46387973, 0.24946281, 8.524389266967773, 0.77182537317276, 4.77600622177124, 4.356630802154541, -5.332071781158447, 3.2835614681243896, 
525, 1222228912, 0.8265277, 0.19703071, -0.46440297, 0.24972525, 8.427314758300781, 0.7312743067741394, 4.966982364654541, 3.1631176471710205, -6.242398738861084, 3.2604970932006836, 
526, 1222245579, 0.82624465, 0.19710852, -0.46474823, 0.2499574, 8.470552444458008, 0.6894094944000244, 4.824801445007324, 3.0586435794830322, -4.846455097198486, 2.7570154666900635, 
527, 1222262246, 0.8260891, 0.19715892, -0.46486205, 0.25021982, 8.486193656921387, 0.6461820006370544, 4.776922702789307, 3.220233917236328, -3.0365586280822754, 2.4786181449890137, 
528, 1222278913, 0.8259341, 0.19724655, -0.464996, 0.2504136, 8.353693008422852, 0.6378623247146606, 4.757105350494385, 3.184030294418335, -3.3029050827026367, 1.995306134223938, 
529, 1222295580, 0.8257847, 0.19726026, -0.4652705, 0.25038555, 8.175106048583984, 0.5931770205497742, 4.717940330505371, 1.788752794265747, -4.257491111755371, 1.1401751041412354, 
530, 1222312247, 0.8257071, 0.19716212, -0.4655882, 0.2501277, 8.025233268737793, 0.5693543553352356, 4.627711296081543, 0.24406342208385468, -4.391931533813477, 0.12228783965110779, 
531, 1222328914, 0.82574594, 0.19697882, -0.46583614, 0.24968183, 7.948076248168945, 0.5490211844444275, 4.630448341369629, -0.8645504117012024, -3.7303812503814697, -0.9634026885032654, 
532, 1222345581, 0.82579195, 0.19677925, -0.46616802, 0.24906678, 7.974610328674316, 0.5313961505889893, 4.759448051452637, -1.6627445220947266, -4.386655330657959, -1.7804474830627441, 
533, 1222362248, 0.8258537, 0.19649424, -0.46656916, 0.24833518, 8.133379936218262, 0.4581908881664276, 4.805239677429199, -2.596263885498047, -4.734872817993164, -2.0710368156433105, 
534, 1222378915, 0.82589954, 0.19622423, -0.46692446, 0.24772803, 8.307872772216797, 0.3364976942539215, 4.799973011016846, -2.125476598739624, -4.39754056930542, -1.516777753829956, 
535, 1222395582, 0.8258989, 0.19599177, -0.46724927, 0.24730124, 8.366778373718262, 0.25552693009376526, 4.765786170959473, -1.1182825565338135, -4.183213233947754, -0.5268852710723877, 
536, 1222412249, 0.8258009, 0.19579153, -0.46764877, 0.24703185, 8.227119445800781, 0.2767921984195709, 4.7296462059021, -0.3950183391571045, -4.75824499130249, 0.5373289585113525, 
537, 1222428916, 0.82561284, 0.1956537, -0.46812585, 0.24686582, 7.989834785461426, 0.34592947363853455, 4.6815972328186035, 0.2651298940181732, -5.45733118057251, 1.1635081768035889, 
538, 1222445583, 0.8253139, 0.1956663, -0.46871108, 0.24674477, 7.697329521179199, 0.3930230140686035, 4.654789447784424, 1.212748646736145, -6.626371383666992, 1.2527045011520386, 
539, 1222462250, 0.8249505, 0.19579935, -0.4693694, 0.24660335, 7.523748874664307, 0.46510639786720276, 4.688287258148193, 1.7221598625183105, -7.490607738494873, 0.9107750058174133, 
540, 1222478917, 0.82460576, 0.1959972, -0.47001562, 0.24636781, 7.39834451675415, 0.4764755368232727, 4.738574981689453, 1.8475981950759888, -7.595941543579102, 0.15224193036556244, 
541, 1222495584, 0.82435507, 0.19622882, -0.47052327, 0.24605347, 7.35468053817749, 0.46988645195961, 4.8173699378967285, 1.8521060943603516, -6.679634094238281, -0.7762634754180908, 
542, 1222512251, 0.8242892, 0.19636215, -0.47080767, 0.24562317, 7.343766212463379, 0.507445752620697, 4.826966762542725, 1.0407593250274658, -4.813644886016846, -1.7380586862564087, 
543, 1222528918, 0.8243921, 0.1963488, -0.47094578, 0.24502307, 7.3211188316345215, 0.4885086715221405, 4.815952777862549, -0.2762521207332611, -3.4220805168151855, -2.6874828338623047, 
544, 1222545585, 0.8246456, 0.1963629, -0.47082722, 0.24438588, 7.241889476776123, 0.6054133772850037, 4.7280378341674805, -0.16983143985271454, -1.6005057096481323, -3.6769919395446777, 
545, 1222562252, 0.82504696, 0.19621718, -0.47051167, 0.24375467, 7.19504451751709, 0.5160459876060486, 4.720545291900635, -0.8088170886039734, 0.2790759801864624, -3.5804443359375, 
546, 1222578919, 0.82569724, 0.19552228, -0.47004646, 0.24300814, 7.187849998474121, 0.27498874068260193, 4.676088333129883, -4.286561012268066, 2.7025625705718994, -3.0271716117858887, 
547, 1222595586, 0.82632375, 0.19485544, -0.46956313, 0.24234739, 7.15496301651001, 0.08420070260763168, 4.820433139801025, -3.6384191513061523, 2.80875301361084, -2.539710760116577, 
548, 1222612253, 0.8268274, 0.19436203, -0.4690691, 0.24198215, 7.227009296417236, 0.05139870196580887, 4.8421854972839355, -1.731091856956482, 2.5469908714294434, -1.3592338562011719, 
549, 1222628920, 0.827157, 0.19403043, -0.4686164, 0.24199902, 7.404383659362793, 0.10132531821727753, 4.933704376220703, 0.6094542741775513, 1.9879298210144043, 0.6397027969360352, 
550, 1222645587, 0.82750136, 0.1938472, -0.4678818, 0.24238971, 7.647815227508545, 0.0854935348033905, 4.88703727722168, 3.1345725059509277, 3.8877651691436768, 1.8931888341903687, 
551, 1222662254, 0.82783234, 0.19382548, -0.46700072, 0.2429757, 7.773688316345215, 0.04848922789096832, 4.882259845733643, 4.90357780456543, 4.659475803375244, 2.2799148559570312, 
552, 1222678921, 0.82805645, 0.19377847, -0.4663122, 0.24357088, 7.8856401443481445, 0.16369977593421936, 4.980484962463379, 4.6485137939453125, 3.275954484939575, 2.8605549335479736, 
553, 1222695588, 0.82826895, 0.19347012, -0.4657147, 0.2442362, 7.896053791046143, 0.2363101989030838, 5.064868927001953, 3.2290573120117188, 3.245487928390503, 4.2191162109375, 
554, 1222712255, 0.82855487, 0.19295692, -0.4649707, 0.24508768, 8.054184913635254, 0.3076784014701843, 5.159470081329346, 2.802798271179199, 4.901387691497803, 5.607619762420654, 
555, 1222728922, 0.8290998, 0.19226354, -0.46365273, 0.24628411, 8.613312721252441, 0.559424102306366, 5.317779541015625, 3.6007118225097656, 9.767229080200195, 7.000812530517578, 
556, 1222745589, 0.82993877, 0.19137028, -0.46170405, 0.2478103, 9.658262252807617, 0.9431952834129333, 5.789578437805176, 4.118404865264893, 15.064067840576172, 8.140792846679688, 
557, 1222762256, 0.83084357, 0.19066326, -0.45940968, 0.24958067, 10.783690452575684, 1.275312900543213, 6.216371536254883, 6.495927810668945, 17.25321388244629, 8.398634910583496, 
558, 1222778923, 0.8315228, 0.19040875, -0.45739916, 0.25120038, 11.404227256774902, 1.6816798448562622, 5.986809253692627, 8.364130020141602, 13.941838264465332, 6.843259334564209, 
559, 1222795590, 0.83160156, 0.19051087, -0.45660356, 0.25230792, 10.796906471252441, 1.8226114511489868, 5.4768171310424805, 7.465963840484619, 3.8300862312316895, 5.423106670379639, 
560, 1222812257, 0.83095837, 0.1909984, -0.45727524, 0.25284165, 9.978419303894043, 1.7089991569519043, 5.004171371459961, 6.304248332977295, -8.23034381866455, 4.139616012573242, 
561, 1222828924, 0.8299447, 0.19200614, -0.45845023, 0.25327915, 9.386187553405762, 1.4114001989364624, 4.4627203941345215, 8.544123649597168, -13.294700622558594, 3.2472705841064453, 
562, 1222845591, 0.8284245, 0.19369113, -0.46019694, 0.25380483, 8.824104309082031, 1.1513640880584717, 4.417324542999268, 12.374390602111816, -19.20087242126465, 3.268712043762207, 
563, 1222862258, 0.8267795, 0.19586244, -0.46185794, 0.25448498, 8.76037311553955, 1.1640821695327759, 4.370041847229004, 15.9700927734375, -19.740528106689453, 2.731510877609253, 
564, 1222878925, 0.8255156, 0.19823955, -0.46257037, 0.2554514, 10.173866271972656, 1.7517296075820923, 4.768903732299805, 19.159204483032227, -13.108519554138184, 1.7461744546890259, 
565, 1222895592, 0.824522, 0.20123327, -0.46219617, 0.2569918, 12.881529808044434, 2.0727291107177734, 6.156006336212158, 26.0139217376709, -6.37074613571167, 1.09248685836792, 
566, 1222912259, 0.82378125, 0.20420918, -0.4613032, 0.25861943, 13.38425064086914, 2.3650875091552734, 6.288043975830078, 26.747753143310547, -2.4623918533325195, 0.48668086528778076, 
567, 1222928926, 0.8228566, 0.20617509, -0.4617958, 0.259124, 12.081164360046387, 2.7961437702178955, 6.054305076599121, 15.257643699645996, -10.660395622253418, -0.38705316185951233, 
568, 1222945593, 0.82290053, 0.20676808, -0.4615019, 0.2590355, 11.406177520751953, 2.646862745285034, 5.347745895385742, 5.6286091804504395, -1.5212727785110474, -2.2074244022369385, 
569, 1222962260, 0.82340044, 0.20711905, -0.46063644, 0.25870734, 10.169210433959961, 2.014171838760376, 4.865246772766113, 3.8663268089294434, 3.2608296871185303, -4.404238224029541, 
570, 1222978927, 0.8235875, 0.20772326, -0.46046102, 0.2579383, 9.077824592590332, 1.5350213050842285, 4.949310779571533, 3.1268372535705566, -2.7034528255462646, -6.147695541381836, 
571, 1222995594, 0.8237711, 0.20822842, -0.4604464, 0.25696927, 8.36544132232666, 1.1005542278289795, 4.901376724243164, 1.6210792064666748, -3.7355167865753174, -6.743600845336914, 
572, 1223012261, 0.8241519, 0.20852873, -0.46020293, 0.2559388, 7.941911220550537, 0.7200536727905273, 4.701160907745361, 0.4055514931678772, -1.5400469303131104, -7.107876777648926, 
573, 1223028928, 0.82454747, 0.20877804, -0.4598056, 0.25517404, 7.767897129058838, 0.5507844686508179, 4.498413562774658, 1.156708002090454, -0.1591893583536148, -5.720449447631836, 
574, 1223045595, 0.82480556, 0.2088302, -0.45940542, 0.2550183, 7.790161609649658, 0.608450710773468, 4.359492778778076, 2.1881184577941895, 0.6454784274101257, -1.4004191160202026, 
575, 1223062262, 0.8250089, 0.20846651, -0.45890084, 0.25556543, 8.000589370727539, 0.7305655479431152, 4.198369979858398, 2.3179752826690674, 2.805807590484619, 3.8441081047058105, 
576, 1223078929, 0.8252876, 0.20778432, -0.45814034, 0.2565843, 8.179046630859375, 1.0319366455078125, 4.053160190582275, 2.329834222793579, 5.732341289520264, 7.015908718109131, 
577, 1223095596, 0.82548153, 0.2074595, -0.45736143, 0.25761095, 8.388428688049316, 1.3293546438217163, 4.11561918258667, 4.5643510818481445, 4.962449550628662, 6.075270652770996, 
578, 1223112263, 0.8254123, 0.20820698, -0.45675334, 0.25830826, 8.655292510986328, 1.440822720527649, 4.340011119842529, 9.68995189666748, 0.8032912611961365, 1.549850344657898, 
579, 1223128930, 0.82511437, 0.21004698, -0.4562805, 0.25860563, 8.735444068908691, 1.547836422920227, 4.579472064971924, 14.720592498779297, -3.188944101333618, -3.5451784133911133, 
580, 1223145597, 0.82479537, 0.21226622, -0.45588097, 0.2585158, 8.716158866882324, 1.7147750854492188, 4.766020774841309, 15.562920570373535, -4.8975701332092285, -6.7805280685424805, 
581, 1223162264, 0.82452255, 0.21453689, -0.4552693, 0.2585899, 8.709434509277344, 1.9113070964813232, 4.6868085861206055, 16.677919387817383, -3.3995327949523926, -6.3956708908081055, 
582, 1223178931, 0.8243557, 0.21605642, -0.4547354, 0.25879607, 8.694812774658203, 1.9749311208724976, 4.823416709899902, 12.52471923828125, -1.9758095741271973, -3.367924451828003, 
583, 1223195598, 0.8242873, 0.21674335, -0.45441818, 0.25899678, 8.47962474822998, 1.8646224737167358, 4.952721118927002, 7.231696605682373, -1.4242265224456787, -0.6537451148033142, 
584, 1223212265, 0.82413656, 0.21722934, -0.45435053, 0.25918815, 8.284579277038574, 1.710084080696106, 4.9028000831604, 5.809818744659424, -2.7419354915618896, 0.4860009551048279, 
585, 1223228932, 0.8239191, 0.21773897, -0.4543045, 0.2595321, 8.251317024230957, 1.4573007822036743, 4.978443622589111, 6.417211055755615, -2.8976223468780518, 1.397544264793396, 
586, 1223245599, 0.8236268, 0.2183029, -0.45425943, 0.2600648, 8.234718322753906, 1.2319897413253784, 5.218166351318359, 7.452195644378662, -2.948284387588501, 2.4508543014526367, 
587, 1223262266, 0.8234425, 0.2188136, -0.45394516, 0.26076734, 8.30019760131836, 1.0816537141799927, 5.181046962738037, 8.009772300720215, -0.7395989298820496, 2.9876327514648438, 
588, 1223278933, 0.82334715, 0.21929426, -0.45337582, 0.26165342, 8.483731269836426, 1.0991908311843872, 5.039755821228027, 8.764744758605957, 1.313060998916626, 3.591029644012451, 
589, 1223295600, 0.82318425, 0.21972477, -0.4528416, 0.26272756, 8.555647850036621, 1.2091563940048218, 4.973433017730713, 9.122746467590332, 1.2787913084030151, 4.994747161865234, 
590, 1223312267, 0.8228446, 0.21997304, -0.4527147, 0.26380014, 8.393099784851074, 1.3561245203018188, 5.0275774002075195, 7.550076007843018, -1.259139895439148, 6.4489850997924805, 
591, 1223328934, 0.82250357, 0.21991746, -0.4528138, 0.26473805, 8.273587226867676, 1.3939608335494995, 5.029603481292725, 5.048418045043945, -2.190046548843384, 7.0037946701049805, 
592, 1223345601, 0.82225126, 0.21973044, -0.45283675, 0.26563632, 8.25753116607666, 1.3514460325241089, 5.033939361572266, 4.140421390533447, -1.3118889331817627, 6.8878326416015625, 
593, 1223362268, 0.82207793, 0.21945676, -0.45280996, 0.26644346, 8.328900337219238, 1.4101756811141968, 5.144486427307129, 3.369555950164795, -0.7619842886924744, 6.442939281463623, 
594, 1223378935, 0.82192034, 0.21907915, -0.4528864, 0.26711002, 8.498417854309082, 1.4943965673446655, 5.224493503570557, 2.092698812484741, -1.3267701864242554, 6.0799055099487305, 
595, 1223395602, 0.8217448, 0.21860361, -0.45309302, 0.26768833, 8.616461753845215, 1.5650838613510132, 5.236057758331299, 1.038403034210205, -2.075212001800537, 6.109654426574707, 
596, 1223412269, 0.82153034, 0.21802709, -0.453436, 0.26823518, 8.571724891662598, 1.500834584236145, 5.168928146362305, 0.15854264795780182, -2.8331046104431152, 6.5157952308654785, 
597, 1223428936, 0.82130724, 0.21736056, -0.4539072, 0.26866162, 8.380855560302734, 1.393126130104065, 5.2057294845581055, -0.9393779039382935, -3.59824538230896, 6.33437967300415, 
598, 1223445603, 0.8211459, 0.21681568, -0.45422298, 0.26906127, 8.149140357971191, 1.2479016780853271, 5.010595321655273, -0.06861002743244171, -2.7856950759887695, 5.500263690948486, 
599, 1223462270, 0.820964, 0.21651213, -0.45441926, 0.26952899, 7.974618434906006, 1.1863934993743896, 4.973911762237549, 1.7597846984863281, -2.522357702255249, 4.992965221405029, 
600, 1223478937, 0.8206905, 0.21649279, -0.4545717, 0.27011967, 7.949014663696289, 1.1933141946792603, 4.972891807556152, 3.8567354679107666, -2.9218525886535645, 4.842209815979004, 
601, 1223495604, 0.82034934, 0.21661843, -0.45466468, 0.2708971, 8.007501602172852, 1.158431053161621, 4.904858589172363, 5.6375603675842285, -2.7693798542022705, 5.577819347381592, 
602, 1223512271, 0.8199969, 0.21673542, -0.45466006, 0.27187672, 8.172507286071777, 1.117655634880066, 4.921647071838379, 6.246260166168213, -1.961926817893982, 6.523799419403076, 
603, 1223528938, 0.81966096, 0.2167375, -0.45460266, 0.2729821, 8.27490234375, 1.0887296199798584, 4.98658561706543, 6.062284469604492, -1.2132418155670166, 7.480575084686279, 
604, 1223545605, 0.8192821, 0.21675293, -0.45451438, 0.27425116, 8.315502166748047, 1.0396442413330078, 4.97270393371582, 6.72365665435791, -0.960547149181366, 8.369709014892578, 
605, 1223562272, 0.8187509, 0.21697956, -0.45441765, 0.27581376, 8.298604011535645, 0.9687815308570862, 4.842926025390625, 9.131367683410645, -1.3444689512252808, 9.670348167419434, 
606, 1223578939, 0.8180383, 0.21735801, -0.45438144, 0.27768347, 8.238329887390137, 0.9454958438873291, 4.685495376586914, 11.177955627441406, -2.0714099407196045, 11.402412414550781, 
607, 1223595606, 0.8171601, 0.21780963, -0.4544491, 0.27979663, 8.15806770324707, 0.9841904640197754, 4.5440826416015625, 12.35269832611084, -2.9530386924743652, 12.986613273620605, 
608, 1223612273, 0.81616694, 0.21826312, -0.45463496, 0.2820312, 8.155529022216797, 1.0360281467437744, 4.550854206085205, 12.772031784057617, -3.786233901977539, 14.109734535217285, 
609, 1223628940, 0.81504405, 0.2187341, -0.45499516, 0.2843234, 8.339451789855957, 1.070658564567566, 4.740304470062256, 12.903850555419922, -5.116265773773193, 14.890732765197754, 
610, 1223645607, 0.8138303, 0.21919379, -0.45550334, 0.28662273, 8.623529434204102, 1.2180768251419067, 4.951549530029297, 12.65205192565918, -6.202322959899902, 15.334843635559082, 
611, 1223662274, 0.8126371, 0.21953534, -0.45607615, 0.2888271, 8.806058883666992, 1.4024008512496948, 5.071252346038818, 11.400935173034668, -6.425307750701904, 15.158310890197754, 
612, 1223678941, 0.8115918, 0.21954872, -0.4567066, 0.29075393, 8.749655723571777, 1.5221956968307495, 5.089666366577148, 8.474842071533203, -6.037643909454346, 14.499008178710938, 
613, 1223695608, 0.81081814, 0.21912047, -0.4573132, 0.29227802, 8.479209899902344, 1.484727382659912, 5.095796585083008, 4.438760757446289, -4.771592140197754, 13.096922874450684, 
614, 1223712275, 0.8103389, 0.21832556, -0.45783368, 0.29338494, 8.135261535644531, 1.3512717485427856, 5.127119541168213, 0.7949032187461853, -3.2600178718566895, 11.199004173278809, 
615, 1223728942, 0.8101343, 0.21729797, -0.45820674, 0.29412952, 7.833932876586914, 1.1848628520965576, 5.171177387237549, -1.7998496294021606, -1.6590054035186768, 9.119033813476562, 
616, 1223745609, 0.8102305, 0.21602634, -0.45839006, 0.2945156, 7.652770042419434, 1.0789577960968018, 5.212630271911621, -4.24181604385376, 0.3098112940788269, 7.065084934234619, 
617, 1223762276, 0.81060314, 0.21465896, -0.45826247, 0.2946881, 7.513469696044922, 1.1179269552230835, 5.053091049194336, -5.401930809020996, 2.76523756980896, 5.062389850616455, 
618, 1223778943, 0.81124806, 0.21321973, -0.4577218, 0.2947986, 7.427463054656982, 1.0868749618530273, 4.761192798614502, -5.194045066833496, 6.007665157318115, 3.9903571605682373, 
619, 1223795610, 0.81223875, 0.2112514, -0.45701715, 0.29458076, 7.31671142578125, 0.9396473169326782, 4.676401138305664, -9.696737289428711, 8.56537914276123, 2.6949057579040527, 
620, 1223812277, 0.81329525, 0.20936531, -0.45630464, 0.2941169, 7.141028881072998, 0.836100161075592, 4.645622730255127, -9.927162170410156, 8.302720069885254, 1.0110361576080322, 
621, 1223828944, 0.8141496, 0.20803484, -0.4556931, 0.29364455, 7.06424617767334, 0.7670852541923523, 4.632064342498779, -6.732089042663574, 5.967313289642334, -0.20807123184204102, 
622, 1223845611, 0.81479627, 0.20710903, -0.45515397, 0.29334134, 7.155151844024658, 0.7016932368278503, 4.8320465087890625, -3.933195114135742, 4.3182759284973145, -0.08952279388904572, 
623, 1223862278, 0.81551, 0.20629908, -0.4542886, 0.29327074, 7.3042802810668945, 0.6952353715896606, 4.92954158782959, -1.7764266729354858, 6.467732906341553, 0.37644273042678833, 
624, 1223878945, 0.8162713, 0.2056399, -0.45309016, 0.29346937, 7.416853904724121, 0.7826825380325317, 5.0523529052734375, 0.2909219264984131, 8.53708553314209, 0.7187950015068054, 
625, 1223895612, 0.81702477, 0.20504321, -0.45181745, 0.29375234, 7.547921180725098, 0.920941948890686, 5.149072170257568, 1.0471115112304688, 8.916461944580078, 0.8972899913787842, 
626, 1223912279, 0.81782377, 0.204348, -0.45052442, 0.2939988, 7.55665397644043, 0.9665820598602295, 5.167616844177246, 0.33687108755111694, 9.313100814819336, 0.8679889440536499, 
627, 1223928946, 0.8187692, 0.20356716, -0.44907054, 0.29413325, 7.40444278717041, 0.8933730125427246, 5.24978494644165, -0.2999056279659271, 10.688888549804688, 0.026547575369477272, 
628, 1223945613, 0.8198849, 0.20284843, -0.4473626, 0.29412472, 7.133340358734131, 0.7794623374938965, 5.423328876495361, -0.12771140038967133, 12.312108993530273, -1.6747575998306274, 
629, 1223962280, 0.82129145, 0.20200387, -0.44523484, 0.29401, 7.014583110809326, 0.7751105427742004, 5.375797271728516, -0.8371837735176086, 15.661269187927246, -3.1294326782226562, 
630, 1223978947, 0.82300365, 0.20098603, -0.44263443, 0.29384652, 7.2087531089782715, 0.814473032951355, 5.484105110168457, -1.4046602249145508, 19.542917251586914, -4.131187438964844, 
631, 1223995614, 0.8249712, 0.19985911, -0.43964282, 0.29358906, 7.653878688812256, 1.0270270109176636, 5.522877216339111, -1.8282828330993652, 22.621076583862305, -5.361459732055664, 
632, 1224012281, 0.82716805, 0.19855182, -0.4364944, 0.2929916, 8.37668514251709, 1.2492917776107788, 5.585770130157471, -3.866828441619873, 24.096982955932617, -7.41368293762207, 
633, 1224028948, 0.8295122, 0.19707198, -0.43338242, 0.29198155, 9.44790267944336, 1.2692382335662842, 5.8567352294921875, -6.357107162475586, 24.115825653076172, -9.483171463012695, 
634, 1224045615, 0.831559, 0.19596285, -0.4309514, 0.29050067, 10.356293678283691, 1.2892807722091675, 6.159648895263672, -6.589832782745361, 17.969451904296875, -11.736635208129883, 
635, 1224062282, 0.8330014, 0.19563575, -0.42958048, 0.2886129, 10.500166893005371, 1.2995282411575317, 5.767057418823242, -4.6672468185424805, 8.009995460510254, -13.768485069274902, 
636, 1224078949, 0.83387095, 0.19582184, -0.4293827, 0.28626072, 10.175440788269043, 1.23959219455719, 5.500898838043213, -4.643860816955566, -2.0320682525634766, -15.216867446899414, 
637, 1224095616, 0.83428717, 0.19664618, -0.42983484, 0.28379342, 9.62358283996582, 1.0216525793075562, 5.169791221618652, -2.0364105701446533, -8.500255584716797, -16.020769119262695, 
638, 1224112283, 0.8341771, 0.19822815, -0.43097228, 0.28128076, 9.106308937072754, 0.809688150882721, 5.152061462402344, 1.5997463464736938, -15.510686874389648, -16.53232765197754, 
639, 1224128950, 0.83398706, 0.19998714, -0.43215957, 0.27876627, 9.018260955810547, 0.7701804637908936, 5.263358116149902, 2.6375880241394043, -16.367013931274414, -16.838275909423828, 
640, 1224145617, 0.83390146, 0.20170881, -0.43290752, 0.2766125, 9.404638290405273, 0.7680330276489258, 5.600554943084717, 4.283205032348633, -12.95478630065918, -15.40888500213623, 
641, 1224162284, 0.8339196, 0.20298542, -0.43338054, 0.27487797, 9.83786392211914, 0.6667414903640747, 5.936071872711182, 3.2187252044677734, -9.653402328491211, -12.353047370910645, 
642, 1224178951, 0.83407843, 0.2034097, -0.4337269, 0.27353263, 10.163625717163086, 0.5822635889053345, 5.9139909744262695, -0.4342058300971985, -6.345913410186768, -8.011597633361816, 
643, 1224195618, 0.8343599, 0.2032198, -0.43376017, 0.27276188, 10.333355903625488, 0.42366456985473633, 5.6872758865356445, -1.8145381212234497, -2.217912435531616, -3.5533201694488525, 
644, 1224212285, 0.8344514, 0.2031047, -0.4336747, 0.27270377, 10.29690170288086, 0.33810293674468994, 5.590143203735352, 1.222865343093872, -1.2409160137176514, 0.48872870206832886, 
645, 1224228952, 0.8339864, 0.20353217, -0.4340844, 0.2731557, 10.119763374328613, 0.3847588002681732, 5.536858558654785, 5.772322654724121, -6.02854585647583, 3.56549334526062, 
646, 1224245619, 0.83288527, 0.20459084, -0.43517005, 0.27399522, 9.883487701416016, 0.5976331233978271, 5.561387538909912, 10.073958396911621, -12.449506759643555, 5.975705146789551, 
647, 1224262286, 0.83143324, 0.2059809, -0.43655306, 0.27516162, 9.5712308883667, 0.8825834393501282, 5.46294641494751, 12.91775894165039, -15.354649543762207, 7.950026988983154, 
648, 1224278953, 0.8298691, 0.20743018, -0.43801773, 0.27646416, 9.096782684326172, 1.043376088142395, 5.384585380554199, 13.64753246307373, -16.07503890991211, 8.862894058227539, 
649, 1224295620, 0.82841015, 0.20865269, -0.4394494, 0.2776451, 8.752982139587402, 1.1176764965057373, 5.195605278015137, 11.920989036560059, -15.304398536682129, 8.616585731506348, 
650, 1224312287, 0.8272266, 0.20957945, -0.44060984, 0.27863514, 8.562775611877441, 1.1101914644241333, 5.080742359161377, 9.814029693603516, -12.630769729614258, 7.529386520385742, 
651, 1224328954, 0.82628304, 0.21039717, -0.4415778, 0.27928564, 8.423262596130371, 1.067733645439148, 5.065536022186279, 8.265532493591309, -11.076958656311035, 5.237980842590332, 
652, 1224345621, 0.82550716, 0.21123412, -0.4424346, 0.2795923, 8.42084789276123, 0.9177692532539368, 4.935002326965332, 7.216883182525635, -10.479104042053223, 2.693305253982544, 
653, 1224362288, 0.8248182, 0.21220148, -0.44313994, 0.27977616, 8.5574312210083, 0.7548017501831055, 4.892446994781494, 7.731203079223633, -9.7853364944458, 1.2011016607284546, 
