sep=,
DeviceTag:,L Forearm - 10,,,,,,,,,,,,,,,,,
FirmwareVersion:,3.0.0,,,,,,,,,,,,,,,,,
AppVersion:,2023.6.1,,,,,,,,,,,,,,,,,
StartTime:,2024-05-23 12:04:51.000 +0200,,,,,,,,,,,,,,,,,
 2024,,,,,,,,,,,,,,,,,,,

PacketCounter,SampleTimeFine,Quat_W,Quat_X,Quat_Y,Quat_Z,Acc_X,Acc_Y,Acc_Z,Gyr_X,Gyr_Y,Gyr_Z,
0, 3413993622, 0.7085432, 0.39375472, -0.48136067, 0.33349028, 0.0, 0.0, 0.0, 0.0, 0.0, 0.0, 
1, 3414010289, 0.70883524, 0.39328834, -0.4816003, 0.33307374, 9.35183048248291, 2.313563108444214, 2.2707808017730713, -2.847299814224243, 0.16779519617557526, 1.446547508239746, 
2, 3414026956, 0.7090072, 0.39272353, -0.48160732, 0.3333639, 9.412748336791992, 2.276456117630005, 2.3036413192749023, -2.1985814571380615, 0.6791911721229553, 1.0176631212234497, 
3, 3414043623, 0.70904183, 0.39209145, -0.4815191, 0.3341607, 9.429317474365234, 2.2727675437927246, 2.261331081390381, -1.0490962266921997, 1.1241095066070557, 0.9610845446586609, 
4, 3414060290, 0.70894694, 0.39165267, -0.48157814, 0.33479086, 9.445538520812988, 2.3090994358062744, 2.274059772491455, 0.08232561498880386, 1.3881123065948486, 0.6831995248794556, 
5, 3414076957, 0.7090894, 0.3911445, -0.4817459, 0.3348423, 9.421202659606934, 2.314450740814209, 2.264758348464966, 0.22142818570137024, 1.785057783126831, 0.4019208550453186, 
6, 3414093624, 0.70913774, 0.39099666, -0.48164904, 0.33505163, 9.401494026184082, 2.2775065898895264, 2.2749879360198975, 0.7040355205535889, 2.116960287094116, 0.038886480033397675, 
7, 3414110291, 0.70910966, 0.3910658, -0.48136148, 0.33544332, 9.413785934448242, 2.2878880500793457, 2.2391586303710938, 1.0677998065948486, 2.2704057693481445, -0.4063710868358612, 
8, 3414126958, 0.70913106, 0.39112318, -0.48112646, 0.3356684, 9.426446914672852, 2.297236919403076, 2.2941644191741943, 0.9133937358856201, 2.3176867961883545, -0.7245449423789978, 
9, 3414143625, 0.7091911, 0.39116868, -0.4808485, 0.33588666, 9.397743225097656, 2.280719518661499, 2.2955667972564697, 0.4439769685268402, 2.3461296558380127, -0.8228720426559448, 
10, 3414160292, 0.7092479, 0.39120793, -0.48053488, 0.33616966, 9.386689186096191, 2.2360873222351074, 2.2855851650238037, 0.07156829535961151, 2.377466917037964, -0.6752916574478149, 
11, 3414176959, 0.7092278, 0.3912755, -0.4802037, 0.3366064, 9.394726753234863, 2.2503392696380615, 2.298931837081909, -0.0990443080663681, 2.246112108230591, -0.3209271728992462, 
12, 3414193626, 0.7092838, 0.39120767, -0.47998926, 0.33687276, 9.33017349243164, 2.201616048812866, 2.272888422012329, -0.19130127131938934, 2.116563081741333, -0.19346553087234497, 
13, 3414210293, 0.7093422, 0.39106938, -0.47984108, 0.33712158, 9.348666191101074, 2.1950523853302, 2.307401657104492, -0.45371612906455994, 1.9951459169387817, 0.09080341458320618, 
14, 3414226960, 0.70940566, 0.39084524, -0.47971314, 0.3374297, 9.383112907409668, 2.151529312133789, 2.3181076049804688, -0.8536456227302551, 2.166994571685791, 0.5978196263313293, 
15, 3414243627, 0.70937353, 0.39068457, -0.4795311, 0.33794194, 9.386679649353027, 2.120283842086792, 2.317533493041992, -0.2677679657936096, 2.273261308670044, 1.102530598640442, 
16, 3414260294, 0.70924073, 0.39059973, -0.47930917, 0.33863294, 9.397955894470215, 2.1554417610168457, 2.329737901687622, 0.4312090277671814, 2.262183904647827, 1.5462836027145386, 
17, 3414276961, 0.7091636, 0.39038458, -0.47915924, 0.33925456, 9.398189544677734, 2.1663293838500977, 2.359022378921509, -0.24034956097602844, 2.315958023071289, 1.8163566589355469, 
18, 3414293628, 0.7090937, 0.3901321, -0.4790026, 0.33991116, 9.372467041015625, 2.1324243545532227, 2.32169771194458, -0.21125353872776031, 2.522869825363159, 2.1413304805755615, 
19, 3414310295, 0.70897275, 0.38997766, -0.47882697, 0.34058762, 9.372520446777344, 2.1271793842315674, 2.290395975112915, 0.7731897830963135, 2.3515594005584717, 2.065760374069214, 
20, 3414326962, 0.70876586, 0.38992453, -0.4786239, 0.34136355, 9.377477645874023, 2.1875648498535156, 2.3549256324768066, 1.2186585664749146, 2.1365535259246826, 2.2064507007598877, 
21, 3414343629, 0.70861036, 0.38977027, -0.478506, 0.34202757, 9.3795804977417, 2.2453794479370117, 2.368054151535034, 0.37738391757011414, 1.8909534215927124, 2.3071341514587402, 
22, 3414360296, 0.70844287, 0.38959494, -0.47838014, 0.34274945, 9.38014030456543, 2.2175605297088623, 2.3430240154266357, -0.6864587068557739, 1.7887715101242065, 2.5317957401275635, 
23, 3414376963, 0.70833683, 0.38927516, -0.47837707, 0.34333545, 9.365682601928711, 2.18473482131958, 2.366431474685669, -1.0861835479736328, 1.6691222190856934, 2.952113628387451, 
24, 3414393630, 0.70817566, 0.3890125, -0.47836322, 0.34398463, 9.33642292022705, 2.204561471939087, 2.3105456829071045, -0.8160589933395386, 1.4728517532348633, 3.1544406414031982, 
25, 3414410297, 0.7080321, 0.38864458, -0.47850093, 0.34450385, 9.300688743591309, 2.250748872756958, 2.316943407058716, -1.2807118892669678, 0.939800500869751, 3.555549144744873, 
26, 3414426964, 0.70796, 0.3881184, -0.47878805, 0.34484613, 9.316873550415039, 2.2430529594421387, 2.3478212356567383, -2.0038866996765137, 0.6467207670211792, 3.87968373298645, 
27, 3414443631, 0.7076922, 0.38786542, -0.47882536, 0.3456276, 9.32097053527832, 2.1980462074279785, 2.374807119369507, -2.2390880584716797, 0.7879042625427246, 3.979118824005127, 
28, 3414460298, 0.7076652, 0.38730332, -0.47914267, 0.34587365, 9.349692344665527, 2.184762477874756, 2.3665401935577393, -1.315007209777832, 0.7752387523651123, 4.03235387802124, 
29, 3414476965, 0.707445, 0.38705248, -0.47921684, 0.3465014, 9.374025344848633, 2.2133920192718506, 2.316821575164795, -0.43423768877983093, 0.910038411617279, 3.969308614730835, 
30, 3414493632, 0.7073126, 0.38670573, -0.47935945, 0.34696168, 9.37310791015625, 2.2832205295562744, 2.3346152305603027, -0.4353519380092621, 1.0029102563858032, 3.8719942569732666, 
31, 3414510299, 0.7072099, 0.38631645, -0.4795188, 0.34738398, 9.387674331665039, 2.334890365600586, 2.35213303565979, -1.3794231414794922, 0.9273526072502136, 3.7746264934539795, 
32, 3414526966, 0.70718783, 0.38583422, -0.47971055, 0.34770024, 9.406731605529785, 2.2692291736602783, 2.368813991546631, -2.5421628952026367, 0.9732249975204468, 3.559403419494629, 
33, 3414543633, 0.70708627, 0.38556653, -0.47974214, 0.34815937, 9.385777473449707, 2.165919542312622, 2.3555748462677, -1.6111924648284912, 1.0962939262390137, 3.0776407718658447, 
34, 3414560300, 0.70689017, 0.38552848, -0.47963095, 0.34875244, 9.411077499389648, 2.1663477420806885, 2.340373992919922, 0.18423855304718018, 1.2108851671218872, 2.742166042327881, 
35, 3414576967, 0.7067583, 0.3854566, -0.47955585, 0.34920242, 9.363207817077637, 2.2167861461639404, 2.3651418685913086, 1.100110411643982, 1.3660086393356323, 2.5787572860717773, 
36, 3414593634, 0.7066738, 0.38529807, -0.4795464, 0.34956124, 9.335779190063477, 2.2622733116149902, 2.3624651432037354, 0.5052297115325928, 1.258524775505066, 2.6259868144989014, 
37, 3414610301, 0.7064537, 0.3852471, -0.47944525, 0.35020053, 9.308948516845703, 2.2672293186187744, 2.3496689796447754, -0.8194142580032349, 1.0038129091262817, 2.9124200344085693, 
38, 3414626968, 0.70639294, 0.38491443, -0.47960216, 0.3504736, 9.305459022521973, 2.2364425659179688, 2.345109224319458, -1.8395296335220337, 0.5590803623199463, 3.083493709564209, 
39, 3414643635, 0.7062561, 0.38463858, -0.47976205, 0.35083348, 9.301406860351562, 2.1694302558898926, 2.352464199066162, -1.991451382637024, 0.19194798171520233, 3.314584255218506, 
40, 3414660302, 0.7061093, 0.3843642, -0.48001158, 0.35108793, 9.336418151855469, 2.1438796520233154, 2.3876681327819824, -0.7146711945533752, -0.16521473228931427, 3.538362741470337, 
41, 3414676969, 0.7058456, 0.3842859, -0.48015222, 0.3515115, 9.311479568481445, 2.1365981101989746, 2.3812203407287598, 0.520917534828186, -0.24127160012722015, 3.493898630142212, 
42, 3414693636, 0.7055566, 0.3842849, -0.4802415, 0.3519707, 9.257309913635254, 2.220153331756592, 2.38620924949646, 0.9213082194328308, -0.23558562994003296, 3.268712043762207, 
43, 3414710303, 0.7053433, 0.38416982, -0.48043132, 0.35226467, 9.281652450561523, 2.3082497119903564, 2.3740198612213135, -0.33864474296569824, -0.58653724193573, 3.032069683074951, 
44, 3414726970, 0.70527905, 0.38384712, -0.48075643, 0.35230145, 9.257330894470215, 2.31740665435791, 2.4112043380737305, -3.0415596961975098, -0.9575181603431702, 2.488856792449951, 
45, 3414743637, 0.7052687, 0.38343656, -0.48107606, 0.35233295, 9.252098083496094, 2.1937437057495117, 2.446082830429077, -5.031538963317871, -0.8720356822013855, 2.299604654312134, 
46, 3414760304, 0.70526373, 0.3830812, -0.4813753, 0.35232052, 9.249595642089844, 2.0902040004730225, 2.3879599571228027, -3.481265068054199, -0.7343801259994507, 2.2106127738952637, 
47, 3414776971, 0.7050792, 0.3830508, -0.48150858, 0.35254067, 9.300790786743164, 2.1471340656280518, 2.399616003036499, -0.585442304611206, -0.7758471965789795, 2.170849323272705, 
48, 3414793638, 0.7048974, 0.3830212, -0.48161232, 0.35279447, 9.327750205993652, 2.2554879188537598, 2.475719928741455, -0.34655267000198364, -0.532321572303772, 2.268331289291382, 
49, 3414810305, 0.7047741, 0.38294557, -0.48168695, 0.35302112, 9.312806129455566, 2.2666752338409424, 2.4054548740386963, -0.9500390887260437, -0.22365009784698486, 2.0446810722351074, 
50, 3414826972, 0.70468396, 0.38285878, -0.48177794, 0.35317105, 9.379682540893555, 2.25628924369812, 2.4219653606414795, -1.1181479692459106, -0.3162912428379059, 1.7707018852233887, 
51, 3414843639, 0.7046462, 0.38279247, -0.48181754, 0.3532643, 9.378104209899902, 2.2411818504333496, 2.405552625656128, -0.9360289573669434, -0.03920023888349533, 1.2605611085891724, 
52, 3414860306, 0.7045623, 0.38289127, -0.48168722, 0.35350206, 9.345743179321289, 2.253950595855713, 2.4356136322021484, -0.5911411643028259, 0.30110931396484375, 0.720888614654541, 
53, 3414876973, 0.70463073, 0.38283896, -0.48164394, 0.3534814, 9.34106159210205, 2.262439250946045, 2.4643657207489014, -1.0727494955062866, 0.4211175739765167, 0.28825172781944275, 
54, 3414893640, 0.70476633, 0.3826954, -0.48162425, 0.3533934, 9.383691787719727, 2.2335093021392822, 2.4844117164611816, -2.019062042236328, 0.5484127402305603, 0.17083030939102173, 
55, 3414910307, 0.70489466, 0.38253602, -0.48158935, 0.35335752, 9.408912658691406, 2.116544008255005, 2.495830535888672, -2.4187607765197754, 0.6464709043502808, 0.3223550319671631, 
56, 3414926974, 0.70509505, 0.38225326, -0.48163578, 0.35320055, 9.433178901672363, 2.0613489151000977, 2.522573232650757, -2.148777484893799, 0.8026572465896606, 0.5961036682128906, 
57, 3414943641, 0.7051724, 0.38214788, -0.481498, 0.35334766, 9.444855690002441, 2.032297134399414, 2.526042938232422, -1.6869869232177734, 1.188698172569275, 0.7173860669136047, 
58, 3414960308, 0.70516425, 0.38216347, -0.48123944, 0.35369912, 9.386500358581543, 2.035745859146118, 2.494387149810791, -1.670466661453247, 1.3490848541259766, 0.7186923623085022, 
59, 3414976975, 0.7053589, 0.38193884, -0.4811289, 0.3537039, 9.372549057006836, 2.054203987121582, 2.4589712619781494, -2.1517486572265625, 1.5330227613449097, 0.4118138551712036, 
60, 3414993642, 0.7056082, 0.38164833, -0.48104483, 0.3536348, 9.367579460144043, 2.042414903640747, 2.4682600498199463, -2.9193482398986816, 1.5489343404769897, 0.19367679953575134, 
61, 3415010309, 0.70586884, 0.38135946, -0.48094505, 0.35356206, 9.377782821655273, 2.033661365509033, 2.4495232105255127, -3.2737834453582764, 1.5719795227050781, -0.00606380682438612, 
62, 3415026976, 0.7061419, 0.38105288, -0.48085815, 0.35346553, 9.382669448852539, 2.0121419429779053, 2.3932247161865234, -3.034003257751465, 1.628231167793274, 0.048311952501535416, 
63, 3415043643, 0.70638305, 0.38076258, -0.48079902, 0.35337728, 9.377799987792969, 2.030946731567383, 2.398561716079712, -2.5306499004364014, 1.45731782913208, 0.2679920494556427, 
64, 3415060310, 0.70652306, 0.3805509, -0.48068646, 0.35347828, 9.395490646362305, 2.081613540649414, 2.396947145462036, -2.216087818145752, 1.4698424339294434, 0.7360002398490906, 
65, 3415076977, 0.7067245, 0.3802032, -0.48067918, 0.35345984, 9.425067901611328, 2.1179449558258057, 2.386579751968384, -2.5935676097869873, 1.4159916639328003, 1.0137697458267212, 
66, 3415093644, 0.706907, 0.37985206, -0.48069122, 0.35345584, 9.403740882873535, 2.1183700561523438, 2.3539671897888184, -2.959688186645508, 1.2352941036224365, 1.0869452953338623, 
67, 3415110311, 0.70707524, 0.37951815, -0.48073038, 0.3534249, 9.369546890258789, 2.1275722980499268, 2.346616268157959, -2.977437973022461, 0.9634280800819397, 1.0093133449554443, 
68, 3415126978, 0.70713276, 0.3793159, -0.4807219, 0.35353863, 9.367008209228516, 2.1229074001312256, 2.345958948135376, -3.038191080093384, 0.5742430686950684, 1.0093132257461548, 
69, 3415143645, 0.7072147, 0.3790816, -0.48077515, 0.35355303, 9.368727684020996, 2.0877623558044434, 2.361112356185913, -2.6828532218933105, 0.40742120146751404, 1.0152488946914673, 
70, 3415160312, 0.70724314, 0.3789134, -0.48078957, 0.3536567, 9.33621597290039, 2.0871052742004395, 2.3648641109466553, -2.074052572250366, 0.4521090090274811, 1.1968367099761963, 
71, 3415176979, 0.70725316, 0.37875974, -0.48083922, 0.3537343, 9.3247709274292, 2.0932393074035645, 2.388057231903076, -2.0661511421203613, 0.14154218137264252, 1.1742974519729614, 
72, 3415193646, 0.70734185, 0.37846085, -0.48100045, 0.3536573, 9.31583023071289, 2.1031999588012695, 2.393559455871582, -2.9294652938842773, -0.013536310754716396, 1.2255356311798096, 
73, 3415210313, 0.70743036, 0.3781018, -0.48122215, 0.35356286, 9.307393074035645, 2.047346591949463, 2.3598055839538574, -3.3111584186553955, -0.1770734041929245, 1.5317481756210327, 
74, 3415226980, 0.7074001, 0.3778586, -0.4814234, 0.35360974, 9.36668586730957, 2.034940481185913, 2.3828444480895996, -2.6627092361450195, -0.5237540602684021, 1.8726022243499756, 
75, 3415243647, 0.70735514, 0.37758368, -0.48163763, 0.3537015, 9.403141021728516, 2.064805030822754, 2.4462697505950928, -2.9959492683410645, -0.5029245615005493, 2.1752352714538574, 
76, 3415260314, 0.70734537, 0.37725466, -0.48185366, 0.3537778, 9.400603294372559, 2.0272815227508545, 2.4580283164978027, -2.7737531661987305, -0.17528051137924194, 2.3667287826538086, 
77, 3415276981, 0.7072761, 0.37707862, -0.48194724, 0.3539763, 9.427458763122559, 2.0017685890197754, 2.48403000831604, -1.1411994695663452, 0.17772012948989868, 2.2863881587982178, 
78, 3415293648, 0.7072119, 0.37698963, -0.48194006, 0.3542092, 9.423906326293945, 2.059849739074707, 2.467000722885132, 0.054689519107341766, 0.6433205604553223, 2.0015621185302734, 
79, 3415310315, 0.7072044, 0.3768561, -0.48192155, 0.35439125, 9.366397857666016, 2.1198880672454834, 2.43697190284729, -0.41281265020370483, 0.8735979199409485, 1.7450828552246094, 
80, 3415326982, 0.7072114, 0.37673163, -0.48187825, 0.35456827, 9.321938514709473, 2.120633363723755, 2.444329023361206, -1.4461826086044312, 0.7923353314399719, 1.313079833984375, 
81, 3415343649, 0.707304, 0.3764773, -0.48191935, 0.35459787, 9.384933471679688, 2.1021018028259277, 2.4451098442077637, -2.422179937362671, 0.7169186472892761, 1.1989624500274658, 
82, 3415360316, 0.70742244, 0.37618786, -0.48196197, 0.35461116, 9.398458480834961, 2.050229072570801, 2.463214159011841, -2.3371074199676514, 0.9164031744003296, 1.2866089344024658, 
83, 3415376983, 0.70741874, 0.37609673, -0.48187432, 0.3548342, 9.343664169311523, 2.0075795650482178, 2.4314141273498535, -1.1233088970184326, 0.9926264882087708, 1.3249512910842896, 
84, 3415393650, 0.70735335, 0.37609038, -0.48176688, 0.3551168, 9.338470458984375, 2.0835561752319336, 2.411651849746704, 0.1822023242712021, 0.9323598742485046, 1.5632262229919434, 
85, 3415410317, 0.7073422, 0.37599933, -0.4816944, 0.3553338, 9.322802543640137, 2.1441733837127686, 2.3917341232299805, -0.3378058671951294, 1.0511897802352905, 1.5805659294128418, 
86, 3415426984, 0.7073921, 0.3758365, -0.48164788, 0.3554701, 9.31948471069336, 2.1330907344818115, 2.4138402938842773, -0.9694534540176392, 1.1417948007583618, 1.4132767915725708, 
87, 3415443651, 0.70746416, 0.37571013, -0.48156285, 0.35557517, 9.310711860656738, 2.056781768798828, 2.3799872398376465, -0.9947202801704407, 1.211864709854126, 0.963972270488739, 
88, 3415460318, 0.7074333, 0.37578118, -0.48136964, 0.35582322, 9.349757194519043, 2.082510471343994, 2.361391305923462, 0.16776961088180542, 1.134303331375122, 0.7697705626487732, 
89, 3415476985, 0.70743597, 0.37582883, -0.48118097, 0.35602254, 9.377703666687012, 2.125544548034668, 2.3703320026397705, 0.2773663103580475, 1.2605609893798828, 0.6763737201690674, 
90, 3415493652, 0.70746905, 0.37581477, -0.48104915, 0.35614982, 9.358529090881348, 2.122903823852539, 2.35551118850708, 0.1456146091222763, 1.1821351051330566, 0.7850356698036194, 
91, 3415510319, 0.7074421, 0.37586436, -0.48087615, 0.3563845, 9.325407981872559, 2.116621494293213, 2.343695878982544, 0.34265953302383423, 1.174355149269104, 0.9513453841209412, 
92, 3415526986, 0.7073861, 0.37594232, -0.4807042, 0.35664535, 9.354293823242188, 2.1188032627105713, 2.3673250675201416, 0.6023467183113098, 1.077500581741333, 1.0620816946029663, 
93, 3415543653, 0.7073272, 0.37604758, -0.48051882, 0.35690102, 9.33711051940918, 2.107818126678467, 2.3765878677368164, 0.6716930270195007, 1.045689582824707, 0.9058571457862854, 
94, 3415560320, 0.7072286, 0.37622404, -0.48032743, 0.357168, 9.33771800994873, 2.1202993392944336, 2.338552713394165, 1.104515552520752, 0.7950501441955566, 0.7991738319396973, 
95, 3415576987, 0.7071613, 0.37636092, -0.48022282, 0.3572974, 9.365784645080566, 2.1542887687683105, 2.3458781242370605, 0.8423696160316467, 0.36279746890068054, 0.6053241491317749, 
96, 3415593654, 0.70711297, 0.37645906, -0.4801488, 0.35738924, 9.372444152832031, 2.1221067905426025, 2.354435682296753, 0.08364468812942505, 0.22304180264472961, 0.5088411569595337, 
97, 3415610321, 0.7070387, 0.37656668, -0.48009664, 0.3574927, 9.344769477844238, 2.1000847816467285, 2.2949702739715576, 0.2384798228740692, 0.06108628585934639, 0.681348979473114, 
98, 3415626988, 0.70691776, 0.376721, -0.48007244, 0.35760176, 9.353723526000977, 2.1483986377716064, 2.3625705242156982, 0.36755502223968506, -0.34645017981529236, 0.7045797109603882, 
99, 3415643655, 0.70691425, 0.3766812, -0.48017007, 0.35751963, 9.338179588317871, 2.0999743938446045, 2.3979861736297607, -0.9681664109230042, -0.392930805683136, 0.6840512156486511, 
100, 3415660322, 0.7068133, 0.37679854, -0.48017263, 0.3575921, 9.30664348602295, 2.0225706100463867, 2.3249101638793945, -0.26673704385757446, -0.44255542755126953, 0.633312463760376, 
101, 3415676989, 0.70661, 0.37706542, -0.48016018, 0.3577292, 9.34054946899414, 2.075394868850708, 2.324970245361328, 1.291366696357727, -0.8351085186004639, 0.7546014189720154, 
102, 3415693656, 0.70645744, 0.37721854, -0.48021874, 0.35779065, 9.390975952148438, 2.159642219543457, 2.4114527702331543, 0.469634473323822, -0.861284613609314, 0.9093660712242126, 
103, 3415710323, 0.7063903, 0.37722608, -0.48031545, 0.3577851, 9.347814559936523, 2.113302707672119, 2.410632610321045, -0.8012228012084961, -0.5800955891609192, 0.957543671131134, 
104, 3415726990, 0.7062995, 0.37724817, -0.4803904, 0.3578407, 9.40932559967041, 2.050427198410034, 2.407538414001465, -0.5994076728820801, -0.461790531873703, 1.1693605184555054, 
105, 3415743657, 0.706168, 0.37741026, -0.4803375, 0.35800037, 9.428885459899902, 2.027696132659912, 2.3919503688812256, 0.9478299617767334, -0.024063128978013992, 1.012642741203308, 
106, 3415760324, 0.706026, 0.37763545, -0.48020896, 0.3582153, 9.398643493652344, 2.1348671913146973, 2.4379727840423584, 1.5291038751602173, 0.2801132798194885, 0.8712672591209412, 
107, 3415776991, 0.7059315, 0.37777337, -0.4801164, 0.35838023, 9.354411125183105, 2.170579195022583, 2.422513246536255, 0.6881555914878845, 0.3423457443714142, 0.8936846852302551, 
108, 3415793658, 0.7058788, 0.37783805, -0.48007217, 0.35847515, 9.377120018005371, 2.151010274887085, 2.418936014175415, -0.06928235292434692, 0.2585922181606293, 0.8468006253242493, 
109, 3415810325, 0.7057951, 0.37792057, -0.4800199, 0.3586229, 9.380925178527832, 2.109776020050049, 2.3852875232696533, 0.20352493226528168, 0.2738061845302582, 1.0891096591949463, 
110, 3415826992, 0.7056906, 0.37805992, -0.47990763, 0.3588316, 9.3860445022583, 2.1337554454803467, 2.392300844192505, 0.732337474822998, 0.49275630712509155, 1.0605770349502563, 
111, 3415843659, 0.7055711, 0.37822187, -0.47977328, 0.35907567, 9.369891166687012, 2.144286870956421, 2.3813092708587646, 1.2003777027130127, 0.6205061674118042, 1.1890056133270264, 
112, 3415860326, 0.7054764, 0.3783377, -0.4796714, 0.3592759, 9.362618446350098, 2.2182953357696533, 2.364372730255127, 0.757117748260498, 0.5650224685668945, 1.1824933290481567, 
113, 3415876993, 0.7054335, 0.37835285, -0.47966358, 0.35935453, 9.379595756530762, 2.215895175933838, 2.3628830909729004, -0.04455329105257988, 0.3092285394668579, 1.1806879043579102, 
114, 3415893660, 0.7054022, 0.3783504, -0.47966734, 0.35941342, 9.403548240661621, 2.1665847301483154, 2.3621842861175537, -0.4993836283683777, 0.24302610754966736, 1.0959162712097168, 
115, 3415910327, 0.70532805, 0.37845406, -0.47959802, 0.35954255, 9.428380012512207, 2.1236772537231445, 2.336022138595581, 0.4365300238132477, 0.36316245794296265, 0.9885092973709106, 
116, 3415926994, 0.7051904, 0.37870362, -0.4794393, 0.35976103, 9.395586967468262, 2.1566927433013916, 2.3356428146362305, 1.4414699077606201, 0.39695850014686584, 0.7709038853645325, 
117, 3415943661, 0.7050512, 0.37897184, -0.47927022, 0.35997695, 9.357257843017578, 2.19252347946167, 2.33668851852417, 1.6312663555145264, 0.41196104884147644, 0.708005428314209, 
118, 3415960328, 0.704934, 0.37913138, -0.47917977, 0.36015874, 9.31814193725586, 2.241704225540161, 2.3656184673309326, 0.6902366876602173, 0.2815476059913635, 1.052899718284607, 
119, 3415976995, 0.7048656, 0.37917614, -0.4791794, 0.3602461, 9.309462547302246, 2.2015762329101562, 2.367485284805298, -0.5045509934425354, 0.05522098392248154, 1.1134353876113892, 
120, 3415993662, 0.7048321, 0.3791684, -0.47922862, 0.36025408, 9.331690788269043, 2.1610212326049805, 2.3820886611938477, -0.5983895063400269, -0.014765721745789051, 1.1292383670806885, 
121, 3416010329, 0.70471805, 0.3792553, -0.47924134, 0.36036882, 9.347772598266602, 2.138378620147705, 2.354504108428955, 0.008887606672942638, -0.1552962064743042, 1.3181447982788086, 
122, 3416026996, 0.704537, 0.379459, -0.47919777, 0.3605664, 9.368779182434082, 2.194589376449585, 2.376039981842041, 1.0491474866867065, -0.19152536988258362, 1.3346649408340454, 
123, 3416043663, 0.7044201, 0.37956625, -0.47920594, 0.36067098, 9.38075065612793, 2.2472164630889893, 2.3770194053649902, 0.450540155172348, -0.13629156351089478, 1.3185288906097412, 
124, 3416060330, 0.70432496, 0.37965024, -0.47920775, 0.36076596, 9.342487335205078, 2.216961145401001, 2.3509151935577393, -0.0560469925403595, -0.05827530100941658, 1.2104562520980835, 
125, 3416076997, 0.7042001, 0.37981185, -0.4792206, 0.36082256, 9.327003479003906, 2.2875747680664062, 2.431216239929199, 0.3090299963951111, -0.4826776683330536, 0.905037522315979, 
126, 3416093664, 0.7041301, 0.37994602, -0.47930354, 0.36070782, 9.323994636535645, 2.3363382816314697, 2.5407397747039795, -0.6205765604972839, -1.0039730072021484, 0.2581632137298584, 
127, 3416110331, 0.7040926, 0.37989303, -0.47943258, 0.36066535, 9.382287979125977, 2.318162202835083, 2.1667191982269287, -1.8414890766143799, -0.5443083047866821, 1.1935710906982422, 
128, 3416126998, 0.7039073, 0.37967056, -0.47983184, 0.36073023, 9.452568054199219, 2.1511340141296387, 1.986619472503662, -2.463980197906494, -1.594352126121521, 3.4018208980560303, 
129, 3416143665, 0.7038273, 0.37913194, -0.48038146, 0.36072102, 9.397215843200684, 2.077002763748169, 2.143664598464966, -4.85009765625, -1.3445770740509033, 4.238985538482666, 
130, 3416160332, 0.7039045, 0.37834895, -0.48117843, 0.36033028, 9.206648826599121, 2.214021682739258, 2.4126267433166504, -7.80880069732666, -2.2932589054107666, 3.5964913368225098, 
131, 3416176999, 0.70414454, 0.37731558, -0.48206854, 0.3597548, 9.421928405761719, 2.18402361869812, 2.4732918739318848, -11.14001750946045, -2.2343246936798096, 3.1632015705108643, 
132, 3416193666, 0.7043257, 0.3764944, -0.48255593, 0.3596073, 9.549723625183105, 1.6544901132583618, 2.633681297302246, -7.189050674438477, 0.1691783219575882, 3.7424707412719727, 
133, 3416210333, 0.70399606, 0.37693045, -0.4822054, 0.36026517, 9.503639221191406, 1.5256586074829102, 2.3266866207122803, 4.72897481918335, 1.4520095586776733, 2.4799625873565674, 
134, 3416227000, 0.7032891, 0.3782395, -0.48145494, 0.36127648, 9.373987197875977, 2.232532262802124, 2.400501251220703, 12.356180191040039, 0.9486115574836731, 1.2327589988708496, 
135, 3416243667, 0.70279455, 0.37901133, -0.48124278, 0.361712, 9.286849975585938, 2.652409315109253, 2.4127159118652344, 5.815056800842285, -1.1377482414245605, 1.0793448686599731, 
136, 3416260334, 0.702625, 0.3788566, -0.4816696, 0.36163574, 9.429206848144531, 2.426499366760254, 2.317458152770996, -2.6603143215179443, -2.154232978820801, 2.614013195037842, 
137, 3416277001, 0.7025963, 0.37861323, -0.48194817, 0.36157507, 9.397393226623535, 2.0654022693634033, 2.267599105834961, -3.5730931758880615, -0.8062558174133301, 2.135727643966675, 
138, 3416293668, 0.7024458, 0.37872142, -0.48194703, 0.36175576, 9.38552188873291, 2.1397647857666016, 2.3036868572235107, 0.33013486862182617, -0.01952327974140644, 1.824264407157898, 
139, 3416310335, 0.70225495, 0.37890902, -0.48187494, 0.36202556, 9.305638313293457, 2.1865339279174805, 2.3022491931915283, 1.257782220840454, 0.22484751045703888, 1.9104448556900024, 
140, 3416327002, 0.7021316, 0.37900844, -0.48187363, 0.3621625, 9.32564640045166, 2.322788715362549, 2.4280664920806885, 0.22274082899093628, 0.022385498508810997, 1.642491102218628, 
141, 3416343669, 0.7021967, 0.37856972, -0.48226547, 0.36197403, 9.319021224975586, 2.317075490951538, 2.431241512298584, -5.002583026885986, -0.7769100069999695, 2.4150471687316895, 
142, 3416360336, 0.7023507, 0.37788427, -0.48285916, 0.36159945, 9.32742977142334, 2.165496349334717, 2.4150872230529785, -8.2423677444458, -1.4639644622802734, 2.4826650619506836, 
143, 3416377003, 0.7025118, 0.37741297, -0.48334664, 0.3611271, 9.421601295471191, 1.9985439777374268, 2.398205518722534, -6.343049049377441, -1.5367363691329956, 1.2685394287109375, 
144, 3416393670, 0.70242494, 0.37757787, -0.4834364, 0.36100364, 9.434306144714355, 1.911289095878601, 2.3345465660095215, -0.754831850528717, -1.167478084564209, 0.3546142280101776, 
145, 3416410337, 0.70201004, 0.37833863, -0.4831746, 0.36136433, 9.378050804138184, 2.0345568656921387, 2.2555298805236816, 5.474253177642822, -0.7750210762023926, 0.616817831993103, 
146, 3416427004, 0.7014513, 0.37889835, -0.48314893, 0.36189684, 9.337347984313965, 2.4473979473114014, 2.3118960857391357, 4.831131935119629, -1.441309928894043, 3.083756685256958, 
147, 3416443671, 0.70134443, 0.37862474, -0.48358974, 0.36180174, 9.441696166992188, 2.34161376953125, 2.2426419258117676, -3.220381498336792, -1.6734764575958252, 3.0512797832489014, 
148, 3416460338, 0.7014513, 0.37857044, -0.48372325, 0.36147273, 9.559443473815918, 2.2906694412231445, 2.2066664695739746, -2.9004716873168945, -0.657362699508667, -0.15520016849040985, 
149, 3416477005, 0.7014991, 0.37865347, -0.48378894, 0.36120477, 9.446285247802734, 2.161381483078003, 2.0195066928863525, -1.5526033639907837, -0.6666473746299744, -0.2859402000904083, 
150, 3416493672, 0.7012952, 0.37907553, -0.48375726, 0.36120048, 9.398781776428223, 2.1380372047424316, 1.9003397226333618, 1.58132803440094, -1.218825101852417, 0.17487069964408875, 
151, 3416510339, 0.7011574, 0.3794464, -0.48372608, 0.36112046, 9.36943531036377, 2.4118523597717285, 1.9833834171295166, 0.8234483599662781, -1.0576444864273071, -0.19216568768024445, 
152, 3416527006, 0.7011961, 0.37938967, -0.48405352, 0.36066604, 9.324917793273926, 2.496368408203125, 2.11850905418396, -3.4454336166381836, -2.0194082260131836, 0.05249324068427086, 
153, 3416543673, 0.70144874, 0.3789014, -0.48458114, 0.3599785, 9.430307388305664, 2.373786687850952, 2.2686688899993896, -7.680814266204834, -1.8579710721969604, 0.30932459235191345, 
154, 3416560340, 0.70186573, 0.37820286, -0.48499987, 0.35933605, 9.459233283996582, 2.1384167671203613, 2.2498912811279297, -8.765223503112793, -0.15688422322273254, 0.5474715232849121, 
155, 3416577007, 0.70201015, 0.37803683, -0.4851323, 0.35904983, 9.36721134185791, 1.9766713380813599, 2.1486666202545166, -3.259888172149658, -0.006729737389832735, 0.514892041683197, 
156, 3416593674, 0.7018972, 0.37843636, -0.48494875, 0.35909757, 9.41943645477295, 2.0929644107818604, 2.200096368789673, 1.9027609825134277, 0.11713327467441559, 0.022302256897091866, 
157, 3416610341, 0.7017505, 0.37892777, -0.48467264, 0.35923892, 9.44731616973877, 2.1443700790405273, 2.208622455596924, 2.735180139541626, 0.4332900643348694, -0.04441242292523384, 
158, 3416627008, 0.7015791, 0.37942594, -0.48441637, 0.3593936, 9.417021751403809, 2.158169746398926, 2.189399242401123, 2.81951642036438, 0.28010690212249756, 0.11882372200489044, 
159, 3416643675, 0.7013981, 0.38000253, -0.48407608, 0.35959616, 9.497099876403809, 2.2026214599609375, 2.2735259532928467, 3.0653727054595947, 0.49319174885749817, -0.23038625717163086, 
160, 3416660342, 0.70133936, 0.38050094, -0.48368633, 0.359708, 9.496883392333984, 2.231628179550171, 2.2887532711029053, 2.6874897480010986, 1.1956905126571655, -0.7026268243789673, 
161, 3416677009, 0.7013759, 0.38045737, -0.4837354, 0.3596168, 9.321443557739258, 2.255835771560669, 2.2126965522766113, -1.8119384050369263, 0.23304997384548187, 1.0776031017303467, 
162, 3416693676, 0.7015306, 0.38006166, -0.48400778, 0.3593668, 9.430350303649902, 2.0130813121795654, 2.249096632003784, -4.638024806976318, 0.060298699885606766, 1.8576186895370483, 
163, 3416710343, 0.7014138, 0.38013422, -0.48407918, 0.359422, 9.383459091186523, 1.8990094661712646, 2.165975570678711, -0.43084394931793213, -0.2817268371582031, 1.8471170663833618, 
164, 3416727010, 0.7012409, 0.38025257, -0.48406708, 0.35965034, 9.463613510131836, 2.0091652870178223, 2.3510289192199707, 0.5970705151557922, 0.2574460506439209, 2.412985324859619, 
165, 3416743677, 0.7010125, 0.3804957, -0.4839223, 0.36003312, 9.465222358703613, 1.9802186489105225, 2.2847604751586914, 2.185121774673462, 0.8067871928215027, 2.5307650566101074, 
166, 3416760344, 0.70072013, 0.3809137, -0.4836895, 0.36047286, 9.43659782409668, 2.1364431381225586, 2.264500856399536, 3.869189500808716, 0.7901967167854309, 2.216209650039673, 
167, 3416777011, 0.7005495, 0.38117337, -0.48346865, 0.36082646, 9.460619926452637, 2.2586257457733154, 2.3332481384277344, 2.0166738033294678, 1.2198114395141602, 1.9483392238616943, 
168, 3416793678, 0.70051503, 0.38118866, -0.48334482, 0.36104256, 9.429656028747559, 2.1046135425567627, 2.260327100753784, -0.07613374292850494, 1.4785314798355103, 2.0646395683288574, 
169, 3416810345, 0.7004599, 0.38116857, -0.48323908, 0.3613125, 9.3549222946167, 2.0537216663360596, 2.2307584285736084, 0.24377529323101044, 1.6142725944519043, 2.6219146251678467, 
170, 3416827012, 0.7003332, 0.38118017, -0.4831335, 0.36168662, 9.354941368103027, 2.0954606533050537, 2.3135969638824463, 0.6254364848136902, 1.515836238861084, 3.1219959259033203, 
171, 3416843679, 0.70027, 0.38112098, -0.4830324, 0.3620063, 9.417036056518555, 2.104243278503418, 2.3866453170776367, 7.427682867273688E-4, 1.752651333808899, 2.9740188121795654, 
172, 3416860346, 0.70021474, 0.3810593, -0.48293155, 0.36231306, 9.394648551940918, 2.086827039718628, 2.3165032863616943, 0.3047526776790619, 1.8186808824539185, 3.0025253295898438, 
173, 3416877013, 0.7001527, 0.3810082, -0.48282966, 0.36262178, 9.392629623413086, 2.161508083343506, 2.3518056869506836, -0.04795977845788002, 1.698973536491394, 2.88466215133667, 
174, 3416893680, 0.7001669, 0.3808501, -0.4827901, 0.36281314, 9.392950057983398, 2.1599528789520264, 2.2662148475646973, -0.8310487866401672, 1.7005807161331177, 2.7797720432281494, 
175, 3416910347, 0.70013005, 0.3807786, -0.4827156, 0.36305824, 9.336389541625977, 2.125114679336548, 2.229132652282715, -0.32758647203445435, 1.5683809518814087, 2.717482089996338, 
176, 3416927014, 0.7001079, 0.38068375, -0.48264372, 0.36329594, 9.355850219726562, 2.1186695098876953, 2.2167649269104004, -0.5637546181678772, 1.6373685598373413, 2.7234749794006348, 
177, 3416943681, 0.7000857, 0.38061193, -0.48253503, 0.36355826, 9.388333320617676, 2.141113758087158, 2.1791412830352783, -0.24954454600811005, 1.8333762884140015, 2.68451189994812, 
178, 3416960348, 0.7000842, 0.3804892, -0.4824574, 0.36379248, 9.3858003616333, 2.1455459594726562, 2.2368295192718506, -0.5812546014785767, 1.841988444328308, 2.7913870811462402, 
179, 3416977015, 0.70010847, 0.38033637, -0.4823669, 0.36402565, 9.42935562133789, 2.1600637435913086, 2.3225858211517334, -0.6283948421478271, 2.0916802883148193, 2.8319642543792725, 
180, 3416993682, 0.70021343, 0.38007453, -0.4823006, 0.36418518, 9.46080493927002, 2.1315817832946777, 2.3752968311309814, -1.6610543727874756, 2.3263633251190186, 2.7117066383361816, 
181, 3417010349, 0.7002502, 0.3799554, -0.48212963, 0.36446497, 9.414265632629395, 2.0546789169311523, 2.290707588195801, -0.46409571170806885, 2.49880051612854, 2.6386590003967285, 
182, 3417027016, 0.700168, 0.38007182, -0.48185536, 0.36486417, 9.394681930541992, 2.058769464492798, 2.197497606277466, 1.7446988821029663, 2.3482491970062256, 2.492973804473877, 
183, 3417043683, 0.70000666, 0.38038546, -0.48153532, 0.3652691, 9.40919017791748, 2.1589746475219727, 2.195362091064453, 3.010068893432617, 1.829169750213623, 1.9432742595672607, 
184, 3417060350, 0.6999268, 0.38054708, -0.4813108, 0.36554933, 9.392523765563965, 2.2468960285186768, 2.256019353866577, 1.6203362941741943, 1.743635654449463, 1.9544026851654053, 
185, 3417077017, 0.69993764, 0.3804487, -0.48126605, 0.36569, 9.386545181274414, 2.1829159259796143, 2.308039426803589, -0.9363427758216858, 1.4447612762451172, 2.3606584072113037, 
186, 3417093684, 0.6999668, 0.38032284, -0.48119876, 0.36585367, 9.429858207702637, 2.0931286811828613, 2.333143711090088, -1.2446424961090088, 1.6967260837554932, 2.4004859924316406, 
187, 3417110351, 0.7000044, 0.38023144, -0.48113555, 0.36595982, 9.398919105529785, 2.08111834526062, 2.322434425354004, -0.009739230386912823, 1.7114535570144653, 2.339963436126709, 
188, 3417127018, 0.6999585, 0.38024235, -0.48102778, 0.36617792, 9.377189636230469, 2.0957729816436768, 2.3278567790985107, 0.23922263085842133, 1.5100735425949097, 2.3940062522888184, 
189, 3417143685, 0.6998769, 0.3802777, -0.48098254, 0.36635655, 9.365694046020508, 2.1066854000091553, 2.2955076694488525, 0.29908591508865356, 0.9530677199363708, 2.417525053024292, 
190, 3417160352, 0.69981706, 0.38029435, -0.48094326, 0.36650518, 9.393024444580078, 2.1360085010528564, 2.3441340923309326, -0.05830090865492821, 0.9502311944961548, 2.2772765159606934, 
191, 3417177019, 0.6997548, 0.3803304, -0.4808535, 0.36670426, 9.366393089294434, 2.1067922115325928, 2.360886335372925, -0.3970288634300232, 1.1311336755752563, 2.148303747177124, 
192, 3417193686, 0.6997629, 0.3803395, -0.48072344, 0.3668498, 9.375082015991211, 2.096233367919922, 2.376697063446045, -0.06248217821121216, 1.621155858039856, 1.8910495042800903, 
193, 3417210353, 0.69983214, 0.38022912, -0.48061937, 0.3669685, 9.363102912902832, 2.0981972217559814, 2.375332832336426, -0.7016151547431946, 1.9739323854446411, 2.141298770904541, 
194, 3417227020, 0.69985235, 0.3801971, -0.48047113, 0.3671573, 9.379557609558105, 2.0439069271087646, 2.3029115200042725, -0.32679879665374756, 1.9215415716171265, 2.1104354858398438, 
195, 3417243687, 0.6997894, 0.38033333, -0.48024717, 0.36742893, 9.38102912902832, 2.0682713985443115, 2.259300708770752, 0.8451422452926636, 1.7456333637237549, 1.8846592903137207, 
196, 3417260354, 0.6997422, 0.38047674, -0.4800535, 0.3676234, 9.385013580322266, 2.114680290222168, 2.2560226917266846, 1.0460866689682007, 1.5379657745361328, 1.673905372619629, 
197, 3417277021, 0.6997063, 0.38062093, -0.47987288, 0.36777812, 9.38978099822998, 2.1174468994140625, 2.245368242263794, 0.6404711008071899, 1.3734041452407837, 1.436232089996338, 
198, 3417293688, 0.69972134, 0.38072306, -0.47970876, 0.36785835, 9.3834867477417, 2.104656457901001, 2.296642541885376, 0.16490095853805542, 1.4087175130844116, 1.1757571697235107, 
199, 3417310355, 0.69977945, 0.3807949, -0.47953808, 0.3678959, 9.350610733032227, 2.07474422454834, 2.291048049926758, -0.12866538763046265, 1.566703200340271, 0.9726037979125977, 
200, 3417327022, 0.6998429, 0.3808991, -0.47933835, 0.3679275, 9.343863487243652, 2.0658798217773438, 2.323209524154663, 0.3191470205783844, 1.6769784688949585, 0.8195679187774658, 
201, 3417343689, 0.69984597, 0.3810869, -0.47910795, 0.36802718, 9.347243309020996, 2.110635995864868, 2.2881150245666504, 0.6573114991188049, 1.4964730739593506, 0.8090795278549194, 
202, 3417360356, 0.69985753, 0.38120195, -0.47897103, 0.36806428, 9.334699630737305, 2.0744519233703613, 2.2610199451446533, 0.0026253017131239176, 1.1297377347946167, 1.0195646286010742, 
203, 3417377023, 0.6998195, 0.38138804, -0.4788106, 0.36815256, 9.37152099609375, 2.0583043098449707, 2.2249162197113037, 0.7307239770889282, 1.0430452823638916, 1.1061805486679077, 
204, 3417393690, 0.6997859, 0.38153782, -0.4786669, 0.36824822, 9.414227485656738, 2.1133346557617188, 2.267942428588867, 0.4230642020702362, 1.0764826536178589, 1.2684882879257202, 
205, 3417410357, 0.69982207, 0.38160026, -0.4785625, 0.36825028, 9.427024841308594, 2.0839245319366455, 2.2300820350646973, 0.1119018942117691, 1.2299988269805908, 1.2212775945663452, 
206, 3417427024, 0.6997921, 0.3818515, -0.47832128, 0.36836043, 9.463863372802734, 2.052488327026367, 2.25028920173645, 1.2894585132598877, 1.3701897859573364, 0.7722228765487671, 
207, 3417443691, 0.699802, 0.3821072, -0.4780567, 0.36841992, 9.50248908996582, 2.1485652923583984, 2.339278221130371, 0.8641725778579712, 1.4301108121871948, 0.2882453203201294, 
208, 3417460358, 0.69995224, 0.38220993, -0.47782737, 0.3683256, 9.485787391662598, 2.0421833992004395, 2.344970464706421, 0.0228977520018816, 1.8741196393966675, 0.020887155085802078, 
209, 3417477025, 0.70005435, 0.38241944, -0.47751686, 0.36831617, 9.444992065429688, 2.0235207080841064, 2.3445417881011963, 0.6346186399459839, 1.962483286857605, -0.14988552033901215, 
210, 3417493692, 0.70006394, 0.3827602, -0.4772078, 0.36834478, 9.453165054321289, 1.9494829177856445, 2.2288148403167725, 1.0576508045196533, 1.3110371828079224, -0.31386440992355347, 
211, 3417510359, 0.6999889, 0.38314885, -0.47693855, 0.36843187, 9.450244903564453, 1.9824055433273315, 2.2697157859802246, 1.5247241258621216, 0.8680784702301025, 0.10426931083202362, 
212, 3417527026, 0.69994175, 0.38340038, -0.476747, 0.36850816, 9.421167373657227, 1.9767069816589355, 2.331965208053589, 0.8512444496154785, 0.9658100008964539, 0.7079029679298401, 
213, 3417543693, 0.6998762, 0.38361153, -0.47655073, 0.3686666, 9.416349411010742, 1.9475873708724976, 2.339262008666992, 1.1459763050079346, 1.279649019241333, 1.3068110942840576, 
214, 3417560360, 0.69979954, 0.3837377, -0.4764016, 0.36887336, 9.437376022338867, 1.9743891954421997, 2.397688150405884, 0.9429699778556824, 1.3897833824157715, 2.0007357597351074, 
215, 3417577027, 0.69970256, 0.38385, -0.47626102, 0.36912233, 9.377132415771484, 1.9513897895812988, 2.373690366744995, 1.1725112199783325, 1.4519840478897095, 2.3507208824157715, 
216, 3417593694, 0.69956064, 0.38398907, -0.47613347, 0.36941093, 9.388274192810059, 2.021390438079834, 2.4100406169891357, 1.6831387281417847, 1.309602975845337, 2.640644073486328, 
217, 3417610361, 0.69941765, 0.3840596, -0.47608653, 0.36966854, 9.385296821594238, 2.017268657684326, 2.377511739730835, 1.1661204099655151, 1.0327423810958862, 2.959547281265259, 
218, 3417627028, 0.69921154, 0.38418442, -0.47605786, 0.36996567, 9.389726638793945, 2.0460309982299805, 2.3427889347076416, 1.3062925338745117, 0.6305398344993591, 3.0786402225494385, 
219, 3417643695, 0.69898677, 0.3842875, -0.47602358, 0.37032712, 9.416356086730957, 2.1250240802764893, 2.413078546524048, 0.6509466767311096, 0.6621138453483582, 3.2726879119873047, 
220, 3417660362, 0.6988733, 0.38421178, -0.47607863, 0.37054908, 9.39155387878418, 2.080803155899048, 2.3879778385162354, -0.18270179629325867, 0.8787972927093506, 3.408524990081787, 
221, 3417677029, 0.6987552, 0.3841336, -0.47614178, 0.37077165, 9.39869499206543, 2.124328136444092, 2.3850936889648438, -0.34759634733200073, 0.8033039569854736, 3.4151463508605957, 
222, 3417693696, 0.69872403, 0.38390064, -0.47629654, 0.37087303, 9.383936882019043, 2.1501920223236084, 2.3828108310699463, -1.6754933595657349, 0.7746562361717224, 3.4369943141937256, 
223, 3417710363, 0.6986319, 0.3837697, -0.47642758, 0.3710138, 9.366534233093262, 2.0535709857940674, 2.3394196033477783, -1.448974609375, 0.4120635688304901, 3.227142810821533, 
224, 3417727030, 0.6984875, 0.38372508, -0.47652647, 0.37120435, 9.394768714904785, 2.0805208683013916, 2.371035575866699, -0.942573070526123, 0.25162556767463684, 3.15519642829895, 
225, 3417743697, 0.69832593, 0.3837579, -0.47661403, 0.37136212, 9.394355773925781, 2.0990517139434814, 2.2955591678619385, -0.27328750491142273, 0.029153652489185333, 2.8476521968841553, 
226, 3417760364, 0.6981723, 0.38374642, -0.47677946, 0.3714506, 9.397687911987305, 2.180251359939575, 2.3572299480438232, -0.9967822432518005, -0.3986488878726959, 2.8319385051727295, 
227, 3417777031, 0.6981321, 0.38356623, -0.47702459, 0.3713974, 9.4071683883667, 2.1320369243621826, 2.360980272293091, -2.5192456245422363, -0.30190327763557434, 2.698784589767456, 
228, 3417793698, 0.6981386, 0.38335603, -0.47725078, 0.37131172, 9.382987976074219, 2.099959373474121, 2.347227096557617, -2.5184521675109863, -0.005436296109110117, 2.565675735473633, 
229, 3417810365, 0.6981357, 0.38322604, -0.47742027, 0.37123334, 9.339364051818848, 2.0927326679229736, 2.3503224849700928, -2.158836841583252, 0.008362547494471073, 2.1577036380767822, 
230, 3417827032, 0.6981799, 0.3830731, -0.47761646, 0.37105587, 9.345579147338867, 2.120060920715332, 2.4080278873443604, -2.3025879859924316, -0.07702378183603287, 1.8392478227615356, 
231, 3417843699, 0.698229, 0.38291562, -0.47779775, 0.3708924, 9.391014099121094, 2.079800605773926, 2.387371063232422, -2.795440435409546, -0.0478893406689167, 1.7311878204345703, 
232, 3417860366, 0.6982772, 0.38278136, -0.47797665, 0.37070996, 9.36927318572998, 2.0692660808563232, 2.3719429969787598, -2.651599645614624, -0.13414010405540466, 1.5849266052246094, 
233, 3417877033, 0.698296, 0.38267794, -0.47816956, 0.37053245, 9.35035514831543, 2.042983055114746, 2.3142049312591553, -2.6044723987579346, -0.3969649076461792, 1.581494688987732, 
234, 3417893700, 0.69831383, 0.38256493, -0.47841924, 0.37029308, 9.372993469238281, 2.098177909851074, 2.3414714336395264, -2.9919793605804443, -0.8100079894065857, 1.4683375358581543, 
235, 3417910367, 0.69840753, 0.3823436, -0.4786849, 0.37000155, 9.364176750183105, 2.053048610687256, 2.325991153717041, -4.027181148529053, -0.518497109413147, 1.4001566171646118, 
236, 3417927034, 0.69851273, 0.3821511, -0.4788652, 0.36976865, 9.34420394897461, 2.0242063999176025, 2.3485469818115234, -3.5719926357269287, -0.0017096479423344135, 1.3196946382522583, 
237, 3417943701, 0.698617, 0.38195798, -0.47908917, 0.3694808, 9.370465278625488, 2.0577189922332764, 2.3347272872924805, -3.3961093425750732, -0.27059173583984375, 1.2987431287765503, 
238, 3417960368, 0.6986633, 0.3818342, -0.47935483, 0.3691767, 9.36832046508789, 2.063171148300171, 2.357487916946411, -3.4271907806396484, -0.9497125148773193, 1.1570281982421875, 
239, 3417977035, 0.6987395, 0.38165227, -0.4796819, 0.36879534, 9.369816780090332, 2.0648722648620605, 2.375509262084961, -4.105184555053711, -1.1857719421386719, 1.0893594026565552, 
240, 3417993702, 0.69883215, 0.38142577, -0.480065, 0.36835542, 9.409566879272461, 2.018181085586548, 2.2936744689941406, -3.9066731929779053, -1.294895052909851, 1.2693909406661987, 
241, 3418010369, 0.69886965, 0.38131893, -0.48031977, 0.36806253, 9.420029640197754, 2.026357412338257, 2.2698981761932373, -3.164301633834839, -0.9257773756980896, 1.178478717803955, 
242, 3418027036, 0.698914, 0.38121226, -0.48053244, 0.3678113, 9.345104217529297, 2.082397699356079, 2.321442127227783, -3.085939407348633, -0.6188859939575195, 1.21086585521698, 
243, 3418043703, 0.6990321, 0.38104907, -0.48072186, 0.36750823, 9.33337116241455, 2.1029558181762695, 2.3688406944274902, -3.662545919418335, -0.2561590075492859, 0.9057931303977966, 
244, 3418060370, 0.69921285, 0.38084015, -0.48090515, 0.36714137, 9.344099044799805, 2.071826219558716, 2.4102821350097656, -3.730585813522339, 0.021373799070715904, 0.7137234807014465, 
245, 3418077037, 0.69934326, 0.38069728, -0.48106307, 0.36683372, 9.330971717834473, 2.0342559814453125, 2.306302785873413, -3.1105470657348633, -0.056463200598955154, 0.8199842572212219, 
246, 3418093704, 0.6994047, 0.3806255, -0.48123193, 0.36656958, 9.37027645111084, 2.084078311920166, 2.3100717067718506, -2.2665700912475586, -0.36508336663246155, 1.051145076751709, 
247, 3418110371, 0.6994892, 0.38057458, -0.48132116, 0.3663439, 9.410086631774902, 2.1047236919403076, 2.2763030529022217, -2.014688491821289, 0.12057178467512131, 0.872471034526825, 
248, 3418127038, 0.6996051, 0.38052985, -0.48134023, 0.366144, 9.437042236328125, 2.170891761779785, 2.2779877185821533, -1.7896678447723389, 0.6193662285804749, 0.7216633558273315, 
249, 3418143705, 0.6998302, 0.38031623, -0.48138574, 0.36587566, 9.443449974060059, 2.172048568725586, 2.295423746109009, -2.934875965118408, 1.147384762763977, 0.8143429160118103, 
250, 3418160372, 0.7000352, 0.3802047, -0.48128822, 0.3657276, 9.436650276184082, 2.0775246620178223, 2.3050289154052734, -2.4852449893951416, 1.667694330215454, 0.5181577801704407, 
251, 3418177039, 0.7002298, 0.38026184, -0.48102388, 0.36564332, 9.443333625793457, 2.050220251083374, 2.2935259342193604, 0.03464117646217346, 2.3790996074676514, 0.1302661895751953, 
252, 3418193706, 0.70040673, 0.38044488, -0.48062375, 0.3656405, 9.43089771270752, 2.145354986190796, 2.3142995834350586, 1.5316649675369263, 2.917555093765259, -0.14241300523281097, 
253, 3418210373, 0.7005836, 0.38062695, -0.4802245, 0.36563694, 9.373421669006348, 2.1299335956573486, 2.2305121421813965, 0.796311616897583, 2.7766213417053223, -0.32599198818206787, 
254, 3418227040, 0.70070595, 0.38090432, -0.4798553, 0.36559817, 9.33726978302002, 2.1512022018432617, 2.2081966400146484, 1.1592051982879639, 2.115224838256836, -0.6034800410270691, 
255, 3418243707, 0.7008915, 0.38108888, -0.47955284, 0.36544693, 9.374518394470215, 2.205763339996338, 2.221714496612549, 0.24707292020320892, 1.994998812675476, -0.755709171295166, 
256, 3418260374, 0.7011451, 0.38116238, -0.47926944, 0.3652554, 9.38646411895752, 2.1418228149414062, 2.221055507659912, -0.7472889423370361, 2.2858245372772217, -0.7251724004745483, 
257, 3418277041, 0.70139706, 0.38120335, -0.47901148, 0.3650675, 9.348603248596191, 2.1183841228485107, 2.245877504348755, -0.781693160533905, 2.2867274284362793, -0.4819093942642212, 
258, 3418293708, 0.70160097, 0.3813203, -0.47870865, 0.36495063, 9.378196716308594, 2.1059935092926025, 2.2774789333343506, -0.43975088000297546, 2.248244524002075, -0.5151162147521973, 
259, 3418310375, 0.7017402, 0.38156202, -0.47839203, 0.36484542, 9.36662483215332, 2.09826397895813, 2.2298474311828613, 0.22372691333293915, 1.7857813835144043, -0.791656494140625, 
260, 3418327042, 0.70184475, 0.38189036, -0.47806662, 0.36472756, 9.377321243286133, 2.1129369735717773, 2.2218832969665527, 0.3790295422077179, 1.402090311050415, -1.1618753671646118, 
261, 3418343709, 0.70196074, 0.38223237, -0.4777472, 0.3645643, 9.417852401733398, 2.151278018951416, 2.2712390422821045, 0.2768220603466034, 1.2669321298599243, -1.4318970441818237, 
262, 3418360376, 0.70217264, 0.38252434, -0.47738424, 0.3643254, 9.440021514892578, 2.1249639987945557, 2.3739852905273438, 0.08370229601860046, 1.811253309249878, -1.8697205781936646, 
263, 3418377043, 0.7024614, 0.38269487, -0.4768777, 0.36425322, 9.396495819091797, 2.103215217590332, 2.4768033027648926, 0.12237748503684998, 3.482405185699463, -1.258499264717102, 
264, 3418393710, 0.70277786, 0.38292927, -0.47632396, 0.36412105, 9.377821922302246, 2.1162209510803223, 2.402036666870117, 0.9942080974578857, 3.624056100845337, -1.7629156112670898, 
265, 3418410377, 0.70291585, 0.38336426, -0.47574607, 0.36415258, 9.399895668029785, 2.0118157863616943, 2.3505611419677734, 2.42636775970459, 2.9616217613220215, -1.4092682600021362, 
266, 3418427044, 0.7030159, 0.3836493, -0.47529584, 0.36424676, 9.329976081848145, 2.161895275115967, 2.455453395843506, 1.664979100227356, 2.758551597595215, -0.1968912035226822, 
267, 3418443711, 0.7032989, 0.3834586, -0.4752676, 0.36393797, 9.295805931091309, 2.195476531982422, 2.2894225120544434, -2.5216281414031982, 1.6422864198684692, 0.32562708854675293, 
268, 3418460378, 0.70350045, 0.38304695, -0.47559324, 0.36355644, 9.379581451416016, 2.057293653488159, 2.3096837997436523, -5.009781360626221, -0.07865661382675171, 1.697180986404419, 
269, 3418477045, 0.7036517, 0.38248667, -0.47614536, 0.36313075, 9.398777961730957, 1.917100429534912, 2.252897262573242, -5.70497989654541, -0.9565256237983704, 2.8487730026245117, 
270, 3418493712, 0.70353323, 0.38218355, -0.47663563, 0.36303627, 9.39219856262207, 1.8276698589324951, 2.2205216884613037, -3.7194700241088867, -1.557168960571289, 3.7872989177703857, 
271, 3418510379, 0.70320994, 0.3822373, -0.47693864, 0.36320794, 9.471860885620117, 1.858339786529541, 2.298478603363037, 0.22696690261363983, -1.4385050535202026, 4.001728057861328, 
272, 3418527046, 0.70278674, 0.3826734, -0.4769185, 0.36359414, 9.498104095458984, 2.052644729614258, 2.358773708343506, 3.648285388946533, -0.6326080560684204, 3.1204464435577393, 
273, 3418543713, 0.7025534, 0.38304353, -0.47677848, 0.363839, 9.477530479431152, 2.306553363800049, 2.531301736831665, 2.924278497695923, 0.41792240738868713, 1.9264719486236572, 
274, 3418560380, 0.70260346, 0.38302442, -0.47673082, 0.36382487, 9.43144416809082, 2.297668933868408, 2.4931023120880127, -0.36442387104034424, 1.2728872299194336, 1.6025865077972412, 
275, 3418577047, 0.7027783, 0.38277406, -0.47681803, 0.36363634, 9.382770538330078, 2.2248964309692383, 2.408346652984619, -2.7317285537719727, 1.1424927711486816, 1.5630662441253662, 
276, 3418593714, 0.70294243, 0.38247824, -0.47697318, 0.36342695, 9.355731964111328, 2.193293333053589, 2.3475027084350586, -3.4691574573516846, 0.7718132138252258, 1.7379244565963745, 
277, 3418610381, 0.7029872, 0.38239455, -0.47696725, 0.36343604, 9.39051342010498, 2.098980665206909, 2.3760900497436523, -1.7487006187438965, 1.050415277481079, 1.7793911695480347, 
278, 3418627048, 0.70292985, 0.38246018, -0.47686395, 0.3636134, 9.360968589782715, 2.1707019805908203, 2.3743410110473633, 0.44366320967674255, 1.3396083116531372, 2.2072513103485107, 
279, 3418643715, 0.70286274, 0.38245052, -0.47682333, 0.36380658, 9.356056213378906, 2.3085432052612305, 2.326796054840088, 0.37101277709007263, 1.3106275796890259, 2.819983959197998, 
280, 3418660382, 0.70276725, 0.38229617, -0.4769346, 0.36400732, 9.326641082763672, 2.2603511810302734, 2.278973340988159, -1.7357662916183472, 0.6348748803138733, 3.5070576667785645, 
281, 3418677049, 0.7027116, 0.38190672, -0.47732428, 0.36401305, 9.332033157348633, 2.198485851287842, 2.228801965713501, -3.451305627822876, -0.3245578110218048, 4.20257043838501, 
282, 3418693716, 0.7026829, 0.38148642, -0.47778738, 0.36390138, 9.409283638000488, 2.090988874435425, 2.2431576251983643, -3.088411808013916, -0.5817477107048035, 4.172757625579834, 
283, 3418710383, 0.70252115, 0.38145566, -0.47796273, 0.3640157, 9.429096221923828, 2.0817298889160156, 2.290196180343628, -0.01901102438569069, -0.13503654301166534, 3.395475387573242, 
284, 3418727050, 0.7023522, 0.38157633, -0.4780043, 0.36416024, 9.432119369506836, 2.226922035217285, 2.306386947631836, 1.1832555532455444, 0.19406743347644806, 2.712986707687378, 
285, 3418743717, 0.7022269, 0.38167056, -0.47800162, 0.36430687, 9.428533554077148, 2.2719874382019043, 2.33522891998291, 0.34766677021980286, 0.48018690943717957, 2.3982837200164795, 
286, 3418760384, 0.702219, 0.38163328, -0.47801933, 0.36433792, 9.415480613708496, 2.2281110286712646, 2.35619854927063, -0.5295361876487732, 0.8972768187522888, 2.169433832168579, 
287, 3418777051, 0.7022808, 0.38155726, -0.4780511, 0.36425665, 9.391213417053223, 2.1971142292022705, 2.329383611679077, -0.24453085660934448, 1.0756566524505615, 1.9034463167190552, 
288, 3418793718, 0.70222795, 0.38159844, -0.47803545, 0.36433607, 9.338035583496094, 2.231743097305298, 2.405033826828003, -0.04915718361735344, 0.7887559533119202, 2.109539031982422, 
289, 3418810385, 0.70224655, 0.38151217, -0.47815, 0.36424, 9.317304611206055, 2.2104101181030273, 2.391810655593872, -1.2862505912780762, 0.3466038405895233, 1.9708844423294067, 
290, 3418827052, 0.70220816, 0.3814737, -0.47822037, 0.36426204, 9.330934524536133, 2.0873138904571533, 2.388261079788208, -0.9566792249679565, 0.4491187334060669, 2.2685937881469727, 
291, 3418843719, 0.7020491, 0.3816171, -0.47815675, 0.36450198, 9.346421241760254, 2.115501880645752, 2.416818141937256, 1.3213849067687988, 0.8192094564437866, 2.6811633110046387, 
292, 3418860386, 0.701899, 0.38172713, -0.4780598, 0.36480296, 9.397175788879395, 2.1758432388305664, 2.415557384490967, 1.274782419204712, 1.2228654623031616, 2.935983419418335, 
293, 3418877053, 0.7018145, 0.3817392, -0.47802868, 0.36499357, 9.353470802307129, 2.2435855865478516, 2.47509765625, 0.554719865322113, 1.1658517122268677, 2.856353998184204, 
294, 3418893720, 0.701866, 0.38147792, -0.47814104, 0.36502075, 9.41242504119873, 2.156160831451416, 2.4777116775512695, -1.4236884117126465, 1.2938127517700195, 3.1641035079956055, 
295, 3418910387, 0.7018801, 0.38128272, -0.47815686, 0.3651766, 9.483522415161133, 2.1370227336883545, 2.460491895675659, -1.1408601999282837, 1.6415436267852783, 3.195594310760498, 
296, 3418927054, 0.70189977, 0.3810859, -0.47815317, 0.365349, 9.48202896118164, 2.228379487991333, 2.471647262573242, -1.4977349042892456, 1.711300015449524, 3.1004433631896973, 
297, 3418943721, 0.7020185, 0.38064405, -0.47832674, 0.36535457, 9.424904823303223, 2.1952593326568604, 2.4690399169921875, -3.0342276096343994, 1.5374919176101685, 3.5592050552368164, 
298, 3418960388, 0.7020797, 0.38012698, -0.4785726, 0.3654533, 9.448624610900879, 2.064095973968506, 2.497945785522461, -3.8775393962860107, 1.276345133781433, 4.391323566436768, 
299, 3418977055, 0.7020772, 0.37963605, -0.4788461, 0.36561006, 9.39939022064209, 2.0126852989196777, 2.498645782470703, -2.6445178985595703, 1.178068995475769, 5.035123825073242, 
300, 3418993722, 0.7019896, 0.37922904, -0.479118, 0.36584437, 9.357830047607422, 2.1063883304595947, 2.47088885307312, -2.390298843383789, 0.766242265701294, 5.170832633972168, 
301, 3419010389, 0.70188534, 0.3788045, -0.47944874, 0.3660506, 9.331062316894531, 2.1192941665649414, 2.4638054370880127, -2.246534824371338, 0.478739857673645, 5.403537273406982, 
302, 3419027056, 0.7018159, 0.37835288, -0.47976446, 0.3662373, 9.337244987487793, 2.1450271606445312, 2.467923164367676, -2.781341075897217, 0.6233875751495361, 5.197009563446045, 
303, 3419043723, 0.7017739, 0.37791857, -0.48004407, 0.36639985, 9.347465515136719, 2.185983419418335, 2.468336582183838, -2.8820242881774902, 0.7535384893417358, 4.829466819763184, 
304, 3419060390, 0.7017915, 0.37742585, -0.48032358, 0.36650756, 9.352250099182129, 2.216341018676758, 2.4675495624542236, -3.9217336177825928, 0.8692566752433777, 4.499754905700684, 
305, 3419077057, 0.701869, 0.37693182, -0.48058373, 0.36652687, 9.379416465759277, 2.16838002204895, 2.463784694671631, -4.151786804199219, 0.9663543701171875, 3.929743766784668, 
306, 3419093724, 0.7020077, 0.37640485, -0.48084062, 0.3664653, 9.40579891204834, 2.149991273880005, 2.427382230758667, -3.9440035820007324, 1.2036945819854736, 3.7005486488342285, 
307, 3419110391, 0.7021445, 0.375905, -0.48107412, 0.36641008, 9.367566108703613, 2.1495137214660645, 2.4120099544525146, -3.9471800327301025, 1.2159117460250854, 3.532529354095459, 
308, 3419127058, 0.7022941, 0.37535197, -0.48134473, 0.3663349, 9.341988563537598, 2.1978652477264404, 2.436833143234253, -5.019615650177002, 1.0412139892578125, 3.5116612911224365, 
309, 3419143725, 0.7025163, 0.3746618, -0.48170525, 0.36614138, 9.337478637695312, 2.0969932079315186, 2.442920446395874, -6.155148506164551, 0.9481949210166931, 3.5411481857299805, 
310, 3419160392, 0.70276815, 0.37397033, -0.48205847, 0.36589992, 9.320556640625, 2.053375005722046, 2.4284298419952393, -5.669947624206543, 1.0908961296081543, 3.414851665496826, 
311, 3419177059, 0.7030522, 0.37323305, -0.48246354, 0.3655732, 9.317512512207031, 2.039966344833374, 2.412156581878662, -5.280706405639648, 1.044588565826416, 3.506251573562622, 
312, 3419193726, 0.7031747, 0.37265265, -0.48278084, 0.36551037, 9.359006881713867, 1.9944498538970947, 2.3932313919067383, -5.237689018249512, 0.8031503558158875, 3.8457090854644775, 
313, 3419210393, 0.7033143, 0.3719994, -0.48314232, 0.36542985, 9.455653190612793, 1.9378681182861328, 2.442415714263916, -5.025589942932129, 0.9254253506660461, 4.282571315765381, 
314, 3419227060, 0.703393, 0.37146014, -0.4833363, 0.36557055, 9.4962739944458, 1.8827998638153076, 2.5143394470214844, -3.7868824005126953, 1.696943759918213, 4.526775360107422, 
315, 3419243727, 0.7034909, 0.370906, -0.4835041, 0.36572298, 9.485618591308594, 1.812959909439087, 2.4757986068725586, -2.440730333328247, 2.1990039348602295, 4.885532855987549, 
316, 3419260394, 0.70344293, 0.37061983, -0.48346648, 0.366155, 9.492193222045898, 1.8269492387771606, 2.44791841506958, -0.1971665769815445, 2.587625741958618, 4.94842529296875, 
317, 3419277061, 0.7033914, 0.37037137, -0.4833258, 0.36669055, 9.50738525390625, 1.825454831123352, 2.4791533946990967, 0.5304518938064575, 3.231618881225586, 5.047431468963623, 
318, 3419293728, 0.7033252, 0.370053, -0.48320165, 0.36730197, 9.509920120239258, 1.717332363128662, 2.4089694023132324, 1.4231185913085938, 3.647261381149292, 5.990798473358154, 
319, 3419310395, 0.70311564, 0.36988652, -0.48300904, 0.36812338, 9.457741737365723, 1.6042019128799438, 2.3428266048431396, 3.289580821990967, 3.6346609592437744, 6.654462814331055, 
320, 3419327062, 0.7026361, 0.37014163, -0.4825295, 0.36940923, 9.514201164245605, 1.6131139993667603, 2.402212619781494, 7.211002349853516, 4.05643892288208, 7.148314952850342, 
321, 3419343729, 0.70212865, 0.3706069, -0.48173535, 0.37094066, 9.39945125579834, 1.6708232164382935, 2.445741653442383, 9.759788513183594, 5.552977561950684, 6.8572797775268555, 
322, 3419360396, 0.70169574, 0.37132528, -0.48059902, 0.37251228, 9.196272850036621, 1.7744115591049194, 2.4790356159210205, 12.685263633728027, 7.064128875732422, 5.388685703277588, 
323, 3419377063, 0.7013347, 0.37235335, -0.47905958, 0.37414515, 8.986331939697266, 1.8035835027694702, 2.486370086669922, 15.221964836120605, 8.609180450439453, 3.4417359828948975, 
324, 3419393730, 0.70098746, 0.3736385, -0.4772693, 0.37579903, 8.866742134094238, 1.8954282999038696, 2.4675400257110596, 17.35529136657715, 9.295387268066406, 2.0761942863464355, 
325, 3419410397, 0.70073324, 0.37494355, -0.4753508, 0.37740156, 8.85075855255127, 1.9196228981018066, 2.4663660526275635, 17.153066635131836, 9.996892929077148, 1.1357582807540894, 
326, 3419427064, 0.7004958, 0.37633368, -0.47331533, 0.37901363, 8.887500762939453, 1.8948341608047485, 2.466538667678833, 17.58475685119629, 10.374336242675781, 0.4842471778392792, 
327, 3419443731, 0.7002224, 0.37783852, -0.47123858, 0.38060614, 8.969950675964355, 1.93198823928833, 2.5109384059906006, 18.79329490661621, 10.201886177062988, 0.15500828623771667, 
328, 3419460398, 0.6998908, 0.37942126, -0.46915722, 0.3822093, 9.159716606140137, 2.0706703662872314, 2.6662490367889404, 18.701616287231445, 9.74134349822998, -0.09502966701984406, 
329, 3419477065, 0.6995512, 0.3808995, -0.4672007, 0.38375407, 9.48011589050293, 1.996317982673645, 2.805328607559204, 17.416757583618164, 9.18441390991211, 0.2277420461177826, 
330, 3419493732, 0.6990544, 0.38261324, -0.46515983, 0.38543028, 9.77344036102295, 1.7632620334625244, 2.9444196224212646, 20.23011016845703, 8.922147750854492, 0.4797138571739197, 
331, 3419510399, 0.6983421, 0.38455287, -0.46292445, 0.38747725, 9.92181396484375, 1.787047266960144, 3.1625888347625732, 22.907045364379883, 9.417142868041992, 1.3857139348983765, 
332, 3419527066, 0.69795376, 0.38581032, -0.46089977, 0.38933593, 9.979732513427734, 1.8175311088562012, 3.4269678592681885, 18.946104049682617, 11.00014877319336, 2.729947090148926, 
333, 3419543733, 0.6978375, 0.38639987, -0.45886418, 0.39135882, 9.772443771362305, 1.3604180812835693, 3.358581304550171, 13.973758697509766, 13.818248748779297, 4.392225742340088, 
334, 3419560400, 0.69753104, 0.38740137, -0.4564336, 0.39375013, 9.532516479492188, 1.1631330251693726, 3.2070133686065674, 19.57961082458496, 15.143186569213867, 4.56833028793335, 
335, 3419577067, 0.6968619, 0.3892507, -0.4535432, 0.39644185, 9.398441314697266, 1.2791409492492676, 3.1487886905670166, 28.14808464050293, 14.969764709472656, 3.487962484359741, 
336, 3419593734, 0.69578063, 0.39186445, -0.4503682, 0.39937472, 9.272308349609375, 1.381992220878601, 3.08845853805542, 34.601016998291016, 13.638008117675781, 2.6513240337371826, 
337, 3419610401, 0.69423616, 0.3951775, -0.44701523, 0.40255237, 9.286109924316406, 1.4736398458480835, 3.044677257537842, 40.108734130859375, 11.728741645812988, 2.3307697772979736, 
338, 3419627068, 0.6922393, 0.39900497, -0.44346395, 0.4061276, 9.163789749145508, 1.7241761684417725, 2.9950764179229736, 44.00001525878906, 10.6248140335083, 2.8521993160247803, 
339, 3419643735, 0.6901228, 0.40277636, -0.44004154, 0.40971375, 8.933574676513672, 1.9650665521621704, 2.9525609016418457, 44.51658248901367, 9.994673728942871, 3.9929213523864746, 
340, 3419660402, 0.687946, 0.40628627, -0.43685025, 0.41330838, 8.747160911560059, 2.088881015777588, 2.8557019233703613, 43.1074333190918, 9.538095474243164, 5.721738338470459, 
341, 3419677069, 0.68563247, 0.40942746, -0.43409264, 0.41694263, 8.561793327331543, 2.2795820236206055, 2.6809003353118896, 38.71453094482422, 7.822406768798828, 8.016128540039062, 
342, 3419693736, 0.68350536, 0.41170362, -0.4324086, 0.41993245, 8.549124717712402, 2.309141159057617, 2.5501394271850586, 31.527910232543945, 4.508492469787598, 10.808588027954102, 
343, 3419710403, 0.68113124, 0.413607, -0.43147057, 0.4228746, 8.589797019958496, 2.166116714477539, 2.532902717590332, 25.78318977355957, 0.6937476396560669, 13.77393627166748, 
344, 3419727070, 0.6783957, 0.41564012, -0.4309351, 0.4258142, 8.653366088867188, 1.621213436126709, 2.197280168533325, 27.430906295776367, -2.3882203102111816, 15.944936752319336, 
345, 3419743737, 0.6742799, 0.4190898, -0.43022025, 0.42967558, 8.56423282623291, 0.26907259225845337, 1.814193606376648, 41.43733596801758, -7.100297451019287, 19.61876106262207, 
346, 3419760404, 0.6674828, 0.4264367, -0.42760488, 0.435629, 8.688307762145996, 0.6672210693359375, 1.7100253105163574, 79.28695678710938, -11.630500793457031, 20.254127502441406, 
347, 3419777071, 0.659914, 0.43617725, -0.42296728, 0.44199762, 9.2433443069458, 3.859004259109497, 2.793022394180298, 100.5726318359375, -10.37785530090332, 11.670941352844238, 
348, 3419793738, 0.6542702, 0.44388327, -0.41871145, 0.44674253, 9.207039833068848, 5.010888576507568, 3.67437481880188, 80.07804870605469, -5.096409320831299, 5.654733657836914, 
349, 3419810405, 0.6503482, 0.4493013, -0.4149736, 0.45052466, 9.171467781066895, 3.7188596725463867, 3.94315505027771, 58.743446350097656, 1.2828277349472046, 3.86965274810791, 
350, 3419827072, 0.64729214, 0.45403254, -0.4106861, 0.4540974, 9.00291919708252, 3.470313549041748, 4.099322319030762, 53.708370208740234, 7.56869649887085, 0.4408504366874695, 
351, 3419843739, 0.64509314, 0.45785254, -0.40651417, 0.45713502, 8.797497749328613, 3.618685245513916, 4.074382781982422, 44.721065521240234, 10.519471168518066, -1.7606620788574219, 
352, 3419860406, 0.64379895, 0.4604724, -0.40302396, 0.4594126, 8.552087783813477, 3.5989716053009033, 3.7578728199005127, 32.465206146240234, 11.406062126159668, -2.394650459289551, 
353, 3419877073, 0.6436834, 0.4612712, -0.40101847, 0.46052673, 8.344613075256348, 4.084274768829346, 3.551288604736328, 13.651469230651855, 10.352446556091309, -1.2449002265930176, 
354, 3419893740, 0.64594, 0.45828074, -0.4022337, 0.4592912, 8.26735782623291, 4.594366550445557, 3.31439208984375, -28.239215850830078, 6.922094821929932, 1.3014106750488281, 
355, 3419910407, 0.64995605, 0.45220178, -0.40633696, 0.4560276, 8.068365097045898, 2.820262908935547, 2.6077704429626465, -62.13612365722656, 2.3126533031463623, 4.467274188995361, 
356, 3419927074, 0.65279615, 0.447363, -0.41027668, 0.45320725, 7.688223361968994, 1.7443647384643555, 2.3249547481536865, -51.1954345703125, -2.7774736881256104, 6.1749467849731445, 
357, 3419943741, 0.6542338, 0.44419113, -0.41381043, 0.4510361, 7.645870685577393, 2.1098806858062744, 2.366658926010132, -36.76043701171875, -8.230318069458008, 7.370207786560059, 
358, 3419960408, 0.6549963, 0.44180635, -0.4174135, 0.448947, 7.606450080871582, 2.3605902194976807, 2.382108449935913, -31.11402130126953, -12.659134864807129, 7.8124566078186035, 
359, 3419977075, 0.65531594, 0.43997854, -0.42115828, 0.4467724, 7.494962215423584, 2.2515714168548584, 2.3214101791381836, -27.200908660888672, -16.39320945739746, 7.843841552734375, 
360, 3419993742, 0.65518343, 0.43863767, -0.42493156, 0.44470757, 7.323038101196289, 2.09580659866333, 2.278559446334839, -23.556137084960938, -19.039823532104492, 8.36858081817627, 
361, 3420010409, 0.65475583, 0.4376596, -0.4287563, 0.44262525, 7.114737033843994, 2.0510590076446533, 2.2623438835144043, -21.805246353149414, -21.42986488342285, 8.140523910522461, 
362, 3420027076, 0.6544348, 0.43660328, -0.432809, 0.44019216, 6.92209005355835, 2.0297961235046387, 2.2182910442352295, -23.0789852142334, -22.735902786254883, 7.454964637756348, 
363, 3420043743, 0.6542939, 0.43555626, -0.43688676, 0.43740207, 6.835714340209961, 1.9969836473464966, 2.27420973777771, -24.804454803466797, -23.447887420654297, 5.329959869384766, 
364, 3420060410, 0.6544846, 0.43429556, -0.4410276, 0.4342028, 6.8494181632995605, 1.9066158533096313, 2.336149215698242, -27.50045394897461, -23.19936752319336, 3.4948818683624268, 
365, 3420077077, 0.65493256, 0.43296102, -0.44504753, 0.43074495, 6.946661472320557, 1.8711687326431274, 2.4750728607177734, -29.167722702026367, -22.485734939575195, 1.383463740348816, 
366, 3420093744, 0.65567553, 0.43157506, -0.44874945, 0.42714947, 7.082180500030518, 1.6308444738388062, 2.602844476699829, -29.318096160888672, -20.34895133972168, -0.8008550405502319, 
367, 3420110411, 0.65634996, 0.43059903, -0.45167205, 0.42400652, 7.163158893585205, 1.3546637296676636, 2.6834189891815186, -23.6232967376709, -16.94759750366211, -2.1583311557769775, 
368, 3420127078, 0.65661126, 0.4305205, -0.45350784, 0.42171597, 7.34210205078125, 1.2784864902496338, 2.768723249435425, -13.119603157043457, -13.56275463104248, -3.262953042984009, 
369, 3420143745, 0.6564295, 0.43109822, -0.45453462, 0.42030102, 7.6472883224487305, 1.441434621810913, 2.8871524333953857, -3.966749906539917, -10.672080993652344, -2.5309524536132812, 
370, 3420160412, 0.65607226, 0.43179324, -0.45520613, 0.4194177, 8.030778884887695, 1.5505588054656982, 2.9828290939331055, 1.206076741218567, -8.119489669799805, -0.7393811941146851, 
371, 3420177079, 0.6555318, 0.43245846, -0.4556266, 0.41912094, 8.486736297607422, 1.7776645421981812, 3.122617721557617, 4.128408908843994, -5.769395351409912, 1.75663423538208, 
372, 3420193746, 0.654931, 0.43289378, -0.45600283, 0.41920155, 8.952966690063477, 1.935826301574707, 3.1281960010528564, 4.209588050842285, -4.073821544647217, 4.130278587341309, 
373, 3420210413, 0.6542881, 0.4331684, -0.45634884, 0.41954517, 9.402498245239258, 2.024357795715332, 3.0906808376312256, 5.039005279541016, -2.7487876415252686, 5.952123641967773, 
374, 3420227080, 0.6534437, 0.43354264, -0.45641732, 0.420399, 9.667487144470215, 2.0595598220825195, 3.0230162143707275, 6.656575679779053, -1.283023715019226, 7.293000221252441, 
375, 3420243747, 0.6525276, 0.43398237, -0.45641473, 0.4213701, 9.758858680725098, 2.131744623184204, 2.9625155925750732, 8.700177192687988, -0.8613490462303162, 7.808265686035156, 
376, 3420260414, 0.65130085, 0.43467292, -0.4563573, 0.42261642, 10.20172119140625, 2.3144383430480957, 3.009744167327881, 11.299755096435547, -1.6064233779907227, 8.890303611755371, 
377, 3420277081, 0.64980537, 0.4353609, -0.4565737, 0.42397457, 11.398283958435059, 2.6031482219696045, 3.2216427326202393, 11.419522285461426, -3.3943965435028076, 10.952742576599121, 
378, 3420293748, 0.64831436, 0.4354738, -0.457175, 0.42549056, 12.764749526977539, 2.666250228881836, 3.335909366607666, 8.007023811340332, -3.00439190864563, 14.564202308654785, 
379, 3420310415, 0.6467557, 0.43501574, -0.45806184, 0.42737335, 13.740636825561523, 2.529538631439209, 3.135930061340332, 5.966640949249268, -1.735269546508789, 19.04241943359375, 
380, 3420327082, 0.64515495, 0.43459564, -0.45845422, 0.42979234, 13.470416069030762, 2.193936347961426, 2.672031879425049, 9.481940269470215, 1.8358572721481323, 19.96293067932129, 
381, 3420343749, 0.64327663, 0.4352664, -0.457731, 0.4326903, 12.035173416137695, 1.9488219022750854, 2.2404775619506836, 19.891508102416992, 4.113293647766113, 16.11431884765625, 
382, 3420360416, 0.64128405, 0.4370395, -0.45608634, 0.43558788, 10.972550392150879, 2.1361501216888428, 2.217874050140381, 27.98774528503418, 4.587004661560059, 10.246929168701172, 
383, 3420377083, 0.6396391, 0.43894252, -0.45437688, 0.43787354, 10.815753936767578, 2.6573615074157715, 2.493884801864624, 25.789236068725586, 3.7450597286224365, 5.90791654586792, 
384, 3420393750, 0.6387344, 0.43956384, -0.4538584, 0.4391068, 12.178115844726562, 3.1682822704315186, 2.8268649578094482, 10.946592330932617, 1.4869589805603027, 6.643272399902344, 
385, 3420410417, 0.6390079, 0.43768433, -0.4549772, 0.43942827, 13.67879867553711, 3.453080177307129, 2.947700023651123, -11.295320510864258, 2.7795183658599854, 11.868897438049316, 
386, 3420427084, 0.6402553, 0.4335429, -0.45727813, 0.4393298, 14.32288646697998, 3.229496717453003, 2.558648109436035, -29.08641242980957, 6.19081974029541, 17.72699546813965, 
387, 3420443751, 0.64192754, 0.4284441, -0.45992798, 0.4391253, 13.900445938110352, 2.938511848449707, 1.9930003881454468, -35.8992805480957, 8.581151962280273, 20.050640106201172, 
388, 3420460418, 0.643875, 0.42342085, -0.46227247, 0.4386845, 12.742175102233887, 2.65523624420166, 1.6566712856292725, -36.178096771240234, 9.893194198608398, 17.055240631103516, 
389, 3420477085, 0.64610744, 0.41907302, -0.46376806, 0.4379981, 11.517574310302734, 2.115327835083008, 1.4384574890136719, -32.2229118347168, 11.825615882873535, 10.505122184753418, 
390, 3420493752, 0.64856166, 0.41590482, -0.46392906, 0.4372196, 10.211211204528809, 1.6447422504425049, 1.3708176612854004, -23.88349151611328, 14.667435646057129, 1.8297762870788574, 
391, 3420510419, 0.65107226, 0.41436264, -0.4625127, 0.43645248, 9.193599700927734, 1.3914624452590942, 1.3620915412902832, -12.002650260925293, 17.04722785949707, -7.980270862579346, 
392, 3420527086, 0.6536111, 0.41455126, -0.45953044, 0.43562782, 8.562213897705078, 1.4241082668304443, 1.426348090171814, 0.1714133769273758, 18.810457229614258, -18.29152488708496, 
393, 3420543753, 0.65638584, 0.4158427, -0.4555057, 0.43445045, 8.210253715515137, 1.8796466588974, 1.5800281763076782, 6.4651713371276855, 19.95264434814453, -27.036447525024414, 
394, 3420560420, 0.6598431, 0.4171022, -0.45123985, 0.4324529, 8.071847915649414, 2.3021602630615234, 1.6760070323944092, 2.5787649154663086, 20.956260681152344, -33.33828353881836, 
395, 3420577087, 0.6641498, 0.41745174, -0.4473895, 0.42951342, 7.891704082489014, 2.417741060256958, 1.617197036743164, -8.123510360717773, 21.731861114501953, -36.099159240722656, 
396, 3420593754, 0.66915953, 0.41668367, -0.44419748, 0.4257806, 7.711488723754883, 2.426321506500244, 1.5476537942886353, -19.67589569091797, 21.91748046875, -36.46140670776367, 
397, 3420610421, 0.67461747, 0.41485173, -0.4417528, 0.42147836, 7.549515724182129, 2.369307279586792, 1.5129897594451904, -29.792762756347656, 21.344219207763672, -34.98549270629883, 
398, 3420627088, 0.6801743, 0.41231197, -0.43984997, 0.4170058, 7.395269870758057, 2.0998167991638184, 1.5141770839691162, -35.42695999145508, 20.712265014648438, -32.34528732299805, 
399, 3420643755, 0.68541384, 0.40975586, -0.43795133, 0.4129248, 7.258961200714111, 1.7219055891036987, 1.5077900886535645, -33.44865417480469, 20.89825439453125, -29.536603927612305, 
400, 3420660422, 0.6900167, 0.40770486, -0.43564734, 0.40971363, 7.120481491088867, 1.508328914642334, 1.4875766038894653, -25.495092391967773, 21.924497604370117, -26.28700065612793, 
401, 3420677089, 0.69391596, 0.40634573, -0.43269697, 0.4075993, 7.079601287841797, 1.5129048824310303, 1.508487343788147, -15.210728645324707, 24.006431579589844, -23.010845184326172, 
402, 3420693756, 0.69731194, 0.4054083, -0.42912227, 0.40651485, 7.007379531860352, 1.5944674015045166, 1.4684199094772339, -6.981595993041992, 27.20185661315918, -19.68892478942871, 
403, 3420710423, 0.7003525, 0.40475458, -0.42480013, 0.406479, 6.887207508087158, 1.4395713806152344, 1.4130680561065674, 0.5573603510856628, 31.888538360595703, -16.586414337158203, 
404, 3420727090, 0.7029698, 0.404619, -0.419484, 0.4076152, 6.67477560043335, 1.2670130729675293, 1.2398172616958618, 10.453388214111328, 37.2824592590332, -14.033956527709961, 
405, 3420743757, 0.70492435, 0.4054849, -0.41304255, 0.40995064, 6.592671871185303, 1.247104525566101, 1.035638451576233, 23.701501846313477, 41.356689453125, -12.419788360595703, 
406, 3420760424, 0.70617956, 0.40750158, -0.40548345, 0.41332355, 6.584686756134033, 1.2951949834823608, 0.9689539670944214, 37.35845184326172, 44.4846305847168, -11.797628402709961, 
407, 3420777091, 0.70673245, 0.41055894, -0.39691442, 0.4176477, 6.654923915863037, 1.3167613744735718, 1.0409495830535889, 49.834102630615234, 47.16282272338867, -10.941476821899414, 
408, 3420793758, 0.7066411, 0.41440603, -0.38752565, 0.4227887, 6.621057987213135, 1.3966182470321655, 1.0845363140106201, 60.08686065673828, 49.47758865356445, -9.592747688293457, 
409, 3420810425, 0.70596933, 0.41887677, -0.37751567, 0.42852247, 6.5438361167907715, 1.43509042263031, 1.1719764471054077, 68.17868041992188, 50.880126953125, -8.455334663391113, 
410, 3420827092, 0.7046504, 0.42394653, -0.3670071, 0.4347907, 6.622557163238525, 1.489119052886963, 1.266577124595642, 75.78489685058594, 51.436336517333984, -6.959657669067383, 
411, 3420843759, 0.702734, 0.42948678, -0.35627103, 0.4413358, 6.6966071128845215, 1.563546895980835, 1.4331663846969604, 81.21229553222656, 50.49028015136719, -5.681419849395752, 
412, 3420860426, 0.7000992, 0.43535092, -0.34577262, 0.44807595, 7.0286641120910645, 1.7918280363082886, 1.6231770515441895, 84.56643676757812, 47.19178771972656, -2.701902389526367, 
413, 3420877093, 0.69652444, 0.44131058, -0.33636016, 0.45492953, 7.858996391296387, 2.256737232208252, 1.9266369342803955, 84.78492736816406, 39.828392028808594, 3.7581779956817627, 
414, 3420893760, 0.6918231, 0.44675583, -0.32912076, 0.46202776, 9.405817031860352, 2.6964824199676514, 2.3565285205841064, 79.54503631591797, 29.222957611083984, 16.2386474609375, 
415, 3420910427, 0.6857454, 0.45128757, -0.3248355, 0.46965405, 10.903139114379883, 2.9945068359375, 2.872824192047119, 71.2176284790039, 16.616363525390625, 34.23274612426758, 
416, 3420927094, 0.67810804, 0.45481148, -0.3235297, 0.47816813, 11.80974292755127, 2.6660172939300537, 3.1822333335876465, 63.71243667602539, 5.148037433624268, 54.941184997558594, 
417, 3420943761, 0.667941, 0.45906374, -0.32423204, 0.48784116, 11.722687721252441, 2.068359375, 3.2549798488616943, 71.00341796875, -8.579437255859375, 73.27680969238281, 
418, 3420960428, 0.65492266, 0.46522343, -0.32577214, 0.498514, 11.31639289855957, 1.903633713722229, 3.4198923110961914, 88.16780090332031, -22.009187698364258, 85.75792694091797, 
419, 3420977095, 0.6389919, 0.47358444, -0.32767278, 0.50993913, 11.813796043395996, 2.1202666759490967, 3.6025218963623047, 107.86113739013672, -35.281742095947266, 95.29132080078125, 
420, 3420993762, 0.6208489, 0.4827787, -0.33116174, 0.5213477, 13.590057373046875, 2.870828628540039, 4.007906913757324, 113.11936950683594, -50.21629333496094, 106.2043228149414, 
421, 3421010429, 0.6019223, 0.49077448, -0.3377966, 0.53171754, 16.12517738342285, 3.7569754123687744, 4.535092830657959, 96.98146057128906, -64.57728576660156, 117.7009048461914, 
422, 3421027096, 0.5843285, 0.49554968, -0.34825972, 0.5400982, 17.74730682373047, 4.024816989898682, 4.850257873535156, 60.5943603515625, -72.25884246826172, 124.96754455566406, 
423, 3421043763, 0.5692438, 0.49706885, -0.3614766, 0.5460942, 17.184654235839844, 3.289113759994507, 4.792418479919434, 23.056549072265625, -73.35962677001953, 123.22490692138672, 
424, 3421060430, 0.55702823, 0.49641666, -0.3752175, 0.55000174, 15.533000946044922, 2.3376362323760986, 4.521069526672363, -2.438814163208008, -67.30162811279297, 111.43360137939453, 
425, 3421077097, 0.54763544, 0.49524915, -0.38673776, 0.5525013, 12.879294395446777, 1.351845383644104, 4.137159824371338, -9.19222354888916, -54.39516067504883, 89.11416625976562, 
426, 3421093764, 0.540375, 0.4952966, -0.39427143, 0.55428004, 10.19724178314209, 0.438097208738327, 3.6166391372680664, 1.355181097984314, -40.82772445678711, 61.47496795654297, 
427, 3421110431, 0.534234, 0.49761856, -0.39708868, 0.5561389, 8.806199073791504, 0.7351922392845154, 3.540583610534668, 24.240427017211914, -28.69962501525879, 35.26301956176758, 
428, 3421127098, 0.530304, 0.5004175, -0.3971551, 0.55734, 8.30811595916748, 2.096884250640869, 3.6055850982666016, 27.124704360961914, -16.67656898498535, 13.662408828735352, 
429, 3421143765, 0.5298727, 0.50150216, -0.39729476, 0.55667543, 7.817156791687012, 3.1309115886688232, 3.4959728717803955, 3.495558261871338, -7.279648780822754, -1.5903888940811157, 
430, 3421160432, 0.53284365, 0.50004023, -0.39865595, 0.5541758, 7.219405174255371, 2.731145143508911, 3.1653800010681152, -27.251079559326172, 0.9364799857139587, -10.094629287719727, 
431, 3421177099, 0.5373722, 0.49764115, -0.39985266, 0.5510919, 6.721795558929443, 1.838957667350769, 2.775830030441284, -37.071659088134766, 7.325172424316406, -16.138700485229492, 
432, 3421193766, 0.5420657, 0.49578616, -0.39977622, 0.5482152, 6.373119354248047, 1.714789628982544, 2.7142796516418457, -30.214889526367188, 11.100576400756836, -21.822898864746094, 
433, 3421210433, 0.546841, 0.49423188, -0.3989688, 0.5454573, 6.384018421173096, 1.8884254693984985, 2.8050050735473633, -26.949844360351562, 13.223292350769043, -25.112751007080078, 
434, 3421227100, 0.551838, 0.49260893, -0.3979148, 0.54265565, 6.156804084777832, 1.794600486755371, 2.628352642059326, -26.50444793701172, 14.906548500061035, -26.609872817993164, 
435, 3421243767, 0.556581, 0.49121466, -0.39675903, 0.539915, 5.959235191345215, 2.032928943634033, 2.6685023307800293, -24.244548797607422, 13.92355728149414, -26.384794235229492, 
436, 3421260434, 0.5612148, 0.4897352, -0.3960192, 0.5369975, 5.75313138961792, 2.205404758453369, 2.7407326698303223, -26.177509307861328, 11.732571601867676, -24.985050201416016, 
437, 3421277101, 0.5656097, 0.48831362, -0.39596877, 0.5337081, 5.598851680755615, 2.2422828674316406, 2.692411184310913, -28.73430633544922, 6.924441337585449, -23.355295181274414, 
438, 3421293768, 0.5698694, 0.48668882, -0.3970704, 0.52982837, 5.578996181488037, 2.459211826324463, 2.6284801959991455, -34.87376403808594, 0.8152183890342712, -20.702369689941406, 
439, 3421310435, 0.574189, 0.4844414, -0.39983776, 0.52512234, 5.5580153465271, 2.7731587886810303, 2.646153211593628, -46.533443450927734, -6.171236515045166, -17.009767532348633, 
440, 3421327102, 0.5789889, 0.48109493, -0.40467092, 0.51919264, 5.728637218475342, 3.0350422859191895, 2.759047746658325, -63.29609298706055, -13.147809982299805, -13.643346786499023, 
441, 3421343769, 0.58456206, 0.47621593, -0.41160852, 0.51194143, 6.1827898025512695, 2.9946448802948, 2.8771543502807617, -83.14550018310547, -18.31194496154785, -10.409327507019043, 
442, 3421360436, 0.59075123, 0.46980697, -0.42020062, 0.5037121, 6.8372483253479, 2.7254457473754883, 2.853282928466797, -99.9036865234375, -21.076427459716797, -6.7341156005859375, 
443, 3421377103, 0.5972869, 0.46208763, -0.42971626, 0.49504277, 7.672312259674072, 2.4153261184692383, 2.7708816528320312, -110.81481170654297, -20.750041961669922, -2.933137893676758, 
444, 3421393770, 0.6039245, 0.45352638, -0.43923846, 0.48647586, 8.211069107055664, 2.19403076171875, 2.646705389022827, -114.31436157226562, -17.320383071899414, -0.3402615189552307, 
445, 3421410437, 0.6105031, 0.4447195, -0.44807032, 0.4782718, 8.489538192749023, 1.9171291589736938, 2.4480230808258057, -111.74385070800781, -12.710094451904297, -0.04073241353034973, 
446, 3421427104, 0.61663145, 0.43647403, -0.45571092, 0.4707269, 9.075224876403809, 1.7302883863449097, 2.314352035522461, -102.0604476928711, -8.953243255615234, -1.1641722917556763, 
447, 3421443771, 0.6220625, 0.42906725, -0.46190727, 0.46430752, 10.760066986083984, 1.5794825553894043, 2.4055044651031494, -88.20974731445312, -4.370523929595947, -1.0991159677505493, 
448, 3421460438, 0.6269087, 0.42260492, -0.466076, 0.45952567, 12.972572326660156, 1.1896119117736816, 2.3910868167877197, -70.77070617675781, 4.248863697052002, -1.213852047920227, 
449, 3421477105, 0.6310387, 0.4179971, -0.4670682, 0.45707333, 14.472562789916992, 0.5976781845092773, 2.1067283153533936, -43.195091247558594, 16.55654525756836, -4.095469951629639, 
450, 3421493772, 0.6341867, 0.4165077, -0.46409708, 0.45710245, 14.217314720153809, 0.42779839038848877, 1.7770962715148926, -6.419223785400391, 27.94667625427246, -11.669384002685547, 
451, 3421510439, 0.6365661, 0.41807622, -0.45790005, 0.45861065, 13.790087699890137, 1.0951133966445923, 1.7767605781555176, 23.97209930419922, 34.21400833129883, -21.820314407348633, 
452, 3421527106, 0.63894963, 0.42111787, -0.44996384, 0.4603649, 14.980377197265625, 1.8855323791503906, 1.9277247190475464, 36.66339874267578, 37.93077850341797, -30.40238380432129, 
453, 3421543773, 0.6416375, 0.4246267, -0.44107005, 0.4620075, 16.97610092163086, 2.126361846923828, 2.07685923576355, 40.514251708984375, 41.31195068359375, -36.073970794677734, 
454, 3421560440, 0.6448887, 0.42801547, -0.4311041, 0.46375728, 17.745037078857422, 1.9763346910476685, 2.033277750015259, 42.06377410888672, 48.48615264892578, -40.161773681640625, 
455, 3421577107, 0.6488593, 0.43137592, -0.4198546, 0.4654233, 15.3993501663208, 1.9903708696365356, 1.832320213317871, 43.657283782958984, 56.20284652709961, -46.53367233276367, 
456, 3421593774, 0.65354276, 0.43474054, -0.40838346, 0.46594587, 13.076773643493652, 2.3951213359832764, 1.5552631616592407, 38.96054458618164, 55.88849639892578, -54.597293853759766, 
457, 3421610441, 0.65937746, 0.43731362, -0.39755172, 0.46468356, 11.998888969421387, 2.5625832080841064, 1.4487671852111816, 24.890832901000977, 53.488277435302734, -62.176856994628906, 
458, 3421627108, 0.666292, 0.4389534, -0.38746133, 0.46178865, 11.406685829162598, 2.21030592918396, 1.3792204856872559, 10.568700790405273, 51.18645095825195, -68.25196075439453, 
459, 3421643775, 0.67346287, 0.44039258, -0.37777746, 0.45802444, 10.95036506652832, 1.9250085353851318, 1.4391412734985352, 5.256939888000488, 48.0547981262207, -71.2968521118164, 
460, 3421660442, 0.6804033, 0.44193673, -0.36841357, 0.45388862, 10.15722370147705, 1.9364259243011475, 1.627479910850525, 4.457861423492432, 44.55312728881836, -71.61236572265625, 
461, 3421677109, 0.6869386, 0.44342902, -0.3598969, 0.44939986, 9.205214500427246, 2.105086088180542, 1.7901207208633423, 1.898481011390686, 38.67988967895508, -69.31117248535156, 
462, 3421693776, 0.6931657, 0.4444123, -0.35275438, 0.4445035, 8.339888572692871, 2.278660774230957, 1.9136855602264404, -4.8284478187561035, 31.777379989624023, -64.84754943847656, 
463, 3421710443, 0.6993916, 0.4443628, -0.34722224, 0.43912417, 7.499294281005859, 2.3419461250305176, 1.9684451818466187, -15.84829330444336, 25.7955322265625, -59.730525970458984, 
464, 3421727110, 0.7057031, 0.44307566, -0.3432901, 0.43338105, 6.686750411987305, 2.156806230545044, 1.9007488489151, -27.766626358032227, 20.940698623657227, -53.8999137878418, 
465, 3421743777, 0.7118844, 0.44089895, -0.34055373, 0.42761204, 6.057773113250732, 1.8104487657546997, 1.8566120862960815, -35.31632614135742, 17.408483505249023, -47.90163040161133, 
466, 3421760444, 0.7175302, 0.43833166, -0.33849266, 0.42241997, 5.583245277404785, 1.392103672027588, 1.7924405336380005, -36.24216079711914, 15.75183391571045, -40.550437927246094, 
467, 3421777111, 0.722169, 0.4362079, -0.3364946, 0.41828978, 5.1379547119140625, 1.2195378541946411, 1.7660019397735596, -28.73061752319336, 15.012370109558105, -33.24045944213867, 
468, 3421793778, 0.7256813, 0.43468624, -0.33453855, 0.41535345, 4.800512313842773, 1.3088297843933105, 1.7800053358078003, -19.72014045715332, 14.050444602966309, -25.35297393798828, 
469, 3421810445, 0.72813964, 0.43352595, -0.33284587, 0.41361997, 4.715137004852295, 1.4258869886398315, 1.7810250520706177, -12.751736640930176, 12.87775993347168, -16.39764976501465, 
470, 3421827112, 0.7296254, 0.43245244, -0.33161822, 0.4131117, 4.909273147583008, 1.519423484802246, 1.8141660690307617, -7.935838222503662, 11.732545852661133, -6.319521903991699, 
471, 3421843779, 0.73012775, 0.43140295, -0.3308124, 0.41396642, 5.428971290588379, 1.4468446969985962, 1.8665803670883179, -2.978867530822754, 11.363452911376953, 4.501562595367432, 
472, 3421860446, 0.7296149, 0.43055886, -0.3299957, 0.41639403, 5.889970779418945, 1.2927101850509644, 1.8667258024215698, 4.673376083374023, 13.198934555053711, 14.774679183959961, 
473, 3421877113, 0.7278999, 0.4304637, -0.3287326, 0.4204731, 5.9271016120910645, 1.1048704385757446, 1.7467796802520752, 17.01734733581543, 15.469975471496582, 23.46050453186035, 
474, 3421893780, 0.72482586, 0.43164086, -0.32683614, 0.42601874, 5.884570121765137, 1.1031992435455322, 1.701626181602478, 32.55830001831055, 16.246301651000977, 29.95833396911621, 
475, 3421910447, 0.72061926, 0.4339159, -0.32444525, 0.43262035, 5.9464311599731445, 1.262975811958313, 1.7457774877548218, 45.21696472167969, 16.10100746154785, 34.5822868347168, 
476, 3421927114, 0.7156522, 0.43682265, -0.32187912, 0.43979755, 6.057097434997559, 1.5165605545043945, 1.8536458015441895, 52.426666259765625, 15.128350257873535, 37.74507522583008, 
477, 3421943781, 0.71012485, 0.43980768, -0.31961653, 0.44736725, 6.460557460784912, 1.6500335931777954, 1.9717503786087036, 54.449119567871094, 13.353897094726562, 42.09083938598633, 
478, 3421960448, 0.70375496, 0.4430168, -0.31804577, 0.45531526, 7.051312446594238, 1.9677923917770386, 2.1051456928253174, 56.798744201660156, 8.593807220458984, 48.11143493652344, 
479, 3421977115, 0.696282, 0.44633788, -0.31800947, 0.46351245, 8.081023216247559, 2.483842134475708, 2.2757959365844727, 56.445796966552734, -0.815994381904602, 57.1847038269043, 
480, 3421993782, 0.68745244, 0.44934258, -0.3204256, 0.47204667, 9.600445747375488, 2.764254570007324, 2.546666145324707, 52.019596099853516, -13.459972381591797, 71.32654571533203, 
481, 3422010449, 0.6773496, 0.451662, -0.3252889, 0.48102608, 11.041637420654297, 2.7764999866485596, 2.7864255905151367, 45.75801086425781, -24.207181930541992, 86.62105560302734, 
482, 3422027116, 0.6655964, 0.45397374, -0.33187783, 0.49065918, 11.919902801513672, 2.427429437637329, 2.8455753326416016, 46.61074447631836, -33.85051345825195, 100.48429870605469, 
483, 3422043783, 0.651628, 0.45736715, -0.33968878, 0.5008073, 12.642278671264648, 2.5455117225646973, 2.9070370197296143, 55.5400505065918, -46.51013946533203, 111.63984680175781, 
484, 3422060450, 0.6357899, 0.4615645, -0.3485407, 0.5111253, 13.92567253112793, 2.7082388401031494, 2.9867045879364014, 61.848793029785156, -57.74590301513672, 120.21602630615234, 
485, 3422077117, 0.61831564, 0.46646655, -0.35840398, 0.5211923, 15.512483596801758, 2.61572265625, 3.055065870285034, 65.9795150756836, -69.3338623046875, 126.3735122680664, 
486, 3422093784, 0.5995922, 0.47194162, -0.36919948, 0.5305208, 17.983442306518555, 2.9150094985961914, 3.488635540008545, 67.27874755859375, -80.7673568725586, 129.27151489257812, 
487, 3422110451, 0.5816181, 0.47625798, -0.38044634, 0.53866446, 19.15454864501953, 3.073989152908325, 3.9048948287963867, 55.42945861816406, -80.31696319580078, 126.04315185546875, 
488, 3422127118, 0.5655968, 0.47942862, -0.39089555, 0.54538906, 17.07644271850586, 2.5523343086242676, 3.6456823348999023, 43.70709228515625, -72.40342712402344, 113.51229095458984, 
489, 3422143785, 0.55191755, 0.4824176, -0.399543, 0.5504778, 14.367853164672852, 1.9793192148208618, 3.210432529449463, 37.65146255493164, -63.806583404541016, 92.9151840209961, 
490, 3422160452, 0.54095894, 0.48583588, -0.40548745, 0.5539918, 11.57787036895752, 1.3817318677902222, 2.8882720470428467, 36.17057800292969, -52.9263916015625, 66.49785614013672, 
491, 3422177119, 0.5324677, 0.4904197, -0.4082754, 0.5561278, 9.479705810546875, 1.3857619762420654, 2.895183563232422, 40.451934814453125, -43.36150360107422, 38.18254852294922, 
492, 3422193786, 0.52662003, 0.49535894, -0.408913, 0.55684924, 8.806916236877441, 2.0983262062072754, 3.2048401832580566, 37.08878707885742, -34.217926025390625, 14.650233268737793, 
493, 3422210453, 0.52375394, 0.49917606, -0.40904176, 0.5560485, 8.917289733886719, 2.776428699493408, 3.4721481800079346, 20.53896141052246, -24.910341262817383, -0.8360591530799866, 
494, 3422227120, 0.5238997, 0.5009828, -0.40976417, 0.5537497, 8.813672065734863, 2.8701095581054688, 3.499674081802368, -3.525688886642456, -16.067785263061523, -10.025277137756348, 
495, 3422243787, 0.5259364, 0.5012944, -0.4108901, 0.55069435, 8.590002059936523, 2.5170860290527344, 3.307302951812744, -19.09634017944336, -9.141864776611328, -14.315205574035645, 
496, 3422260454, 0.52850574, 0.5011342, -0.41178212, 0.54770607, 8.29582691192627, 1.8995001316070557, 3.083740711212158, -21.567218780517578, -4.8073554039001465, -15.535849571228027, 
497, 3422277121, 0.5303136, 0.501798, -0.41142723, 0.54561335, 7.861525535583496, 1.3773326873779297, 3.0157053470611572, -8.721306800842285, -2.4786267280578613, -16.025287628173828, 
498, 3422293788, 0.53082484, 0.50379777, -0.40963235, 0.544623, 7.4656662940979, 1.5292441844940186, 3.245546579360962, 9.143282890319824, -2.1330347061157227, -15.88083553314209, 
499, 3422310455, 0.53079325, 0.50624496, -0.40737784, 0.54407537, 7.25092887878418, 2.032285451889038, 3.488337278366089, 15.62395191192627, -2.1595447063446045, -15.074833869934082, 
500, 3422327122, 0.53083706, 0.50841403, -0.40538642, 0.5434974, 6.9482855796813965, 2.114945411682129, 3.3861491680145264, 13.275129318237305, -2.0091328620910645, -13.75922966003418, 
501, 3422343789, 0.5311015, 0.5101449, -0.403862, 0.54275125, 6.763378143310547, 2.2087621688842773, 3.3516182899475098, 8.690190315246582, -2.083972692489624, -12.32681941986084, 
502, 3422360456, 0.5321058, 0.5108569, -0.40327874, 0.54153025, 6.671806812286377, 2.4181501865386963, 3.333639144897461, -2.451782703399658, -1.3659192323684692, -10.672745704650879, 
503, 3422377123, 0.5342474, 0.51018673, -0.4039937, 0.5395168, 6.577488422393799, 2.493854284286499, 3.29427433013916, -18.538799285888672, -0.634126603603363, -9.394540786743164, 
504, 3422393790, 0.53746, 0.50838035, -0.40572506, 0.5367248, 6.522826671600342, 2.1496288776397705, 3.221625328063965, -32.39931869506836, 0.05543891340494156, -9.484951972961426, 
505, 3422410457, 0.5412826, 0.5061056, -0.40764743, 0.53356737, 6.484038352966309, 1.7531523704528809, 3.085519790649414, -37.98774337768555, 1.4677950143814087, -11.0949125289917, 
506, 3422427124, 0.5454591, 0.5038217, -0.40927458, 0.53021926, 6.578804969787598, 1.7647013664245605, 3.0821855068206787, -38.70106506347656, 2.896775484085083, -14.094490051269531, 
507, 3422443791, 0.5502806, 0.50117105, -0.41078615, 0.526568, 6.855705261230469, 1.9438976049423218, 3.028895854949951, -42.742584228515625, 5.401003360748291, -16.941551208496094, 
508, 3422460458, 0.5558917, 0.49789783, -0.41228226, 0.5225951, 7.159717559814453, 1.9589401483535767, 2.9606361389160156, -48.67030715942383, 8.805874824523926, -19.301698684692383, 
509, 3422477125, 0.5621936, 0.49406016, -0.41355315, 0.5184757, 7.574522972106934, 1.8624671697616577, 2.868924379348755, -52.79865264892578, 13.122620582580566, -21.505203247070312, 
510, 3422493792, 0.56895316, 0.48992747, -0.41418907, 0.5145007, 7.897013187408447, 1.591732144355774, 2.6199638843536377, -52.814029693603516, 18.397611618041992, -23.88853645324707, 
511, 3422510459, 0.5758582, 0.48593858, -0.41379866, 0.510903, 7.921960353851318, 1.4770032167434692, 2.4298152923583984, -48.04304504394531, 23.567245483398438, -26.792343139648438, 
512, 3422527126, 0.58282197, 0.48230135, -0.4123993, 0.5075736, 7.87366247177124, 1.5515198707580566, 2.3302388191223145, -42.534812927246094, 27.37580680847168, -30.307628631591797, 
513, 3422543793, 0.5898564, 0.4789334, -0.41038764, 0.5042564, 8.066932678222656, 1.8759313821792603, 2.2926154136657715, -39.51758575439453, 29.11773109436035, -33.29705810546875, 
514, 3422560460, 0.59686804, 0.4755796, -0.40861517, 0.5006062, 8.999783515930176, 2.3058016300201416, 2.340893268585205, -41.15436935424805, 26.927379608154297, -33.81791687011719, 
515, 3422577127, 0.60382354, 0.4717068, -0.40777886, 0.49659464, 10.985136985778809, 2.6875689029693604, 2.5658211708068848, -47.34020233154297, 23.5240478515625, -30.581174850463867, 
516, 3422593794, 0.6108536, 0.46686023, -0.40791634, 0.4924467, 13.191747665405273, 2.704031229019165, 2.744321823120117, -55.33367919921875, 22.568939208984375, -25.50858497619629, 
517, 3422610461, 0.6177034, 0.46139705, -0.40848666, 0.48856324, 14.457165718078613, 2.4336538314819336, 2.583268165588379, -58.0707893371582, 23.183631896972656, -20.666553497314453, 
518, 3422627128, 0.62441885, 0.45579952, -0.40886325, 0.4849524, 14.580770492553711, 2.260363817214966, 2.283390522003174, -56.80201721191406, 24.955080032348633, -19.30098533630371, 
519, 3422643795, 0.6308501, 0.45045465, -0.40867972, 0.48176745, 13.91792106628418, 2.294792652130127, 1.9410629272460938, -51.76359558105469, 27.068870544433594, -18.996824264526367, 
520, 3422660462, 0.63670534, 0.4458194, -0.40805957, 0.47889358, 14.862433433532715, 2.324646234512329, 1.7893427610397339, -44.58606719970703, 25.97593116760254, -19.091428756713867, 
521, 3422677129, 0.6418418, 0.4419824, -0.40678042, 0.4766765, 17.349639892578125, 2.1525657176971436, 1.8843168020248413, -34.88379669189453, 26.257183074951172, -18.11588478088379, 
522, 3422693796, 0.64635545, 0.43919137, -0.40356177, 0.4758924, 18.230106353759766, 1.2543590068817139, 1.6217913627624512, -18.014150619506836, 34.03821563720703, -18.58275604248047, 
523, 3422710463, 0.6496829, 0.4391326, -0.3972478, 0.47672734, 15.856987953186035, 1.0066171884536743, 1.3806806802749634, 12.325945854187012, 40.500675201416016, -24.460275650024414, 
524, 3422727130, 0.65232414, 0.44139576, -0.38906956, 0.47777402, 13.667967796325684, 2.015873670578003, 1.3237364292144775, 31.455671310424805, 40.028724670410156, -33.2607421875, 
525, 3422743797, 0.65580213, 0.44379252, -0.38069588, 0.47753817, 12.005789756774902, 2.3609585762023926, 1.274161458015442, 26.717632293701172, 38.84902572631836, -42.722591400146484, 
526, 3422760464, 0.6603527, 0.44578105, -0.37266427, 0.47574663, 10.498536109924316, 2.177067756652832, 1.238673448562622, 16.399826049804688, 36.73984909057617, -51.152156829833984, 
527, 3422777131, 0.6654891, 0.44760782, -0.36524552, 0.4726174, 9.468840599060059, 2.1699612140655518, 1.3038623332977295, 8.42907428741455, 31.91375160217285, -56.854434967041016, 
528, 3422793798, 0.67108583, 0.4490292, -0.3588658, 0.46822238, 8.844552040100098, 2.428454875946045, 1.5102908611297607, -1.4034624099731445, 25.759540557861328, -59.928279876708984, 
529, 3422810465, 0.67715895, 0.4494389, -0.35408658, 0.46269128, 8.345870971679688, 2.5249598026275635, 1.733607530593872, -15.508260726928711, 19.316482543945312, -59.26774597167969, 
530, 3422827132, 0.68339103, 0.44867998, -0.35095677, 0.45660985, 7.757715702056885, 2.3653171062469482, 1.7671492099761963, -28.035812377929688, 14.052909851074219, -54.39240646362305, 
531, 3422843799, 0.6892975, 0.4472732, -0.34919593, 0.45041978, 7.045861721038818, 2.2219443321228027, 1.777167797088623, -34.63978576660156, 8.543172836303711, -48.092220306396484, 
532, 3422860466, 0.6946415, 0.44552666, -0.34861642, 0.4443488, 6.3283467292785645, 2.035007953643799, 1.7421146631240845, -37.904212951660156, 3.018925428390503, -41.3409538269043, 
533, 3422877133, 0.69929624, 0.44361392, -0.3490404, 0.4385914, 5.738210678100586, 1.8386341333389282, 1.8006658554077148, -38.906436920166016, -1.955119013786316, -34.264156341552734, 
534, 3422893800, 0.70322394, 0.44163775, -0.3501671, 0.4333766, 5.264862060546875, 1.5941907167434692, 1.8497681617736816, -37.802032470703125, -5.226061820983887, -27.16207504272461, 
535, 3422910467, 0.70631325, 0.43983367, -0.35158202, 0.42902008, 4.857889652252197, 1.351476788520813, 1.8686619997024536, -33.23311233520508, -6.551117420196533, -20.062503814697266, 
536, 3422927134, 0.70834094, 0.43849674, -0.353001, 0.4258688, 4.539677619934082, 1.289786458015442, 1.873370885848999, -24.848440170288086, -6.8703765869140625, -12.196834564208984, 
537, 3422943801, 0.70928526, 0.43757835, -0.35450768, 0.42398575, 4.515128135681152, 1.4900577068328857, 1.9035115242004395, -16.70669174194336, -7.326003074645996, -3.5974299907684326, 
538, 3422960468, 0.7092359, 0.43681052, -0.35634774, 0.4233171, 4.91899299621582, 1.6792213916778564, 1.9791300296783447, -10.989067077636719, -8.160064697265625, 5.8575263023376465, 
539, 3422977135, 0.7081444, 0.4361151, -0.35853508, 0.42401382, 5.563914775848389, 1.6319005489349365, 1.9441196918487549, -5.195164203643799, -8.527214050292969, 16.402355194091797, 
540, 3422993802, 0.70584387, 0.43568066, -0.36094534, 0.42624563, 6.165999412536621, 1.5789319276809692, 1.9848976135253906, 2.956559419631958, -8.70622444152832, 27.469703674316406, 
541, 3423010469, 0.70232064, 0.43572438, -0.36330122, 0.4300029, 6.548327922821045, 1.5037825107574463, 1.9042847156524658, 12.749369621276855, -8.351420402526855, 37.04338455200195, 
542, 3423027136, 0.69754547, 0.4366206, -0.36530396, 0.435139, 6.795578956604004, 1.4772765636444092, 1.8595540523529053, 25.173404693603516, -8.132369041442871, 44.232154846191406, 
543, 3423043803, 0.6915813, 0.4385864, -0.36669692, 0.44146445, 6.921508312225342, 1.4362826347351074, 1.7504031658172607, 38.66118240356445, -7.82327127456665, 48.9554443359375, 
544, 3423060470, 0.68462, 0.44159812, -0.36747816, 0.44860524, 6.984347343444824, 1.5423097610473633, 1.757422924041748, 50.52396011352539, -8.143266677856445, 51.35359191894531, 
545, 3423077137, 0.6769655, 0.4453298, -0.367934, 0.45609644, 7.202960014343262, 1.7716395854949951, 1.9229193925857544, 57.922969818115234, -9.506392478942871, 52.32952117919922, 
546, 3423093804, 0.6690573, 0.44914547, -0.36825192, 0.46370378, 7.5698466300964355, 1.8821464776992798, 2.125169277191162, 59.8352165222168, -9.40117073059082, 53.02677536010742, 
547, 3423110471, 0.66096973, 0.4529251, -0.36856058, 0.47131854, 7.741713523864746, 2.0532777309417725, 2.1805999279022217, 60.2569465637207, -9.674596786499023, 53.68134307861328, 
548, 3423127138, 0.6525503, 0.45661318, -0.3693611, 0.47880596, 8.40761661529541, 2.5023465156555176, 2.3419442176818848, 58.98731231689453, -12.836654663085938, 55.94607925415039, 
549, 3423143805, 0.64417195, 0.45944, -0.37145585, 0.48577577, 9.678174018859863, 2.8847928047180176, 2.6476681232452393, 49.429771423339844, -17.32204246520996, 59.738677978515625, 
550, 3423160472, 0.6362669, 0.46075648, -0.37498388, 0.49219418, 10.943123817443848, 2.7373228073120117, 2.856476306915283, 35.06656265258789, -19.15082550048828, 64.10777282714844, 
551, 3423177139, 0.62850016, 0.4612508, -0.3791665, 0.49846584, 11.820940017700195, 2.317106008529663, 2.7474629878997803, 28.39811134338379, -19.34398651123047, 67.17656707763672, 
552, 3423193806, 0.6201891, 0.46230507, -0.38331655, 0.5046861, 12.635188102722168, 2.1603915691375732, 2.602468967437744, 32.56053924560547, -22.68787956237793, 67.26187133789062, 
553, 3423210473, 0.61115557, 0.46439776, -0.38725105, 0.510745, 13.941826820373535, 2.207683801651001, 2.761592149734497, 39.611900329589844, -27.77666664123535, 65.6519546508789, 
554, 3423227140, 0.6014029, 0.46765676, -0.3910034, 0.5164575, 16.033510208129883, 2.393171548843384, 3.1285595893859863, 46.51985549926758, -34.11739730834961, 63.02473068237305, 
555, 3423243807, 0.59108275, 0.47172135, -0.3949435, 0.521651, 19.766387939453125, 2.6173653602600098, 3.6922504901885986, 49.59003448486328, -40.94062423706055, 61.31639862060547, 
556, 3423260474, 0.581743, 0.47510323, -0.39808914, 0.526666, 21.10260772705078, 1.9068762063980103, 3.7126009464263916, 46.027732849121094, -33.16147232055664, 56.349998474121094, 
557, 3423277141, 0.57326055, 0.47931707, -0.39837956, 0.5319036, 16.79124641418457, 1.1003497838974, 3.2034428119659424, 57.502098083496094, -21.666650772094727, 42.51408767700195, 
558, 3423293808, 0.56545395, 0.4855422, -0.39569274, 0.53659874, 12.751238822937012, 1.2652406692504883, 2.9602627754211426, 72.65100860595703, -17.213890075683594, 22.574020385742188, 
559, 3423310475, 0.5596348, 0.4923085, -0.39136356, 0.53969985, 10.258600234985352, 1.7669991254806519, 3.1651980876922607, 69.8148422241211, -12.746957778930664, 2.0722708702087402, 
560, 3423327142, 0.5563652, 0.49809054, -0.38686052, 0.5410199, 9.320259094238281, 2.260701894760132, 3.460378646850586, 53.24574279785156, -7.609018802642822, -12.18427562713623, 
561, 3423343809, 0.55578, 0.5017796, -0.38335648, 0.5407067, 9.250051498413086, 2.630077600479126, 3.6794326305389404, 27.99596405029297, -2.1178781986236572, -19.419763565063477, 
562, 3423360476, 0.5575298, 0.5030192, -0.381419, 0.53912157, 9.223649978637695, 2.8434274196624756, 3.648700475692749, 1.410698413848877, 2.746351957321167, -21.08568000793457, 
563, 3423377143, 0.56101066, 0.5019166, -0.38125473, 0.53664887, 9.168936729431152, 2.6942832469940186, 3.4571943283081055, -22.521976470947266, 6.068832874298096, -18.62842559814453, 
564, 3423393810, 0.56491256, 0.49952814, -0.38201517, 0.5342376, 8.880088806152344, 1.8980554342269897, 3.108290910720825, -32.20334243774414, 8.53922176361084, -13.371227264404297, 
565, 3423410477, 0.5676195, 0.4977832, -0.38206503, 0.53296, 8.330835342407227, 1.0611851215362549, 2.8559935092926025, -20.005550384521484, 9.674947738647461, -8.702797889709473, 
566, 3423427144, 0.5680179, 0.4982967, -0.380138, 0.53343356, 7.61016321182251, 0.754841148853302, 2.815741539001465, 8.616873741149902, 9.040776252746582, -6.096895694732666, 
567, 3423443811, 0.56638604, 0.5008812, -0.37661672, 0.5352428, 7.104895114898682, 1.1559377908706665, 2.9646215438842773, 32.99057388305664, 6.925779342651367, -4.320451259613037, 
568, 3423460478, 0.5637779, 0.5042698, -0.37254858, 0.5376562, 6.698338031768799, 1.7425187826156616, 3.0520355701446533, 43.07434844970703, 5.633602142333984, -2.3420984745025635, 
569, 3423477145, 0.5613554, 0.5071687, -0.369019, 0.5398935, 6.291716575622559, 2.3085079193115234, 3.069275379180908, 38.1182861328125, 5.2064738273620605, -0.5795095562934875, 
570, 3423493812, 0.55976486, 0.5087843, -0.3668712, 0.5414863, 5.765813827514648, 2.482743501663208, 2.921189069747925, 23.564128875732422, 4.491657257080078, 1.9419715404510498, 
571, 3423510479, 0.55916977, 0.5091442, -0.36642998, 0.54206145, 5.316957473754883, 2.5710864067077637, 2.8371009826660156, 6.295332908630371, 1.5244550704956055, 3.4614412784576416, 
572, 3423527146, 0.5597477, 0.50821143, -0.36785313, 0.5413759, 5.080174446105957, 2.6537163257598877, 2.8823812007904053, -12.99459171295166, -2.319032907485962, 4.023846626281738, 
573, 3423543813, 0.5614968, 0.50608414, -0.37124354, 0.5392388, 5.00875997543335, 2.6323513984680176, 2.9040367603302, -32.64433288574219, -7.569115161895752, 3.9976718425750732, 
574, 3423560480, 0.56419843, 0.5030159, -0.37627885, 0.53578866, 5.250717639923096, 2.5170469284057617, 2.8950297832489014, -48.8802490234375, -12.56254768371582, 3.5743613243103027, 
575, 3423577147, 0.56740797, 0.4992015, -0.38250494, 0.5315414, 5.925775527954102, 2.4343440532684326, 2.973776340484619, -60.166202545166016, -15.9284029006958, 4.6347455978393555, 
576, 3423593814, 0.5709046, 0.4945445, -0.38946614, 0.5270766, 6.8126373291015625, 2.2563347816467285, 3.051342010498047, -67.63682556152344, -15.719968795776367, 7.5029988288879395, 
577, 3423610481, 0.5744531, 0.4892443, -0.39650527, 0.5229026, 7.312169551849365, 2.079268217086792, 3.0011019706726074, -69.86668395996094, -12.590836524963379, 10.448098182678223, 
578, 3423627148, 0.5778139, 0.4838636, -0.40305263, 0.5191875, 7.551681041717529, 2.092647075653076, 2.9420437812805176, -66.53205108642578, -9.345118522644043, 11.509215354919434, 
579, 3423643815, 0.581133, 0.47854653, -0.40864334, 0.51603127, 7.459472179412842, 1.8974865674972534, 2.7846877574920654, -61.13132095336914, -4.038275241851807, 10.535798072814941, 
580, 3423660482, 0.5845138, 0.4737193, -0.41264328, 0.51347774, 7.028346538543701, 1.6784095764160156, 2.537851333618164, -52.03765106201172, 2.7217981815338135, 6.122659206390381, 
581, 3423677149, 0.5881261, 0.4695847, -0.41492075, 0.51131076, 6.7187981605529785, 1.649521827697754, 2.4423398971557617, -42.9831428527832, 9.081159591674805, -0.7459685206413269, 
582, 3423693816, 0.5923447, 0.46590373, -0.4157804, 0.50910544, 6.816452980041504, 1.8365979194641113, 2.3765292167663574, -38.152523040771484, 14.824978828430176, -8.880778312683105, 
583, 3423710483, 0.597026, 0.462644, -0.41576332, 0.5066176, 8.043672561645508, 2.2058141231536865, 2.4614670276641846, -35.560020446777344, 17.33985710144043, -15.63422679901123, 
584, 3423727150, 0.60226345, 0.45918366, -0.4155915, 0.50369924, 10.567584991455078, 2.5264892578125, 2.9028685092926025, -38.92702865600586, 18.87681007385254, -19.267669677734375, 
585, 3423743817, 0.6082839, 0.45490456, -0.41501173, 0.50081736, 13.522475242614746, 2.2383079528808594, 2.901787281036377, -43.26887512207031, 25.746997833251953, -20.767038345336914, 
586, 3423760484, 0.6145174, 0.4507782, -0.41288552, 0.49869138, 15.72635555267334, 1.6194247007369995, 2.4019031524658203, -35.81416320800781, 34.66514587402344, -23.610492706298828, 
587, 3423777151, 0.62053555, 0.44816762, -0.408511, 0.49719244, 16.836515426635742, 1.3007198572158813, 2.0412888526916504, -19.345727920532227, 40.3018684387207, -31.5240421295166, 
588, 3423793818, 0.62661684, 0.44693005, -0.40182617, 0.49612588, 15.946578979492188, 1.6632853746414185, 1.9898442029953003, -4.714715480804443, 46.975250244140625, -40.92488098144531, 
589, 3423810485, 0.6329176, 0.44642803, -0.3940572, 0.49480948, 15.018819808959961, 1.9206491708755493, 1.917868733406067, 0.990933358669281, 49.03464889526367, -48.06400680541992, 
590, 3423827152, 0.63908625, 0.4465032, -0.385843, 0.49328387, 15.55255126953125, 2.0087103843688965, 1.9320411682128906, 4.817154407501221, 48.026920318603516, -51.47304916381836, 
591, 3423843819, 0.64519686, 0.446637, -0.37735045, 0.4917756, 15.750781059265137, 2.1323955059051514, 2.0092356204986572, 6.338656425476074, 48.99906921386719, -52.1868782043457, 
592, 3423860486, 0.65106803, 0.44670337, -0.36892745, 0.49036637, 14.604046821594238, 2.293835401535034, 1.93366539478302, 6.707878589630127, 48.61518859863281, -50.58715057373047, 
593, 3423877153, 0.6565811, 0.44649288, -0.3615812, 0.48867625, 13.69453239440918, 2.783820390701294, 1.8860007524490356, 2.3599109649658203, 43.01863479614258, -46.58782196044922, 
594, 3423893820, 0.6622285, 0.44516906, -0.35586095, 0.4864576, 12.979646682739258, 2.7670023441314697, 1.750067949295044, -9.961116790771484, 38.13408279418945, -41.70565414428711, 
595, 3423910487, 0.66778785, 0.44320232, -0.35137057, 0.4839111, 11.831924438476562, 2.316746950149536, 1.6275100708007812, -17.550323486328125, 33.49205017089844, -37.5723876953125, 
596, 3423927154, 0.67271554, 0.44156823, -0.34753472, 0.4813431, 10.712735176086426, 1.8100628852844238, 1.6082788705825806, -16.43828773498535, 27.784143447875977, -34.42680740356445, 
597, 3423943821, 0.6765329, 0.44120863, -0.34372786, 0.47905067, 9.5883207321167, 1.4609262943267822, 1.7127130031585693, -6.5376200675964355, 21.659997940063477, -32.412391662597656, 
598, 3423960488, 0.6792135, 0.44226223, -0.33982152, 0.47706872, 8.415406227111816, 1.4405369758605957, 1.9845260381698608, 5.004179954528809, 15.882747650146484, -30.684600830078125, 
599, 3423977155, 0.6809224, 0.44418046, -0.33607024, 0.47550547, 7.319577693939209, 1.675271987915039, 2.146918535232544, 11.462492942810059, 11.026997566223145, -27.522998809814453, 
600, 3423993822, 0.6822118, 0.445849, -0.33323744, 0.47408742, 6.42331600189209, 1.9859780073165894, 2.190521001815796, 9.498682975769043, 7.2113871574401855, -21.844921112060547, 
601, 3424010489, 0.6833436, 0.44661433, -0.33178055, 0.47275662, 5.704294681549072, 2.1661479473114014, 2.1595916748046875, 1.3188501596450806, 3.5644965171813965, -14.695995330810547, 
602, 3424027156, 0.68441683, 0.44632548, -0.33192727, 0.47137213, 5.2765092849731445, 2.196026563644409, 2.109952449798584, -8.716497421264648, -0.8157967329025269, -7.394266605377197, 
603, 3424043823, 0.6853246, 0.4450445, -0.33356172, 0.4701089, 5.1304192543029785, 2.010784387588501, 2.1184308528900146, -17.243762969970703, -4.548455238342285, 0.6234906911849976, 
604, 3424060490, 0.6857467, 0.4433273, -0.33617908, 0.46925047, 5.0102081298828125, 1.7078109979629517, 2.1494016647338867, -19.83458137512207, -7.571248531341553, 8.208680152893066, 
605, 3424077157, 0.6852532, 0.44187027, -0.33923674, 0.46914518, 4.931060314178467, 1.5507196187973022, 2.1578903198242188, -16.116960525512695, -10.513453483581543, 15.18996524810791, 
606, 3424093824, 0.6836965, 0.44100326, -0.3425522, 0.46982253, 5.048671245574951, 1.5765190124511719, 2.184087038040161, -8.860307693481445, -13.652519226074219, 21.822574615478516, 
607, 3424110491, 0.68108577, 0.4406205, -0.34614116, 0.4713408, 5.398419380187988, 1.746307134628296, 2.2320778369903564, -2.0707626342773438, -16.371170043945312, 28.95653533935547, 
608, 3424127158, 0.6775361, 0.44046646, -0.35004047, 0.47371495, 5.85151481628418, 1.9251123666763306, 2.2553956508636475, 2.4506630897521973, -18.33675765991211, 36.229148864746094, 
609, 3424143825, 0.6732203, 0.44030172, -0.35428196, 0.47685766, 6.342818260192871, 1.9933830499649048, 2.3096611499786377, 5.636594295501709, -19.35802459716797, 43.44183349609375, 
610, 3424160492, 0.6681879, 0.44011503, -0.35869634, 0.48079175, 6.772900581359863, 1.9782195091247559, 2.2849886417388916, 9.170133590698242, -19.407039642333984, 50.070838928222656, 
611, 3424177159, 0.6624384, 0.44011205, -0.36281994, 0.48563215, 7.049018383026123, 1.8370039463043213, 2.178811550140381, 15.031411170959473, -17.792617797851562, 55.137718200683594, 
612, 3424193826, 0.65603095, 0.4407156, -0.36614653, 0.49125344, 7.100811004638672, 1.7358133792877197, 2.035891056060791, 24.689821243286133, -15.385687828063965, 57.07769775390625, 
613, 3424210493, 0.6492659, 0.44202083, -0.36844522, 0.49731228, 7.045783996582031, 1.815981388092041, 1.991071105003357, 33.446800231933594, -12.703728675842285, 55.351749420166016, 
614, 3424227160, 0.64255786, 0.44384104, -0.36981916, 0.5033473, 7.039051532745361, 1.9366120100021362, 1.9937543869018555, 38.89894104003906, -10.211466789245605, 51.013946533203125, 
615, 3424243827, 0.6361969, 0.44596773, -0.3704966, 0.5090175, 7.284063816070557, 2.0456976890563965, 2.125530481338501, 40.78398513793945, -8.402711868286133, 45.33269500732422, 
616, 3424260494, 0.63035685, 0.44822514, -0.37054947, 0.5142352, 7.763260841369629, 2.0194108486175537, 2.276522159576416, 40.177978515625, -6.306141376495361, 39.07304763793945, 
617, 3424277161, 0.62528944, 0.45041028, -0.3702656, 0.5186976, 8.25006103515625, 2.2850241661071777, 2.429987907409668, 37.08346176147461, -4.883993148803711, 32.32691192626953, 
618, 3424293828, 0.6208711, 0.4523791, -0.37039715, 0.5221862, 9.12717342376709, 2.7487995624542236, 2.5823545455932617, 29.701993942260742, -7.348730564117432, 27.506919860839844, 
619, 3424310495, 0.61700904, 0.45371643, -0.37210667, 0.5243836, 11.348671913146973, 3.1093461513519287, 3.0447566509246826, 17.31467056274414, -14.232646942138672, 26.850278854370117, 
620, 3424327162, 0.61359406, 0.4537306, -0.375488, 0.5259655, 14.134119987487793, 2.780655860900879, 3.3158016204833984, 2.1435489654541016, -17.425682067871094, 31.054073333740234, 
621, 3424343829, 0.6099411, 0.4534511, -0.37911326, 0.52785164, 15.349681854248047, 1.8932138681411743, 3.2945308685302734, 0.6888059377670288, -17.185806274414062, 34.449378967285156, 
622, 3424360496, 0.60531926, 0.4544783, -0.38166156, 0.53044575, 14.346948623657227, 1.5686644315719604, 3.299682855606079, 15.42038631439209, -17.635122299194336, 34.31768798828125, 
623, 3424377163, 0.599869, 0.45710325, -0.38350645, 0.5330449, 13.243720054626465, 1.9914517402648926, 3.5113046169281006, 28.378448486328125, -22.5140323638916, 31.306537628173828, 
624, 3424393830, 0.59362143, 0.4608032, -0.3860548, 0.53501004, 15.044858932495117, 2.6920266151428223, 4.0200676918029785, 30.31728744506836, -33.55532455444336, 30.765056610107422, 
625, 3424410497, 0.5882109, 0.463347, -0.38988245, 0.53601253, 17.242168426513672, 2.5243828296661377, 4.521846294403076, 15.043708801269531, -35.43235397338867, 30.703739166259766, 
626, 3424427164, 0.5844621, 0.4644134, -0.39378104, 0.5363403, 16.26723861694336, 1.5659369230270386, 4.367300987243652, 2.480039119720459, -27.86747169494629, 26.25321388244629, 
627, 3424443831, 0.58182853, 0.46567437, -0.39633518, 0.536229, 14.607921600341797, 1.5117261409759521, 4.089805603027344, 2.838829278945923, -21.64044952392578, 15.386049270629883, 
628, 3424460498, 0.5815665, 0.466412, -0.3979093, 0.5347042, 13.314151763916016, 1.6280614137649536, 3.8787689208984375, -6.645739555358887, -13.806365013122559, -0.6118687391281128, 
629, 3424477165, 0.58378166, 0.46640718, -0.39855748, 0.53180397, 12.045817375183105, 1.1713875532150269, 3.6760852336883545, -17.9166259765625, -5.01462459564209, -16.15428924560547, 
630, 3424493832, 0.58761024, 0.46636176, -0.39774004, 0.5282272, 11.406401634216309, 0.6932621598243713, 3.570488214492798, -19.4865665435791, 3.289940118789673, -29.294876098632812, 
631, 3424510499, 0.5921125, 0.46685633, -0.39496386, 0.524835, 11.203913688659668, 0.6392867565155029, 3.540588617324829, -12.075201988220215, 11.638957977294922, -38.816585540771484, 
632, 3424527166, 0.5970993, 0.4675594, -0.3906886, 0.5217502, 10.831609725952148, 0.950346052646637, 3.4803171157836914, -6.482725143432617, 19.29294204711914, -44.68650436401367, 
633, 3424543833, 0.60258156, 0.46804374, -0.38562524, 0.5187714, 10.26480484008789, 1.1319581270217896, 3.255420207977295, -5.833768367767334, 24.97891616821289, -47.973236083984375, 
634, 3424560500, 0.60837156, 0.4684229, -0.37993392, 0.5158628, 9.52635383605957, 1.1247271299362183, 3.0176188945770264, -4.900465488433838, 28.98183250427246, -50.5461311340332, 
635, 3424577167, 0.6142332, 0.468888, -0.3737412, 0.5130101, 8.775679588317871, 1.128334879875183, 2.9103593826293945, -3.1356565952301025, 31.078649520874023, -52.49363708496094, 
636, 3424593834, 0.6201352, 0.4693724, -0.36734602, 0.51007736, 8.010896682739258, 1.154471755027771, 2.799175262451172, -2.026024103164673, 31.836774826049805, -53.493751525878906, 
637, 3424610501, 0.6258042, 0.47017866, -0.3608066, 0.5070697, 7.325316429138184, 1.167840838432312, 2.7599451541900635, 0.19515864551067352, 30.443315505981445, -54.34296417236328, 
638, 3424627168, 0.63115144, 0.47129056, -0.3543827, 0.50393075, 7.027312278747559, 1.4013307094573975, 2.7549774646759033, 1.7107841968536377, 27.626537322998047, -54.2103157043457, 
639, 3424643835, 0.63653165, 0.47197855, -0.34888044, 0.5003462, 6.960306644439697, 1.8118873834609985, 2.74676775932312, -3.762542486190796, 23.921411514282227, -51.998050689697266, 
640, 3424660502, 0.6419438, 0.47187597, -0.34471145, 0.4964024, 7.164863109588623, 1.9704159498214722, 2.685605525970459, -13.868205070495605, 19.421804428100586, -47.815284729003906, 
641, 3424677169, 0.64747876, 0.47076496, -0.34211603, 0.49204513, 7.4293718338012695, 2.032508373260498, 2.611604690551758, -25.231338500976562, 14.812028884887695, -42.62178421020508, 
642, 3424693836, 0.6530869, 0.4686782, -0.34114414, 0.48727706, 7.526393890380859, 1.892315149307251, 2.545757293701172, -35.428497314453125, 9.973359107971191, -36.8575553894043, 
643, 3424710503, 0.6583098, 0.46625113, -0.34124088, 0.48248613, 7.703474998474121, 1.6563163995742798, 2.4831206798553467, -39.68203353881836, 5.237076282501221, -31.54501724243164, 
644, 3424727170, 0.66284144, 0.46390003, -0.34203345, 0.4779657, 8.073339462280273, 1.576149821281433, 2.434502363204956, -39.03353500366211, 1.00829017162323, -26.0644588470459, 
645, 3424743837, 0.6665685, 0.46176317, -0.3433786, 0.4738698, 8.614869117736816, 1.692026972770691, 2.4636054039001465, -36.2097282409668, -2.717017889022827, -20.196969985961914, 
646, 3424760504, 0.6694643, 0.45978564, -0.34532997, 0.47027868, 9.25455379486084, 1.6983548402786255, 2.451228618621826, -33.803287506103516, -6.4264817237854, -13.698705673217773, 
647, 3424777171, 0.67146134, 0.45813456, -0.3477771, 0.46722966, 9.746665000915527, 1.614572525024414, 2.43896222114563, -29.468482971191406, -10.077192306518555, -7.400552749633789, 
648, 3424793838, 0.6725552, 0.45704812, -0.3504914, 0.4646853, 9.851555824279785, 1.5778151750564575, 2.4707019329071045, -23.490846633911133, -13.6326322555542, -2.625110149383545, 
649, 3424810505, 0.6728882, 0.45658326, -0.353259, 0.4625596, 9.630716323852539, 1.5854727029800415, 2.4812240600585938, -17.625598907470703, -16.446401596069336, 0.3149472177028656, 
650, 3424827172, 0.67293876, 0.4563468, -0.35615587, 0.46049348, 9.231427192687988, 1.659045696258545, 2.434152364730835, -15.77514362335205, -18.206253051757812, 1.3910540342330933, 
651, 3424843839, 0.67297715, 0.45618254, -0.35907984, 0.45832428, 8.922164916992188, 1.7193000316619873, 2.42954421043396, -15.494260787963867, -18.82891273498535, 0.9412301778793335, 
652, 3424860506, 0.67319834, 0.4559223, -0.3620168, 0.4559416, 9.046913146972656, 1.6380186080932617, 2.385148525238037, -16.437952041625977, -18.603534698486328, -0.13150228559970856, 
