sep=,
DeviceTag:,L Foot - 2,,,,,,,,,,,,,,,,,
FirmwareVersion:,3.0.0,,,,,,,,,,,,,,,,,
AppVersion:,2023.6.1,,,,,,,,,,,,,,,,,
StartTime:,2024-05-23 12:04:51.000 +0200,,,,,,,,,,,,,,,,,
 2024,,,,,,,,,,,,,,,,,,,

PacketCounter,SampleTimeFine,Quat_W,Quat_X,Quat_Y,Quat_Z,Acc_X,Acc_Y,Acc_Z,Gyr_X,Gyr_Y,Gyr_Z,
0, 3394348020, 0.90456724, 0.2232303, -0.17313261, 0.319298, 0.0, 0.0, 0.0, 0.0, 0.0, 0.0, 
1, 3394364687, 0.9044133, 0.22339496, -0.1729621, 0.3197117, 4.482332229614258, 2.8719305992126465, 8.215917587280273, 0.6695863604545593, 0.2762393355369568, 0.3392722010612488, 
2, 3394381354, 0.9043083, 0.22354467, -0.17308013, 0.31984004, 4.4727983474731445, 2.8895790576934814, 8.234013557434082, 0.46389082074165344, 0.36557644605636597, 0.2916838526725769, 
3, 3394398021, 0.9043876, 0.22361045, -0.17317344, 0.31951916, 4.456601619720459, 2.8710904121398926, 8.229532241821289, 0.3540635406970978, 0.4508667290210724, 0.38260889053344727, 
4, 3394414688, 0.90423995, 0.22369124, -0.17301278, 0.31996706, 4.479653835296631, 2.871408462524414, 8.206945419311523, 0.1991451382637024, 0.44023746252059937, 0.3743744194507599, 
5, 3394431355, 0.90420413, 0.2237323, -0.1730251, 0.32003286, 4.455074787139893, 2.842151165008545, 8.247649192810059, 0.3007635176181793, 0.32546696066856384, 0.34413859248161316, 
6, 3394448022, 0.9040404, 0.22375259, -0.17287874, 0.32055992, 4.474722385406494, 2.839655637741089, 8.239599227905273, 0.454849511384964, 0.4385598301887512, 0.4293648898601532, 
7, 3394464689, 0.9039401, 0.22372043, -0.17281677, 0.32089853, 4.447478771209717, 2.8475372791290283, 8.241591453552246, 0.46053555607795715, 0.2918374836444855, 0.3966830372810364, 
8, 3394481356, 0.9039567, 0.22362582, -0.17281024, 0.32092133, 4.469995021820068, 2.837101936340332, 8.23064136505127, 0.46787363290786743, 0.2632024884223938, 0.4827673137187958, 
9, 3394498023, 0.90394235, 0.22358322, -0.17279798, 0.32099813, 4.464287281036377, 2.846750020980835, 8.223255157470703, 0.642475426197052, 0.18350858986377716, 0.33373987674713135, 
10, 3394514690, 0.903938, 0.22355603, -0.17278408, 0.3210369, 4.461358070373535, 2.848813772201538, 8.248590469360352, 0.7007186412811279, 0.2506778836250305, 0.33861908316612244, 
11, 3394531357, 0.9039532, 0.22353858, -0.17279863, 0.32099843, 4.464782238006592, 2.8623266220092773, 8.25790023803711, 0.7833579778671265, 0.09412025660276413, 0.3814435303211212, 
12, 3394548024, 0.9038832, 0.22358206, -0.17271814, 0.32120824, 4.464561462402344, 2.8572278022766113, 8.240178108215332, 0.8498741388320923, 0.24812941253185272, 0.34853118658065796, 
13, 3394564691, 0.9038697, 0.22360365, -0.17268474, 0.32124928, 4.4606828689575195, 2.8497040271759033, 8.226007461547852, 0.8187035322189331, 0.1932414025068283, 0.33710792660713196, 
14, 3394581358, 0.9038687, 0.22363812, -0.172667, 0.32123765, 4.481612682342529, 2.8329849243164062, 8.242973327636719, 0.9022777080535889, 0.12837722897529602, 0.2987144887447357, 
15, 3394598025, 0.9037091, 0.22377923, -0.1725556, 0.32164776, 4.465235233306885, 2.8539950847625732, 8.242253303527832, 1.0489360094070435, 0.02406953275203705, 0.23420892655849457, 
16, 3394614692, 0.90363014, 0.2238629, -0.1725129, 0.3218345, 4.471944332122803, 2.8635005950927734, 8.235820770263672, 0.9095261693000793, -0.016661060974001884, 0.3153371214866638, 
17, 3394631359, 0.9036066, 0.22390687, -0.17249827, 0.3218779, 4.471099376678467, 2.8630006313323975, 8.232893943786621, 0.7498053312301636, 0.046442221850156784, 0.23726962506771088, 
18, 3394648026, 0.9034505, 0.22400674, -0.17239335, 0.32230195, 4.466578960418701, 2.846196174621582, 8.234220504760742, 0.6088330745697021, 0.0844002515077591, 0.29938042163848877, 
19, 3394664693, 0.9035113, 0.224, -0.17242102, 0.32212156, 4.47946834564209, 2.8554437160491943, 8.224653244018555, 0.717110812664032, 0.19002702832221985, 0.30089160799980164, 
20, 3394681360, 0.9036298, 0.22395948, -0.17248525, 0.32178313, 4.47192907333374, 2.853123188018799, 8.22614574432373, 0.6966590285301208, 0.2499479204416275, 0.33435460925102234, 
21, 3394698027, 0.9036345, 0.22397359, -0.17245339, 0.32177722, 4.4682207107543945, 2.8555848598480225, 8.245048522949219, 0.6689205169677734, 0.3794969618320465, 0.34964537620544434, 
22, 3394714694, 0.90366393, 0.22396405, -0.17242442, 0.3217166, 4.454526424407959, 2.8447093963623047, 8.249783515930176, 0.6034544110298157, 0.4795786440372467, 0.3551008701324463, 
23, 3394731361, 0.90386593, 0.22387096, -0.17252354, 0.32116047, 4.453644275665283, 2.857489585876465, 8.235993385314941, 0.6247001886367798, 0.36954644322395325, 0.2783268094062805, 
24, 3394748028, 0.90378755, 0.22392029, -0.17244175, 0.32139003, 4.465764045715332, 2.8366010189056396, 8.232415199279785, 0.5720788240432739, 0.3141333758831024, 0.3882436752319336, 
25, 3394764695, 0.9038151, 0.22391418, -0.17242765, 0.3213247, 4.461668968200684, 2.8420870304107666, 8.237818717956543, 0.5738077163696289, 0.3394259214401245, 0.3406553268432617, 
26, 3394781362, 0.9039453, 0.2238666, -0.17250156, 0.32095152, 4.468463897705078, 2.853123188018799, 8.248725891113281, 0.6490578651428223, 0.2081480175256729, 0.32303377985954285, 
27, 3394798029, 0.90392524, 0.22390626, -0.17248109, 0.32099122, 4.4598917961120605, 2.8278143405914307, 8.263235092163086, 0.6989257335662842, 0.14589636027812958, 0.36341220140457153, 
28, 3394814696, 0.9037333, 0.22405845, -0.1723637, 0.32148856, 4.460241317749023, 2.822185754776001, 8.24386215209961, 0.7954215407371521, -0.0650690570473671, 0.2845890522003174, 
29, 3394831363, 0.90374094, 0.22413172, -0.17238419, 0.32140514, 4.46049690246582, 2.8181962966918945, 8.257895469665527, 1.0150760412216187, -0.11639691144227982, 0.22185078263282776, 
30, 3394848030, 0.9036075, 0.22429253, -0.17228544, 0.32172075, 4.466375827789307, 2.850386142730713, 8.24038028717041, 1.142307162284851, -0.02084873616695404, 0.1700747311115265, 
31, 3394864697, 0.9035375, 0.22439018, -0.17224127, 0.32187268, 4.463977813720703, 2.8623275756835938, 8.236432075500488, 0.880814254283905, -0.03923865407705307, 0.19279317557811737, 
32, 3394881364, 0.90357363, 0.2244072, -0.17228206, 0.3217377, 4.455721855163574, 2.8599789142608643, 8.254633903503418, 0.692189633846283, -0.0460004098713398, 0.2836158573627472, 
33, 3394898031, 0.9035628, 0.22444178, -0.17228279, 0.32174373, 4.4495744705200195, 2.827360153198242, 8.245979309082031, 0.6537193059921265, 0.016449756920337677, 0.320229172706604, 
34, 3394914698, 0.90356326, 0.2244708, -0.1723066, 0.32170898, 4.468084812164307, 2.831308364868164, 8.260127067565918, 0.6944947242736816, -0.04880499839782715, 0.42951855063438416, 
35, 3394931365, 0.90350944, 0.22454116, -0.17228475, 0.32182273, 4.4612507820129395, 2.8221890926361084, 8.234835624694824, 0.7585392594337463, -0.05505449324846268, 0.31648969650268555, 
36, 3394948032, 0.9034281, 0.22465028, -0.17226614, 0.3219849, 4.453139305114746, 2.843305826187134, 8.237773895263672, 0.900036633014679, -0.24146370589733124, 0.2829114496707916, 
37, 3394964699, 0.90352356, 0.22466363, -0.17236213, 0.32165632, 4.462981700897217, 2.842426061630249, 8.248702049255371, 0.9091420769691467, -0.18407848477363586, 0.2892506420612335, 
38, 3394981366, 0.90343374, 0.2247879, -0.17232291, 0.3218429, 4.465362071990967, 2.843329668045044, 8.257874488830566, 1.0116311311721802, -0.1679040491580963, 0.27946656942367554, 
39, 3394998033, 0.90340126, 0.22486645, -0.1723251, 0.32187784, 4.475259780883789, 2.8407976627349854, 8.241205215454102, 0.8755892515182495, -0.16280710697174072, 0.26621195673942566, 
40, 3395014700, 0.90330493, 0.22498043, -0.17227873, 0.32209328, 4.4646992683410645, 2.828892946243286, 8.259700775146484, 0.9264561533927917, -0.11346425116062164, 0.32912957668304443, 
41, 3395031367, 0.9032599, 0.22506025, -0.17226946, 0.32216874, 4.461686611175537, 2.8434224128723145, 8.245834350585938, 0.8764601349830627, -0.11004496365785599, 0.3397332727909088, 
42, 3395048034, 0.9032065, 0.22515652, -0.17226522, 0.32225356, 4.468682765960693, 2.8259737491607666, 8.253292083740234, 0.9098976254463196, -0.2284781038761139, 0.2591429054737091, 
43, 3395064701, 0.9031503, 0.22526558, -0.172262, 0.32233644, 4.473137378692627, 2.847684621810913, 8.241172790527344, 1.0262176990509033, -0.24821268022060394, 0.2978692948818207, 
44, 3395081368, 0.90297824, 0.22542857, -0.17217143, 0.3227528, 4.469345569610596, 2.826266050338745, 8.243765830993652, 0.914059579372406, -0.2304374873638153, 0.19525201618671417, 
45, 3395098035, 0.90299124, 0.22547676, -0.17221414, 0.32266, 4.478483200073242, 2.8483428955078125, 8.247969627380371, 0.8173204660415649, -0.2085770070552826, 0.2680176794528961, 
46, 3395114702, 0.90307707, 0.22547776, -0.17230487, 0.3223705, 4.480358123779297, 2.8467862606048584, 8.259794235229492, 0.7354238629341125, -0.18721602857112885, 0.24080422520637512, 
47, 3395131369, 0.9030589, 0.22550274, -0.17231037, 0.322401, 4.49286413192749, 2.8353137969970703, 8.253596305847168, 0.5308039784431458, -0.04054490476846695, 0.3062830865383148, 
48, 3395148036, 0.90307575, 0.22553448, -0.1723198, 0.32232663, 4.47850227355957, 2.8168747425079346, 8.238640785217285, 0.7391889691352844, 0.029819585382938385, 0.21918706595897675, 
49, 3395164703, 0.9028651, 0.22568403, -0.17216682, 0.32289335, 4.4731879234313965, 2.837738275527954, 8.249763488769531, 0.7572970986366272, 0.08509177714586258, 0.2918502986431122, 
50, 3395181370, 0.90285796, 0.22573715, -0.17216247, 0.32287827, 4.46144962310791, 2.827033042907715, 8.238642692565918, 0.8104305863380432, 0.0010052983416244388, 0.22350281476974487, 
51, 3395198037, 0.9029046, 0.2257649, -0.17220911, 0.32270354, 4.482841491699219, 2.8147456645965576, 8.229820251464844, 0.8143237233161926, -0.08999021351337433, 0.22072383761405945, 
52, 3395214704, 0.9031621, 0.22569041, -0.17239134, 0.32193696, 4.465620994567871, 2.816326141357422, 8.23561954498291, 0.9530038237571716, -0.006467206869274378, 0.2662504315376282, 
53, 3395231371, 0.9031888, 0.22577788, -0.17241405, 0.3217885, 4.464945316314697, 2.8229916095733643, 8.255858421325684, 1.2077348232269287, -0.11849715560674667, 0.1334741711616516, 
54, 3395248038, 0.9032457, 0.22585465, -0.17247996, 0.3215393, 4.476398468017578, 2.810838222503662, 8.249377250671387, 1.2434388399124146, -0.25024890899658203, 0.18019172549247742, 
55, 3395264705, 0.9032327, 0.22595204, -0.17249133, 0.3215012, 4.480010986328125, 2.8372843265533447, 8.235828399658203, 1.146072268486023, -0.17511402070522308, 0.22966265678405762, 
56, 3395281372, 0.9031998, 0.22605258, -0.17247376, 0.3215325, 4.475010395050049, 2.8417351245880127, 8.242911338806152, 1.1135568618774414, -0.06514589488506317, 0.24041999876499176, 
57, 3395298039, 0.9032107, 0.22611591, -0.17249876, 0.32144392, 4.459873199462891, 2.835003614425659, 8.241949081420898, 1.0126045942306519, -0.09968464076519012, 0.3086138367652893, 
58, 3395314706, 0.9031881, 0.22619897, -0.17250495, 0.32144588, 4.480533123016357, 2.8259849548339844, 8.237421989440918, 0.9879137873649597, -0.1549440175294876, 0.2499479204416275, 
59, 3395331373, 0.9031793, 0.22628628, -0.17250493, 0.32140937, 4.497426986694336, 2.8315024375915527, 8.23283576965332, 1.1053352355957031, -0.07428963482379913, 0.2232338786125183, 
60, 3395348040, 0.9031872, 0.22637549, -0.1725157, 0.32131815, 4.4857964515686035, 2.8166985511779785, 8.236588478088379, 1.126581072807312, -0.12774333357810974, 0.08757622539997101, 
61, 3395364707, 0.90319955, 0.22645767, -0.1725252, 0.32122043, 4.483483791351318, 2.833847761154175, 8.224296569824219, 1.0914403200149536, -0.09825031459331512, 0.07177318632602692, 
62, 3395381374, 0.9031266, 0.22657038, -0.17247371, 0.32137373, 4.477314472198486, 2.8272674083709717, 8.21695613861084, 0.9874271154403687, -0.057564541697502136, 0.10665768384933472, 
63, 3395398041, 0.90326387, 0.22655153, -0.17257805, 0.3209449, 4.481415271759033, 2.8559036254882812, 8.21291446685791, 0.887435257434845, -0.03337334841489792, 0.23674458265304565, 
64, 3395414708, 0.90327746, 0.22661217, -0.17258447, 0.3208603, 4.485912322998047, 2.8209168910980225, 8.254843711853027, 0.9522737264633179, -0.02215498499572277, 0.11701801419258118, 
65, 3395431375, 0.9033005, 0.22666703, -0.17258845, 0.32075444, 4.492362022399902, 2.814879894256592, 8.208477020263672, 0.9868637323379517, 0.05010484904050827, 0.1492772251367569, 
66, 3395448042, 0.90326416, 0.22674146, -0.17255616, 0.3208218, 4.472320556640625, 2.8331336975097656, 8.23123836517334, 0.8999726176261902, 0.048260726034641266, 0.19514957070350647, 
67, 3395464709, 0.90336967, 0.22674538, -0.17260724, 0.32049423, 4.485787868499756, 2.813060760498047, 8.231006622314453, 0.9370854496955872, 0.11708205193281174, 0.10281576961278915, 
68, 3395481376, 0.9034218, 0.2267918, -0.17263979, 0.32029688, 4.482203960418701, 2.822601079940796, 8.242069244384766, 1.0227726697921753, -0.021617116406559944, 0.10810479521751404, 
69, 3395498043, 0.90341455, 0.2268915, -0.17263907, 0.32024735, 4.486098766326904, 2.826523542404175, 8.237520217895508, 1.16266930103302, -0.12408071011304855, 0.055726826190948486, 
70, 3395514710, 0.9034842, 0.22694074, -0.17269316, 0.3199865, 4.486571788787842, 2.8510589599609375, 8.228711128234863, 1.1283098459243774, -0.08895289897918701, 0.127557635307312, 
71, 3395531377, 0.9035905, 0.22695693, -0.17276345, 0.31963682, 4.487626075744629, 2.839109182357788, 8.229753494262695, 1.0351115465164185, -0.008477803319692612, 0.11616639047861099, 
72, 3395548044, 0.9035417, 0.22705056, -0.17271934, 0.3197322, 4.4958624839782715, 2.8285162448883057, 8.22456169128418, 0.9966861605644226, 0.032790657132864, 0.13544635474681854, 
73, 3395564711, 0.90351, 0.22712988, -0.17266889, 0.31979263, 4.492856025695801, 2.8198931217193604, 8.226819038391113, 0.9642348885536194, 0.14138849079608917, 0.07955945283174515, 
74, 3395581378, 0.90346485, 0.22722556, -0.1726053, 0.31988648, 4.478942394256592, 2.8348398208618164, 8.22784423828125, 1.0692085027694702, 0.16428625583648682, 0.106439970433712, 
75, 3395598045, 0.90360796, 0.22721227, -0.17267448, 0.31945404, 4.484107971191406, 2.841890573501587, 8.226176261901855, 1.0053240060806274, 0.173308327794075, 0.08584095537662506, 
76, 3395614712, 0.9033227, 0.22742455, -0.17242931, 0.3202414, 4.491973876953125, 2.858746290206909, 8.225379943847656, 0.9850323796272278, 0.24971739947795868, 0.10067711770534515, 
77, 3395631379, 0.9032581, 0.22751513, -0.1723432, 0.32040527, 4.494849681854248, 2.8190808296203613, 8.232075691223145, 0.9407352209091187, 0.2265891283750534, 0.06809776276350021, 
78, 3395648046, 0.90326875, 0.22756743, -0.17230237, 0.32036015, 4.48250675201416, 2.8320305347442627, 8.227784156799316, 1.0089417695999146, 0.29734423756599426, 0.1166338175535202, 
79, 3395664713, 0.9032321, 0.22764109, -0.17222947, 0.32045045, 4.491129398345947, 2.8525500297546387, 8.222404479980469, 0.958907425403595, 0.2825144827365875, 0.09214808791875839, 
80, 3395681380, 0.9033006, 0.22765152, -0.17224208, 0.32024315, 4.479489326477051, 2.838567018508911, 8.231386184692383, 0.9046469330787659, 0.23543833196163177, 0.12456095963716507, 
81, 3395698047, 0.90326846, 0.22772604, -0.17218436, 0.32031184, 4.463532447814941, 2.8446333408355713, 8.24913215637207, 0.9816387295722961, 0.20880113542079926, 0.1060301810503006, 
82, 3395714714, 0.90349877, 0.22766069, -0.1723137, 0.3196383, 4.491461277008057, 2.835512638092041, 8.240623474121094, 0.9988375902175903, 0.206291064620018, 0.10606858879327774, 
83, 3395731381, 0.9037196, 0.22759938, -0.17245509, 0.31898057, 4.472894191741943, 2.8334708213806152, 8.249191284179688, 0.9902958869934082, 0.10770780593156815, 0.16199393570423126, 
84, 3395748048, 0.9037235, 0.2276594, -0.1724367, 0.31893685, 4.475581169128418, 2.8441836833953857, 8.218128204345703, 1.0084103345870972, 0.11364354193210602, 0.10539625585079193, 
85, 3395764715, 0.9038339, 0.22765191, -0.17248484, 0.318603, 4.476962089538574, 2.8292205333709717, 8.22429370880127, 0.9553728103637695, 0.19175587594509125, 0.11435429751873016, 
86, 3395781382, 0.90381217, 0.22772071, -0.17243172, 0.31864452, 4.492105007171631, 2.8256986141204834, 8.223945617675781, 1.0054713487625122, 0.22592321038246155, 0.10501846671104431, 
87, 3395798049, 0.9037933, 0.22777148, -0.17237829, 0.31869087, 4.4878315925598145, 2.8318240642547607, 8.220601081848145, 0.8564054369926453, 0.24969181418418884, 0.06282154470682144, 
88, 3395814716, 0.9038495, 0.22778633, -0.17239134, 0.318513, 4.485692024230957, 2.84976863861084, 8.231629371643066, 0.8585953116416931, 0.1500968188047409, 0.02538858726620674, 
89, 3395831383, 0.9038738, 0.22781703, -0.17239287, 0.31842136, 4.477361679077148, 2.8399624824523926, 8.234541893005371, 0.8305237293243408, 0.08227439969778061, 0.037593040615320206, 
90, 3395848050, 0.9039745, 0.22781226, -0.1724527, 0.31810662, 4.484508991241455, 2.8555259704589844, 8.22945785522461, 0.8828826546669006, 0.055912524461746216, 0.03959723562002182, 
91, 3395864717, 0.9040078, 0.22782905, -0.17246656, 0.31799257, 4.485411643981934, 2.8538384437561035, 8.226689338684082, 0.8107892870903015, 0.0966431200504303, 0.14232337474822998, 
92, 3395881384, 0.90390605, 0.22791491, -0.17237535, 0.3182695, 4.488000869750977, 2.8511455059051514, 8.232654571533203, 0.774899423122406, 0.14140769839286804, 0.10407720506191254, 
93, 3395898051, 0.9040171, 0.2278743, -0.17243391, 0.3179511, 4.482117652893066, 2.82899808883667, 8.228166580200195, 0.7496004700660706, 0.21319366991519928, 0.20977438986301422, 
94, 3395914718, 0.9041195, 0.2278367, -0.17248327, 0.31766024, 4.494473457336426, 2.818094491958618, 8.248290061950684, 0.7234498858451843, 0.21848271787166595, 0.1637740135192871, 
95, 3395931385, 0.9041341, 0.22786543, -0.1724652, 0.31760797, 4.486501693725586, 2.831989288330078, 8.228987693786621, 0.8488752245903015, 0.1949574500322342, 0.07976434379816055, 
96, 3395948052, 0.9041906, 0.22788702, -0.1724758, 0.31742543, 4.478830337524414, 2.830362558364868, 8.237768173217773, 0.9766954183578491, 0.17706698179244995, 0.057173945009708405, 
97, 3395964719, 0.90416324, 0.22794402, -0.17241624, 0.31749508, 4.486550807952881, 2.8352856636047363, 8.23540210723877, 0.9203859567642212, 0.2577085494995117, 0.06759831309318542, 
98, 3395981386, 0.9042234, 0.22795649, -0.1724406, 0.31730163, 4.486265659332275, 2.8401682376861572, 8.234766006469727, 0.933051347732544, 0.13027258217334747, 0.10605578124523163, 
99, 3395998053, 0.9042689, 0.22797275, -0.1724578, 0.3171509, 4.488698482513428, 2.8219289779663086, 8.223653793334961, 0.8953239321708679, 0.11221563071012497, 0.09394097328186035, 
100, 3396014720, 0.904348, 0.22797242, -0.1724729, 0.31691715, 4.483824253082275, 2.847642183303833, 8.227245330810547, 0.9696264863014221, 0.28672775626182556, 0.10742605477571487, 
101, 3396031387, 0.9043077, 0.22801936, -0.17241096, 0.3170318, 4.481291770935059, 2.8437294960021973, 8.236128807067871, 0.8441113829612732, 0.27559906244277954, 0.16725735366344452, 
102, 3396048054, 0.9043125, 0.22804336, -0.17236483, 0.31702626, 4.486942291259766, 2.8388500213623047, 8.22048568725586, 0.8207014203071594, 0.3305639326572418, 0.03701675310730934, 
103, 3396064721, 0.9042483, 0.22811662, -0.17227729, 0.31720424, 4.4752302169799805, 2.829803943634033, 8.255191802978516, 0.9073746204376221, 0.263791561126709, 0.030613578855991364, 
104, 3396081388, 0.90427864, 0.2281312, -0.17224671, 0.3171236, 4.4707932472229, 2.8307924270629883, 8.243912696838379, 0.856827974319458, 0.33406001329421997, -6.915428675711155E-4, 
105, 3396098055, 0.9042245, 0.2281742, -0.17217857, 0.31728396, 4.465295314788818, 2.8445398807525635, 8.229763984680176, 0.7235779166221619, 0.23733365535736084, 0.09136690199375153, 
106, 3396114722, 0.9043968, 0.22808172, -0.1722694, 0.31681013, 4.4912333488464355, 2.837355613708496, 8.249927520751953, 0.6868172883987427, 0.31594547629356384, 0.19929242134094238, 
107, 3396131389, 0.9044623, 0.22804199, -0.17227039, 0.31665102, 4.468746185302734, 2.848860263824463, 8.245779037475586, 0.6404070854187012, 0.3857656717300415, 0.13600343465805054, 
108, 3396148056, 0.9044501, 0.22805065, -0.1722292, 0.31670177, 4.476077556610107, 2.830679178237915, 8.236227989196777, 0.6581246852874756, 0.2795562446117401, 0.10793831199407578, 
109, 3396164723, 0.9044941, 0.22802237, -0.1722295, 0.31659648, 4.491168975830078, 2.847515821456909, 8.233848571777344, 0.6327105164527893, 0.2974530756473541, 0.15111494064331055, 
110, 3396181390, 0.90446097, 0.2280497, -0.17215689, 0.31671074, 4.476046085357666, 2.8252763748168945, 8.222333908081055, 0.8076196312904358, 0.409713476896286, 0.19249223172664642, 
111, 3396198057, 0.90461093, 0.2279849, -0.17223376, 0.31628722, 4.456947326660156, 2.8139827251434326, 8.234213829040527, 0.809700608253479, 0.26621198654174805, 0.1280570924282074, 
112, 3396214724, 0.904654, 0.22798961, -0.17222926, 0.31616303, 4.478537559509277, 2.8332762718200684, 8.249061584472656, 0.9212248921394348, 0.2772446572780609, 0.12318429350852966, 
113, 3396231391, 0.9046961, 0.22800066, -0.17220917, 0.31604555, 4.465226173400879, 2.857224941253662, 8.24347972869873, 0.9633512496948242, 0.33841419219970703, 0.054369356483221054, 
114, 3396248058, 0.90471333, 0.22802055, -0.17218387, 0.31599554, 4.46962833404541, 2.8000214099884033, 8.247523307800293, 0.940946638584137, 0.2861066460609436, 0.11820260435342789, 
115, 3396264725, 0.9047585, 0.22803806, -0.17217872, 0.31585625, 4.477597236633301, 2.8396542072296143, 8.245113372802734, 0.9991706609725952, 0.23100735247135162, 0.004322143271565437, 
116, 3396281392, 0.9048509, 0.2280321, -0.17220934, 0.3155793, 4.479926586151123, 2.8432493209838867, 8.230849266052246, 1.0769243240356445, 0.25597330927848816, 0.10493522882461548, 
117, 3396298059, 0.904847, 0.22806464, -0.17216575, 0.31559074, 4.465343475341797, 2.8328168392181396, 8.251716613769531, 0.958254337310791, 0.29284918308258057, 0.07793304324150085, 
118, 3396314726, 0.9048159, 0.228104, -0.17210533, 0.31568438, 4.478455543518066, 2.827766180038452, 8.223182678222656, 0.8910209536552429, 0.28406405448913574, 0.07629382610321045, 
119, 3396331393, 0.90488106, 0.2280955, -0.17212431, 0.31549346, 4.4751410484313965, 2.8295111656188965, 8.240119934082031, 0.9047365784645081, 0.20576602220535278, 0.0512574128806591, 
120, 3396348060, 0.90483797, 0.22816297, -0.17206429, 0.31560114, 4.472066879272461, 2.8419277667999268, 8.253060340881348, 1.047322392463684, 0.18703033030033112, 0.03790038824081421, 
121, 3396364727, 0.9049034, 0.22816503, -0.17207663, 0.3154049, 4.4560770988464355, 2.8420474529266357, 8.23141860961914, 1.0138850212097168, 0.23551514744758606, 0.03792600333690643, 
122, 3396381394, 0.9050128, 0.22813559, -0.17212893, 0.3150838, 4.479263782501221, 2.84610915184021, 8.256522178649902, 0.9366884231567383, 0.18822132050991058, 0.03601785749197006, 
123, 3396398061, 0.9050251, 0.2281731, -0.17211583, 0.31502846, 4.473208427429199, 2.8029937744140625, 8.24636173248291, 1.0660197734832764, 0.1460884064435959, 0.04432917758822441, 
124, 3396414728, 0.9050411, 0.22822452, -0.17210428, 0.31495112, 4.476800441741943, 2.830880880355835, 8.24402141571045, 1.2151689529418945, 0.13917942345142365, 0.05542588606476784, 
125, 3396431395, 0.9050946, 0.22825499, -0.17212681, 0.31476292, 4.47017240524292, 2.840383768081665, 8.247493743896484, 1.187180757522583, 0.08212071657180786, 0.018537191674113274, 
126, 3396448062, 0.9051338, 0.2282825, -0.17213446, 0.31462625, 4.460721492767334, 2.8301773071289062, 8.23971176147461, 1.1536407470703125, 0.1549760401248932, 0.10665768384933472, 
127, 3396464729, 0.90511423, 0.2283511, -0.1720819, 0.31466165, 4.4713358879089355, 2.836517095565796, 8.244453430175781, 1.2319707870483398, 0.23139795660972595, 0.034308213740587234, 
128, 3396481396, 0.90514123, 0.22838607, -0.17207846, 0.31456044, 4.460707187652588, 2.8219950199127197, 8.239632606506348, 1.1783251762390137, 0.1702348291873932, 0.09174469858407974, 
129, 3396498063, 0.90519035, 0.22842738, -0.17211793, 0.31436765, 4.465107440948486, 2.8280725479125977, 8.259744644165039, 1.2653697729110718, -0.04555218294262886, 0.04876657575368881, 
130, 3396514730, 0.90518314, 0.22852328, -0.17210937, 0.314323, 4.473557949066162, 2.849486827850342, 8.267280578613281, 1.436840534210205, -0.06081736087799072, -0.04322143271565437, 
131, 3396531397, 0.9051898, 0.228593, -0.1721128, 0.31425127, 4.4628777503967285, 2.8573687076568604, 8.22916316986084, 1.337591290473938, -0.015367618761956692, 0.05415165424346924, 
132, 3396548064, 0.90522885, 0.22861496, -0.17214142, 0.3141073, 4.4692511558532715, 2.839005470275879, 8.215044021606445, 1.1564326286315918, 0.06046517565846443, 0.18525023758411407, 
133, 3396564731, 0.905208, 0.22866555, -0.17210819, 0.31414917, 4.474455833435059, 2.8330371379852295, 8.232871055603027, 1.1274197101593018, 0.1578894853591919, 0.12365810573101044, 
134, 3396581398, 0.90521055, 0.228695, -0.17209679, 0.31412625, 4.45319938659668, 2.854555130004883, 8.244183540344238, 1.0584959983825684, 0.14261150360107422, 0.12623217701911926, 
135, 3396598065, 0.90528035, 0.22868365, -0.17214297, 0.31390798, 4.463944435119629, 2.841203212738037, 8.23482894897461, 0.9747618436813354, 0.06285997480154037, 0.04873456805944443, 
136, 3396614732, 0.9053147, 0.22869685, -0.17215672, 0.31379172, 4.478472709655762, 2.847763776779175, 8.232250213623047, 1.0380123853683472, 0.10129182785749435, 0.05722517892718315, 
137, 3396631399, 0.90526277, 0.22875991, -0.1721219, 0.3139146, 4.479148864746094, 2.8380069732666016, 8.251126289367676, 1.0540395975112915, 0.018120987340807915, 0.08498294651508331, 
138, 3396648066, 0.90527505, 0.22876713, -0.1721262, 0.3138717, 4.50129508972168, 2.852759599685669, 8.210566520690918, 0.9092124104499817, 0.09591955691576004, 0.09717458486557007, 
139, 3396664733, 0.9053954, 0.22872087, -0.17222705, 0.3135023, 4.470969200134277, 2.8484041690826416, 8.237493515014648, 1.00372314453125, 0.023333171382546425, 0.22659553587436676, 
140, 3396681400, 0.90541804, 0.22872753, -0.1722601, 0.31341383, 4.444377899169922, 2.830350160598755, 8.250040054321289, 0.9455568790435791, -0.02817397005856037, 0.1322896033525467, 
141, 3396698067, 0.90547806, 0.22887455, -0.17236418, 0.3130762, 4.442102432250977, 2.701442241668701, 8.276460647583008, 2.010718822479248, -0.6555058360099792, -0.2864396572113037, 
142, 3396714734, 0.90546477, 0.22930373, -0.17241327, 0.31277308, 4.471617698669434, 2.7557520866394043, 8.275958061218262, 3.724452257156372, -1.1800028085708618, -0.9490018486976624, 
143, 3396731401, 0.9054489, 0.22984311, -0.17243956, 0.3124083, 4.474310874938965, 2.836311101913452, 8.251720428466797, 4.447126388549805, -1.3449482917785645, -1.4213765859603882, 
144, 3396748068, 0.9053313, 0.23039308, -0.17238925, 0.3123719, 4.487574577331543, 2.9029996395111084, 8.246269226074219, 4.135810852050781, -1.2392771244049072, -1.313425898551941, 
145, 3396764735, 0.9053306, 0.23082243, -0.17238562, 0.3120591, 4.5167741775512695, 2.941058397293091, 8.225752830505371, 3.8465662002563477, -0.8430099487304688, -1.1031452417373657, 
146, 3396781402, 0.90529406, 0.23115502, -0.17236371, 0.3119313, 4.4901204109191895, 2.9225709438323975, 8.212015151977539, 3.042442560195923, -0.6206276416778564, -0.7386125326156616, 
147, 3396798069, 0.9053475, 0.23137245, -0.17241627, 0.31158513, 4.4934868812561035, 2.902101755142212, 8.21835708618164, 2.6267871856689453, -0.48739051818847656, -0.46829622983932495, 
148, 3396814736, 0.9053366, 0.23157917, -0.17239961, 0.31147254, 4.510616302490234, 2.9301371574401855, 8.224881172180176, 2.3141329288482666, -0.2733515501022339, -0.3939105272293091, 
149, 3396831403, 0.9053327, 0.23171315, -0.17237817, 0.3113962, 4.488716125488281, 2.9123761653900146, 8.205687522888184, 1.8619215488433838, -0.05043140426278114, -0.19374725222587585, 
150, 3396848070, 0.9053224, 0.23179358, -0.17235704, 0.31137818, 4.49500846862793, 2.9080922603607178, 8.203770637512207, 1.4315963983535767, 0.024524161592125893, -0.08456673473119736, 
151, 3396864737, 0.9052993, 0.23184475, -0.1723273, 0.31142366, 4.477418899536133, 2.9229226112365723, 8.224006652832031, 1.1971632242202759, 0.10846977680921555, 0.04601321369409561, 
152, 3396881404, 0.9052756, 0.23182851, -0.1723073, 0.3115158, 4.484656810760498, 2.9227805137634277, 8.209898948669434, 0.7027612328529358, 0.18763862550258636, 0.22384218871593475, 
153, 3396898071, 0.905268, 0.23176824, -0.17230353, 0.31158444, 4.485282897949219, 2.9228341579437256, 8.220605850219727, 0.49038073420524597, 0.26332414150238037, 0.3882116675376892, 
154, 3396914738, 0.90533847, 0.23164631, -0.17237724, 0.3114296, 4.4886155128479, 2.90788197517395, 8.200189590454102, 0.34905627369880676, 0.19249863922595978, 0.4642237424850464, 
155, 3396931405, 0.90537894, 0.23151696, -0.17241839, 0.31138554, 4.488612174987793, 2.9241573810577393, 8.210403442382812, 0.20089322328567505, 0.31093817949295044, 0.5325776934623718, 
156, 3396948072, 0.9053946, 0.23137513, -0.1724404, 0.311433, 4.494627475738525, 2.9094841480255127, 8.215907096862793, 0.014029355719685555, 0.3644110858440399, 0.5884325504302979, 
157, 3396964739, 0.90542585, 0.23118977, -0.1724524, 0.31147316, 4.486238956451416, 2.9281277656555176, 8.22728157043457, -0.2272614687681198, 0.553355872631073, 0.6090763211250305, 
158, 3396981406, 0.90556526, 0.2308981, -0.17255494, 0.31122747, 4.481004238128662, 2.8998963832855225, 8.239286422729492, -0.5274743437767029, 0.6163951754570007, 0.8128830194473267, 
159, 3396998073, 0.905632, 0.23062402, -0.1725848, 0.31122002, 4.478355407714844, 2.8936238288879395, 8.230597496032715, -0.6647456288337708, 0.7732217907905579, 0.8401862978935242, 
160, 3397014740, 0.90566164, 0.23037267, -0.17261463, 0.31130323, 4.47641134262085, 2.8821990489959717, 8.224275588989258, -0.6678255200386047, 0.6043508648872375, 0.8760120272636414, 
161, 3397031407, 0.9057165, 0.23010604, -0.17265095, 0.31132078, 4.465482234954834, 2.877136707305908, 8.234000205993652, -0.7076404690742493, 0.6489553451538086, 0.776544988155365, 
162, 3397048074, 0.9057556, 0.2298671, -0.17269483, 0.31135905, 4.484696388244629, 2.858613967895508, 8.236218452453613, -0.5573194622993469, 0.5154364109039307, 0.8053081631660461, 
163, 3397064741, 0.90577316, 0.22965837, -0.17275243, 0.31143007, 4.4798903465271, 2.8586392402648926, 8.23067855834961, -0.4188188314437866, 0.32451924681663513, 0.8697624206542969, 
164, 3397081408, 0.90585035, 0.22943391, -0.17284779, 0.3113182, 4.476062297821045, 2.854949951171875, 8.23982048034668, -0.30796071887016296, 0.3119114637374878, 0.7653586864471436, 
165, 3397098075, 0.9058702, 0.22921772, -0.17291613, 0.3113819, 4.444161415100098, 2.8642170429229736, 8.234264373779297, -0.48293381929397583, 0.26858755946159363, 0.8487407565116882, 
166, 3397114742, 0.9058679, 0.22903366, -0.17298149, 0.3114877, 4.463440895080566, 2.85404109954834, 8.26279354095459, -0.29487261176109314, 0.18316923081874847, 0.9125804901123047, 
167, 3397131409, 0.90571314, 0.22898225, -0.1729879, 0.31197113, 4.484517574310303, 2.8262085914611816, 8.22941780090332, -0.05379306897521019, -0.269413560628891, 0.7740669250488281, 
168, 3397148076, 0.9055963, 0.22894984, -0.17302549, 0.3123131, 4.482264041900635, 2.8407740592956543, 8.231138229370117, 0.22637787461280823, -0.37723666429519653, 0.661524772644043, 
169, 3397164743, 0.90562916, 0.2288189, -0.1731608, 0.312239, 4.48938512802124, 2.863555431365967, 8.235865592956543, 0.1562758833169937, -0.25417402386665344, 0.7258382439613342, 
170, 3397181410, 0.90556616, 0.22869776, -0.17320766, 0.31248444, 4.484170436859131, 2.872439384460449, 8.228507041931152, -0.10538344830274582, -0.041018735617399216, 0.8557394742965698, 
171, 3397198077, 0.9056118, 0.22844909, -0.17332155, 0.31247064, 4.470604419708252, 2.866978406906128, 8.23630142211914, -0.5302085280418396, 0.20367860794067383, 1.0772380828857422, 
172, 3397214744, 0.9056364, 0.22820234, -0.173438, 0.3125149, 4.497143745422363, 2.811776876449585, 8.235748291015625, -0.6135010123252869, 0.1182154044508934, 1.1232450008392334, 
173, 3397231411, 0.9056173, 0.22804525, -0.17350604, 0.31264725, 4.48017692565918, 2.776686668395996, 8.249553680419922, -0.1222430169582367, 0.07811873406171799, 0.9424193501472473, 
174, 3397248078, 0.90561825, 0.22793256, -0.17359625, 0.31267667, 4.497549057006836, 2.7574703693389893, 8.241344451904297, 0.24862249195575714, -0.09810303896665573, 0.7717106342315674, 
175, 3397264745, 0.9055453, 0.22793528, -0.1735809, 0.31289455, 4.491692066192627, 2.78908371925354, 8.232670783996582, 0.8009219765663147, 0.020259644836187363, 0.4366453289985657, 
176, 3397281412, 0.9055475, 0.22792523, -0.17361325, 0.31287766, 4.490320205688477, 2.8120169639587402, 8.236512184143066, 0.9551551342010498, -0.0373305045068264, 0.24396733939647675, 
177, 3397298079, 0.9055315, 0.22794157, -0.17361069, 0.3129132, 4.485057353973389, 2.8279178142547607, 8.237878799438477, 1.0722500085830688, 0.03629319369792938, 0.11959849298000336, 
178, 3397314746, 0.90556633, 0.22793145, -0.17365123, 0.31279737, 4.48341178894043, 2.8430395126342773, 8.238320350646973, 1.1425120830535889, 0.03766987845301628, 0.23286429047584534, 
179, 3397331413, 0.9055633, 0.22793743, -0.17366979, 0.31279153, 4.498921871185303, 2.8361175060272217, 8.257152557373047, 1.1120136976242065, 0.020631030201911926, 0.2692663073539734, 
180, 3397348080, 0.9055343, 0.22794335, -0.17367823, 0.31286663, 4.474417209625244, 2.8326833248138428, 8.2472562789917, 1.0412523746490479, 0.022122971713542938, 0.3887559771537781, 
181, 3397364747, 0.9055572, 0.22790453, -0.17372832, 0.31280026, 4.506747245788574, 2.8222663402557373, 8.222349166870117, 0.9100768566131592, 0.02282731793820858, 0.3876417875289917, 
182, 3397381414, 0.905542, 0.22791298, -0.17375694, 0.31282243, 4.482915878295898, 2.8064181804656982, 8.253493309020996, 1.0883924961090088, -0.07366212457418442, 0.335340678691864, 
183, 3397398081, 0.9055192, 0.22795285, -0.17377776, 0.31284785, 4.489752769470215, 2.8037478923797607, 8.245393753051758, 1.1957545280456543, -0.17908400297164917, 0.09538169205188751, 
184, 3397414748, 0.90552914, 0.22798465, -0.17382528, 0.3127693, 4.480575084686279, 2.828615665435791, 8.209239959716797, 1.3226783275604248, -0.1815236210823059, 0.16132159531116486, 
185, 3397431415, 0.9054563, 0.228069, -0.17381512, 0.31292427, 4.499120235443115, 2.8124489784240723, 8.23550033569336, 1.3840142488479614, -0.2019689530134201, 0.17832201719284058, 
186, 3397448082, 0.90542793, 0.2281158, -0.17382699, 0.31296608, 4.500711917877197, 2.823732614517212, 8.23188304901123, 1.3016821146011353, -0.11436069756746292, 0.1875297576189041, 
187, 3397464749, 0.90523905, 0.22824615, -0.17372055, 0.31347606, 4.510441303253174, 2.841379404067993, 8.234562873840332, 1.2673548460006714, -0.0985320657491684, 0.1903536021709442, 
188, 3397481416, 0.90516895, 0.22831832, -0.17369872, 0.31363812, 4.497580051422119, 2.8138320446014404, 8.248597145080566, 1.3411706686019897, -0.09228896349668503, 0.19528405368328094, 
189, 3397498083, 0.90509266, 0.22841679, -0.17368333, 0.31379473, 4.489044189453125, 2.8117361068725586, 8.23340892791748, 1.47588050365448, -0.2212873101234436, 0.11511627584695816, 
190, 3397514750, 0.90505517, 0.22851129, -0.17368285, 0.3138347, 4.498702526092529, 2.817206621170044, 8.239249229431152, 1.5713454484939575, -0.21130476891994476, -0.022680044174194336, 
191, 3397531417, 0.9049971, 0.22861533, -0.17364715, 0.31394577, 4.4947309494018555, 2.844426393508911, 8.227402687072754, 1.5745856761932373, -0.09033599495887756, -0.06996109336614609, 
192, 3397548084, 0.90499943, 0.22865696, -0.17365558, 0.31390435, 4.4920334815979, 2.838590145111084, 8.21577262878418, 1.360796332359314, -0.03762505576014519, -0.011051880195736885, 
193, 3397564751, 0.9049755, 0.22870414, -0.17365022, 0.313942, 4.49762487411499, 2.843045473098755, 8.220030784606934, 1.2901757955551147, -0.05061069503426552, 0.009617568925023079, 
194, 3397581418, 0.9050222, 0.22870818, -0.17368928, 0.3137826, 4.493936538696289, 2.8433079719543457, 8.235564231872559, 1.2994924783706665, 0.016987623646855354, 0.058749131858348846, 
195, 3397598085, 0.90513116, 0.2286699, -0.17378987, 0.3134401, 4.492901802062988, 2.8251068592071533, 8.230975151062012, 1.2399429082870483, -0.05233956128358841, 0.12191005051136017, 
196, 3397614752, 0.90510213, 0.22873393, -0.17379755, 0.3134731, 4.509704113006592, 2.833265542984009, 8.232413291931152, 1.392792820930481, -0.17239268124103546, 0.017122088000178337, 
197, 3397631419, 0.9051798, 0.22873278, -0.17387074, 0.31320897, 4.502861976623535, 2.8411951065063477, 8.212469100952148, 1.383482813835144, -0.07238789647817612, 0.045629020780324936, 
198, 3397648086, 0.9051236, 0.22879124, -0.17385599, 0.31333703, 4.49870491027832, 2.8554370403289795, 8.207809448242188, 1.2430098056793213, -0.11569897830486298, 0.05141749605536461, 
199, 3397664753, 0.9050253, 0.228843, -0.17381448, 0.31360593, 4.505399703979492, 2.862441301345825, 8.232069969177246, 1.065206527709961, -0.05351773276925087, 0.19208243489265442, 
200, 3397681420, 0.90501, 0.22883043, -0.17383784, 0.31364632, 4.501217842102051, 2.8672678470611572, 8.224483489990234, 0.9266162514686584, -0.03991099074482918, 0.24229612946510315, 
201, 3397698087, 0.9050081, 0.22879939, -0.17387748, 0.31365255, 4.499564170837402, 2.846867799758911, 8.216523170471191, 0.8329762816429138, -0.0635002925992012, 0.25995612144470215, 
202, 3397714754, 0.9050113, 0.22874478, -0.17390911, 0.31366572, 4.5060319900512695, 2.848752975463867, 8.21639347076416, 0.7155163288116455, 0.062008339911699295, 0.32685646414756775, 
203, 3397731421, 0.90502256, 0.22868489, -0.17394452, 0.3136572, 4.496740818023682, 2.8355963230133057, 8.234964370727539, 0.6917862296104431, 0.060407549142837524, 0.2924202084541321, 
204, 3397748088, 0.90503424, 0.22861992, -0.1739793, 0.31365183, 4.508707046508789, 2.8372304439544678, 8.24366569519043, 0.6566263437271118, 0.07434725761413574, 0.28539589047431946, 
205, 3397764755, 0.9049543, 0.22859953, -0.17393829, 0.31391975, 4.503421306610107, 2.8449015617370605, 8.226346015930176, 0.6586625576019287, 0.16399170458316803, 0.3559204638004303, 
206, 3397781422, 0.90487736, 0.2285772, -0.17389835, 0.31417954, 4.509661674499512, 2.8437464237213135, 8.236251831054688, 0.6374040246009827, 0.1571274995803833, 0.31016337871551514, 
207, 3397798089, 0.9049184, 0.22849658, -0.17392914, 0.31410325, 4.499966621398926, 2.837869644165039, 8.23240852355957, 0.7330610156059265, 0.2513502240180969, 0.3282523453235626, 
208, 3397814756, 0.9049258, 0.22843401, -0.17396224, 0.3141089, 4.5016188621521, 2.8221139907836914, 8.229618072509766, 0.7238276600837708, 0.10562675446271896, 0.3946020305156708, 
209, 3397831423, 0.904955, 0.22839597, -0.17400613, 0.3140281, 4.506404876708984, 2.8208048343658447, 8.206840515136719, 0.9426369667053223, 0.02460099570453167, 0.21198350191116333, 
210, 3397848090, 0.90494627, 0.22839512, -0.17402293, 0.31404448, 4.4974164962768555, 2.829674482345581, 8.214874267578125, 1.074516773223877, -4.162063414696604E-4, 0.1973714530467987, 
211, 3397864757, 0.90490526, 0.22841923, -0.1740141, 0.31414986, 4.503077983856201, 2.83398699760437, 8.217562675476074, 1.105713129043579, -0.016244854778051376, 0.136374831199646, 
212, 3397881424, 0.90490854, 0.22841102, -0.1740293, 0.31413803, 4.499364852905273, 2.822160005569458, 8.202735900878906, 1.0134303569793701, 0.015726197510957718, 0.05738524720072746, 
213, 3397898091, 0.90489477, 0.2284097, -0.1740173, 0.31418565, 4.510087490081787, 2.8326187133789062, 8.25204849243164, 1.0362001657485962, 0.1246441900730133, 0.08632760494947433, 
214, 3397914758, 0.90487194, 0.22844355, -0.17400032, 0.3142362, 4.497981071472168, 2.823059558868408, 8.234556198120117, 1.2244600057601929, 0.03396884724497795, -0.032848287373781204, 
215, 3397931425, 0.90488535, 0.22847916, -0.17401902, 0.31416106, 4.506348133087158, 2.8343396186828613, 8.223986625671387, 1.4149799346923828, -0.04005826264619827, 8.260095492005348E-4, 
216, 3397948092, 0.90489495, 0.2284874, -0.17403996, 0.314116, 4.496670722961426, 2.85212779045105, 8.197081565856934, 1.193635106086731, -0.010462787933647633, 0.06919911503791809, 
217, 3397964759, 0.9048742, 0.22850871, -0.17402422, 0.31416887, 4.496362209320068, 2.842778205871582, 8.223427772521973, 1.1663960218429565, 0.07386062294244766, 0.030613578855991364, 
218, 3397981426, 0.9048609, 0.22852907, -0.1740064, 0.3142023, 4.4831366539001465, 2.833564281463623, 8.23516845703125, 1.1978291273117065, 0.10899484157562256, 0.005058507900685072, 
219, 3397998093, 0.90484685, 0.22857794, -0.17399685, 0.31421265, 4.499434471130371, 2.8224899768829346, 8.20583438873291, 1.3735194206237793, -0.01682114228606224, -0.08108340203762054, 
220, 3398014760, 0.9048851, 0.228592, -0.17402613, 0.31407598, 4.49882698059082, 2.8599483966827393, 8.221907615661621, 1.3358432054519653, -0.005519537255167961, -0.06755349785089493, 
221, 3398031427, 0.9048901, 0.22860396, -0.174046, 0.314042, 4.490473747253418, 2.8537912368774414, 8.227662086486816, 1.1796313524246216, -0.046301357448101044, 0.01699402555823326, 
222, 3398048094, 0.9049531, 0.22856978, -0.17407632, 0.31386814, 4.503001689910889, 2.8432066440582275, 8.220291137695312, 1.1318250894546509, 0.1826953887939453, 0.04119802266359329, 
223, 3398064761, 0.90495056, 0.22857818, -0.17406334, 0.31387645, 4.5061564445495605, 2.828665256500244, 8.208687782287598, 1.1545436382293701, 0.13050951063632965, 0.0018313080072402954, 
224, 3398081428, 0.9049723, 0.22857848, -0.1740759, 0.3138065, 4.497655868530273, 2.8318490982055664, 8.213313102722168, 1.1771596670150757, 0.06920551508665085, -0.015156314708292484, 
225, 3398098095, 0.9049797, 0.22858766, -0.17408444, 0.31377354, 4.496861934661865, 2.860212564468384, 8.22553539276123, 1.1974321603775024, 0.04390016943216324, 0.020118774846196175, 
226, 3398114762, 0.9049605, 0.22859669, -0.17407604, 0.31382743, 4.504512786865234, 2.8246889114379883, 8.22789478302002, 1.0998733043670654, 0.06961531937122345, 0.09045123308897018, 
227, 3398131429, 0.90499693, 0.22858189, -0.17406708, 0.3137383, 4.499984264373779, 2.859757661819458, 8.218798637390137, 1.1432868242263794, 0.26158249378204346, -0.0842977911233902, 
228, 3398148096, 0.9050101, 0.22856542, -0.17405738, 0.31371775, 4.505570888519287, 2.850074052810669, 8.223530769348145, 1.0509145259857178, 0.21659378707408905, 0.032540932297706604, 
229, 3398164763, 0.90502167, 0.2285404, -0.17404142, 0.31371123, 4.490496635437012, 2.858994245529175, 8.20509147644043, 0.9896875023841858, 0.2647968828678131, 0.04073699936270714, 
230, 3398181430, 0.9050742, 0.2284682, -0.17404573, 0.31360984, 4.485610008239746, 2.850137948989868, 8.227458000183105, 0.7860921621322632, 0.3492675721645355, 0.026150565594434738, 
231, 3398198097, 0.9050142, 0.2284514, -0.17399119, 0.3138255, 4.488704681396484, 2.854583978652954, 8.242599487304688, 0.7769997119903564, 0.26915109157562256, 0.18854790925979614, 
232, 3398214764, 0.905024, 0.22841418, -0.1739871, 0.31382677, 4.506446361541748, 2.8410439491271973, 8.233120918273926, 0.8351020812988281, 0.18270818889141083, 0.007722228299826384, 
233, 3398231431, 0.9050383, 0.22837487, -0.17397216, 0.3138222, 4.5152506828308105, 2.8461313247680664, 8.198684692382812, 0.858640193939209, 0.267473429441452, -0.003918743226677179, 
234, 3398248098, 0.90504265, 0.22835033, -0.17394672, 0.3138419, 4.485576152801514, 2.819398880004883, 8.25964641571045, 0.9144759178161621, 0.2580735683441162, -0.05680256709456444, 
235, 3398264765, 0.90499806, 0.22843482, -0.17390941, 0.31392932, 4.50450325012207, 2.8032033443450928, 8.236207962036133, 1.4779423475265503, -0.053421683609485626, -0.2234259694814682, 
236, 3398281432, 0.9050218, 0.22854829, -0.17392886, 0.31376746, 4.496655464172363, 2.8186886310577393, 8.209182739257812, 1.924115538597107, -0.25389227271080017, -0.42909595370292664, 
237, 3398298099, 0.90501714, 0.22870547, -0.17390464, 0.31367996, 4.50691556930542, 2.8343234062194824, 8.218703269958496, 2.110192060470581, -0.20225709676742554, -0.596782386302948, 
238, 3398314766, 0.9050128, 0.22885944, -0.1738729, 0.31359786, 4.502416610717773, 2.8542745113372803, 8.22127628326416, 2.1122024059295654, -0.13837900757789612, -0.5742430686950684, 
239, 3398331433, 0.9049746, 0.22896937, -0.17380372, 0.31366622, 4.518271446228027, 2.8998982906341553, 8.194076538085938, 1.7399860620498657, 0.1134258285164833, -0.31773194670677185, 
240, 3398348100, 0.90494674, 0.22904584, -0.17371784, 0.3137385, 4.484370708465576, 2.8971831798553467, 8.199630737304688, 1.5795865058898926, 0.3211832642555237, -0.2651490867137909, 
241, 3398364767, 0.90497875, 0.22905661, -0.17368516, 0.313656, 4.519290924072266, 2.8387413024902344, 8.230781555175781, 1.348982572555542, 0.34123802185058594, -0.14748433232307434, 
242, 3398381434, 0.9049782, 0.22908278, -0.17363428, 0.31366658, 4.492876052856445, 2.860724925994873, 8.241576194763184, 1.3151865005493164, 0.3110918402671814, -0.14820148050785065, 
243, 3398398101, 0.90497196, 0.22910489, -0.17360096, 0.31368688, 4.4823317527771, 2.883410930633545, 8.223831176757812, 1.2012484073638916, 0.1671740859746933, -0.17969869077205658, 
244, 3398414768, 0.90498245, 0.22910644, -0.17357378, 0.3136704, 4.495349407196045, 2.8775901794433594, 8.213643074035645, 1.0908704996109009, 0.20249402523040771, -0.22137057781219482, 
245, 3398431435, 0.90495753, 0.22910944, -0.17353734, 0.31376028, 4.4993577003479, 2.895559310913086, 8.230278015136719, 0.9697609543800354, 0.16292238235473633, -0.10470471531152725, 
246, 3398448102, 0.9049532, 0.22908023, -0.17352672, 0.31379995, 4.490997314453125, 2.887655258178711, 8.210468292236328, 0.7800604104995728, 0.12344039976596832, -0.09237860143184662, 
247, 3398464769, 0.90498513, 0.22898035, -0.17354758, 0.31376922, 4.488798141479492, 2.900178909301758, 8.229425430297852, 0.45371612906455994, 0.2251100242137909, 0.11319532245397568, 
248, 3398481436, 0.9049231, 0.22887735, -0.17350759, 0.31404534, 4.507937908172607, 2.9140868186950684, 8.194585800170898, 0.051071714609861374, 0.3016023337841034, 0.2652963101863861, 
249, 3398498103, 0.9049016, 0.22867595, -0.17349112, 0.31426308, 4.488945484161377, 2.8924026489257812, 8.22283935546875, -0.4051608741283417, 0.548291027545929, 0.5868509411811829, 
250, 3398514770, 0.9049528, 0.22841121, -0.17353801, 0.31428236, 4.478590488433838, 2.8492984771728516, 8.235790252685547, -0.6210631132125854, 0.5118442177772522, 0.5858520865440369, 
251, 3398531437, 0.90496737, 0.22818725, -0.1735547, 0.31439397, 4.4895734786987305, 2.837354898452759, 8.231329917907715, -0.43248966336250305, 0.5112807750701904, 0.6028333306312561, 
252, 3398548104, 0.9049644, 0.22800156, -0.17356569, 0.31453118, 4.501572608947754, 2.840881824493408, 8.208333015441895, -0.22624337673187256, 0.4189853370189667, 0.554937481880188, 
253, 3398564771, 0.9050047, 0.22777338, -0.17360002, 0.31456158, 4.494361877441406, 2.869558811187744, 8.20047378540039, -0.358661025762558, 0.49842312932014465, 0.5755941867828369, 
254, 3398581438, 0.9050433, 0.22752805, -0.17364821, 0.3146015, 4.492791652679443, 2.867964029312134, 8.239751815795898, -0.4560212790966034, 0.48050060868263245, 0.7292512059211731, 
255, 3398598105, 0.905037, 0.22730474, -0.1736483, 0.31478104, 4.49263858795166, 2.8275411128997803, 8.227812767028809, -0.4578205943107605, 0.5795385241508484, 0.7225982546806335, 
256, 3398614772, 0.9050725, 0.22709006, -0.1736847, 0.3148138, 4.481205463409424, 2.812189817428589, 8.226378440856934, -0.2540203332901001, 0.46639445424079895, 0.6188539862632751, 
257, 3398631439, 0.905123, 0.22688319, -0.17372306, 0.3147962, 4.495478630065918, 2.8352601528167725, 8.239381790161133, -0.11842671781778336, 0.48883116245269775, 0.5816259384155273, 
258, 3398648106, 0.90516, 0.22670001, -0.17375493, 0.3148041, 4.501275539398193, 2.838510751724243, 8.237113952636719, -0.002209095284342766, 0.43957793712615967, 0.5550016164779663, 
259, 3398664773, 0.90517324, 0.22654204, -0.17376624, 0.31487373, 4.482121467590332, 2.8176186084747314, 8.234360694885254, 0.04062173515558243, 0.40587159991264343, 0.44065365195274353, 
260, 3398681440, 0.9051332, 0.22641966, -0.1737523, 0.31508464, 4.471743106842041, 2.834012031555176, 8.224461555480957, 0.10717633366584778, 0.3368966579437256, 0.4998190104961395, 
261, 3398698107, 0.9051734, 0.22624679, -0.1738192, 0.31505638, 4.485619068145752, 2.818469762802124, 8.247967720031738, 0.05032895505428314, 0.2192959487438202, 0.5749795436859131, 
262, 3398714774, 0.90516543, 0.22612886, -0.17384014, 0.31515232, 4.49016809463501, 2.822718381881714, 8.25341796875, 0.2606220245361328, 0.2245977520942688, 0.48534780740737915, 
263, 3398731441, 0.9051663, 0.225996, -0.17387137, 0.31522787, 4.481949329376221, 2.823279619216919, 8.2332124710083, 0.1727960705757141, 0.2165425568819046, 0.49513188004493713, 
264, 3398748108, 0.9050911, 0.22590433, -0.17381833, 0.3155384, 4.487267971038818, 2.812053680419922, 8.221292495727539, 0.18734408915042877, 0.38664934039115906, 0.43608179688453674, 
265, 3398764775, 0.905033, 0.22580616, -0.17377198, 0.3158008, 4.494444847106934, 2.799945116043091, 8.262894630432129, 0.23349815607070923, 0.4280778467655182, 0.45862096548080444, 
266, 3398781442, 0.9049325, 0.22575584, -0.17369835, 0.3161655, 4.485118389129639, 2.813126564025879, 8.226511001586914, 0.4152586758136749, 0.3619202673435211, 0.4090860188007355, 
267, 3398798109, 0.90493214, 0.22564158, -0.17368022, 0.31625766, 4.490825653076172, 2.809929847717285, 8.241612434387207, 0.34153255820274353, 0.45835205912590027, 0.3587570786476135, 
268, 3398814776, 0.90495837, 0.22550891, -0.17368126, 0.31627664, 4.468896389007568, 2.80706524848938, 8.243841171264648, 0.32838043570518494, 0.47374528646469116, 0.39919954538345337, 
269, 3398831443, 0.9049897, 0.22536092, -0.17369387, 0.31628534, 4.480565547943115, 2.7924957275390625, 8.258149147033691, 0.22065339982509613, 0.446672648191452, 0.422660768032074, 
270, 3398848110, 0.90495384, 0.22526135, -0.17365988, 0.3164777, 4.482607841491699, 2.7963368892669678, 8.26197624206543, 0.3066224157810211, 0.42009949684143066, 0.40834322571754456, 
271, 3398864777, 0.90495807, 0.22514245, -0.17366679, 0.31654662, 4.482983112335205, 2.80572772026062, 8.2625732421875, 0.3027293086051941, 0.3336181938648224, 0.39652296900749207, 
272, 3398881444, 0.904954, 0.22501586, -0.17365475, 0.3166548, 4.474364757537842, 2.7906253337860107, 8.225205421447754, 0.2132897675037384, 0.42824435234069824, 0.38550955057144165, 
273, 3398898111, 0.90494037, 0.2248976, -0.17363122, 0.31679082, 4.481731414794922, 2.7950778007507324, 8.251958847045898, 0.2929196357727051, 0.48023808002471924, 0.4603370428085327, 
274, 3398914778, 0.90494895, 0.22477204, -0.17361324, 0.3168648, 4.472376346588135, 2.776381492614746, 8.257247924804688, 0.282917857170105, 0.49577221274375916, 0.33838218450546265, 
275, 3398931445, 0.9049823, 0.2246348, -0.17361255, 0.31686702, 4.462688446044922, 2.7890660762786865, 8.23654556274414, 0.32385337352752686, 0.5108516812324524, 0.380687952041626, 
276, 3398948112, 0.90502286, 0.2245034, -0.17361413, 0.3168438, 4.487224578857422, 2.7842347621917725, 8.248525619506836, 0.3846771717071533, 0.4987689256668091, 0.3296866714954376, 
277, 3398964779, 0.9050393, 0.22438881, -0.17357346, 0.3169004, 4.460237979888916, 2.784860134124756, 8.262892723083496, 0.4654467701911926, 0.6568376421928406, 0.341814249753952, 
278, 3398981446, 0.90502226, 0.22428438, -0.1735171, 0.31705394, 4.469790458679199, 2.8127620220184326, 8.256485939025879, 0.3946020305156708, 0.6285868287086487, 0.36215072870254517, 
279, 3398998113, 0.90504265, 0.22414382, -0.17351198, 0.31709793, 4.453579902648926, 2.809053659439087, 8.285593032836914, 0.26618000864982605, 0.5179656147956848, 0.4531526267528534, 
280, 3399014780, 0.9051067, 0.22397785, -0.17354523, 0.31701428, 4.478212356567383, 2.7900071144104004, 8.268331527709961, 0.2697785496711731, 0.4894842803478241, 0.5074771642684937, 
281, 3399031447, 0.9051139, 0.22385876, -0.17352998, 0.31708604, 4.467562675476074, 2.7835516929626465, 8.239742279052734, 0.3718835711479187, 0.4967198967933655, 0.43307235836982727, 
282, 3399048114, 0.9050868, 0.22374824, -0.17349899, 0.31725812, 4.462852954864502, 2.78762149810791, 8.266403198242188, 0.3263057768344879, 0.4895227551460266, 0.5216795206069946, 
283, 3399064781, 0.9050895, 0.22360305, -0.17348255, 0.31736186, 4.452149391174316, 2.805541753768921, 8.28287124633789, 0.20779582858085632, 0.5720084309577942, 0.5772590041160583, 
284, 3399081448, 0.9050932, 0.22344992, -0.17351496, 0.31744137, 4.436363697052002, 2.796919584274292, 8.29123592376709, 0.1425987035036087, 0.3254605829715729, 0.7348283529281616, 
285, 3399098115, 0.90510345, 0.22332461, -0.17359783, 0.31745487, 4.4754767417907715, 2.739935874938965, 8.295867919921875, 0.3217851221561432, -0.012338917702436447, 0.7344313263893127, 
286, 3399114782, 0.9050871, 0.22327603, -0.1736428, 0.3175114, 4.476190567016602, 2.7532925605773926, 8.263832092285156, 0.7441898584365845, -0.05664888396859169, 0.487973153591156, 
287, 3399131449, 0.9050969, 0.22323114, -0.1736968, 0.3174855, 4.483338832855225, 2.777486562728882, 8.265337944030762, 0.8979427814483643, -0.032073501497507095, 0.45507362484931946, 
288, 3399148116, 0.90510184, 0.22319554, -0.17372778, 0.31747934, 4.477118968963623, 2.7690606117248535, 8.252498626708984, 0.9990105032920837, 0.09064334630966187, 0.47176027297973633, 
289, 3399164783, 0.9050261, 0.2232289, -0.17372805, 0.31767178, 4.453389644622803, 2.7661402225494385, 8.270177841186523, 1.14741051197052, -0.11395730823278427, 0.45188483595848083, 
290, 3399181450, 0.90499705, 0.22326262, -0.1737763, 0.31770453, 4.481515884399414, 2.7607383728027344, 8.260714530944824, 1.311139702796936, -0.26394525170326233, 0.4038994312286377, 
291, 3399198117, 0.904974, 0.22328764, -0.17379786, 0.31774086, 4.482045650482178, 2.798961639404297, 8.2559175491333, 1.313854694366455, -0.060913410037755966, 0.39419227838516235, 
292, 3399214784, 0.9049415, 0.22328393, -0.17383686, 0.3178143, 4.464914321899414, 2.7925777435302734, 8.27810001373291, 1.0403621196746826, -0.13319242000579834, 0.5045061111450195, 
293, 3399231451, 0.9048782, 0.22328421, -0.17387463, 0.31797364, 4.474126815795898, 2.7922611236572266, 8.264440536499023, 0.9612319469451904, -0.20280776917934418, 0.6231057643890381, 
294, 3399248118, 0.9047928, 0.2233136, -0.17390032, 0.318182, 4.488683700561523, 2.727072238922119, 8.256366729736328, 1.0177079439163208, -0.2965374290943146, 0.4734123647212982, 
295, 3399264785, 0.9047528, 0.22334388, -0.17392437, 0.31826124, 4.492743492126465, 2.8123767375946045, 8.265724182128906, 1.209892749786377, -0.17705421149730682, 0.3125133514404297, 
296, 3399281452, 0.9047169, 0.22326167, -0.17397405, 0.31839386, 4.47751522064209, 2.803928852081299, 8.251852035522461, 0.4178967773914337, -0.05822407454252243, 0.6455296874046326, 
297, 3399298119, 0.90469664, 0.2231072, -0.17405155, 0.3185171, 4.46552848815918, 2.822399854660034, 8.250822067260742, -0.041140396147966385, -0.014669674448668957, 0.8426833748817444, 
298, 3399314786, 0.90467113, 0.22294964, -0.17415033, 0.31864598, 4.482757568359375, 2.774369478225708, 8.267178535461426, -0.09928122162818909, -0.13942912220954895, 0.9150393009185791, 
299, 3399331453, 0.9046347, 0.22282088, -0.17426872, 0.3187746, 4.47297477722168, 2.7669498920440674, 8.278154373168945, 0.019363200291991234, -0.36106860637664795, 0.8737131953239441, 
300, 3399348120, 0.90459555, 0.2226717, -0.17437573, 0.31893173, 4.479526042938232, 2.7835440635681152, 8.248153686523438, -0.11025626212358475, -0.24563217163085938, 0.9451469779014587, 
301, 3399364787, 0.9045763, 0.22246134, -0.17449196, 0.31906933, 4.499513626098633, 2.771420478820801, 8.2500638961792, -0.4866860806941986, -0.12442009150981903, 1.017669439315796, 
302, 3399381454, 0.90459067, 0.22221008, -0.17463587, 0.31912538, 4.467187404632568, 2.8067870140075684, 8.267472267150879, -0.6213064789772034, -0.08278664946556091, 1.1319787502288818, 
303, 3399398121, 0.9045735, 0.22191626, -0.17478657, 0.31929553, 4.498775959014893, 2.765214681625366, 8.273816108703613, -1.0294768810272217, -0.09155260026454926, 1.4059964418411255, 
304, 3399414788, 0.90457773, 0.22158848, -0.1749571, 0.31941766, 4.487448215484619, 2.7615935802459717, 8.254194259643555, -1.2279878854751587, -0.09603480249643326, 1.4060537815093994, 
305, 3399431455, 0.90457386, 0.22118366, -0.17508519, 0.3196392, 4.5171895027160645, 2.7632639408111572, 8.244305610656738, -1.8180789947509766, 0.2729097306728363, 1.454795002937317, 
306, 3399448122, 0.90459913, 0.22068551, -0.17519315, 0.31985286, 4.536046981811523, 2.7128114700317383, 8.286598205566406, -2.399660110473633, 0.633863091468811, 1.4399844408035278, 
307, 3399464789, 0.9046603, 0.22015381, -0.17526214, 0.3200088, 4.544569969177246, 2.663114547729492, 8.26596450805664, -2.5054280757904053, 0.9912756085395813, 1.2398083209991455, 
308, 3399481456, 0.90475786, 0.21964064, -0.17529427, 0.32006797, 4.5343427658081055, 2.653224229812622, 8.279465675354004, -2.2026853561401367, 1.2521663904190063, 0.9893417358398438, 
309, 3399498123, 0.9048131, 0.21918406, -0.17530273, 0.3202197, 4.52497673034668, 2.6996312141418457, 8.298177719116211, -1.9893320798873901, 1.1402390003204346, 0.8827800750732422, 
310, 3399514790, 0.90489787, 0.2186758, -0.17535105, 0.3203016, 4.491817951202393, 2.6984410285949707, 8.3135404586792, -2.2495315074920654, 1.1066863536834717, 1.011368751525879, 
311, 3399531457, 0.90494215, 0.21820755, -0.1754009, 0.32046837, 4.480715274810791, 2.6697587966918945, 8.292454719543457, -2.1617181301116943, 0.8937423229217529, 1.0027241706848145, 
312, 3399548124, 0.9050247, 0.21775845, -0.17551424, 0.32047826, 4.43095064163208, 2.6493136882781982, 8.285386085510254, -1.8479499816894531, 0.6228880882263184, 1.0817140340805054, 
313, 3399564791, 0.90507066, 0.21738614, -0.1757166, 0.32049024, 4.217709541320801, 2.838862419128418, 8.388086318969727, -1.3245735168457031, -0.034103307873010635, 1.5602551698684692, 
314, 3399581458, 0.9050089, 0.21696964, -0.17618379, 0.32069042, 4.465895175933838, 2.688952922821045, 8.329834938049316, -2.296332359313965, -1.7424577474594116, 2.502706527709961, 
315, 3399598125, 0.9048105, 0.21692432, -0.17676048, 0.3209637, 4.389944553375244, 2.5143535137176514, 8.443349838256836, -0.15032733976840973, -3.427715301513672, 2.5813119411468506, 
316, 3399614792, 0.9044683, 0.21732272, -0.17750664, 0.32124725, 4.324639797210693, 2.678830623626709, 8.4572114944458, 2.6673197746276855, -5.505867004394531, 3.044095516204834, 
317, 3399631459, 0.9039657, 0.2179602, -0.1786039, 0.3216212, 4.334887504577637, 2.853332042694092, 8.503193855285645, 3.8488218784332275, -8.214142799377441, 4.416617393493652, 
318, 3399648126, 0.90321815, 0.2187352, -0.18023573, 0.32228416, 4.32970666885376, 2.8828022480010986, 8.650418281555176, 4.148940086364746, -11.768295288085938, 7.222466468811035, 
319, 3399664793, 0.90215087, 0.21981628, -0.1827224, 0.3231368, 4.424316883087158, 2.730436325073242, 8.685349464416504, 4.285049915313721, -18.21748924255371, 8.980927467346191, 
320, 3399681460, 0.90075725, 0.22137463, -0.18615298, 0.32400104, 4.50171422958374, 2.7809500694274902, 8.78974437713623, 5.741807460784912, -25.482770919799805, 10.775716781616211, 
321, 3399698127, 0.89872646, 0.22343656, -0.1910036, 0.3253994, 4.585899829864502, 3.0696115493774414, 8.792763710021973, 7.059834957122803, -35.577003479003906, 16.539392471313477, 
322, 3399714794, 0.8958687, 0.22588688, -0.19806322, 0.3273613, 4.422469139099121, 3.5967373847961426, 9.109427452087402, 6.827154636383057, -50.14808654785156, 25.32054901123047, 
323, 3399731461, 0.8919212, 0.22998601, -0.20519146, 0.33087698, 5.279428005218506, 2.6347134113311768, 8.440510749816895, 20.07681655883789, -53.6540412902832, 34.386451721191406, 
324, 3399748128, 0.887087, 0.23503934, -0.21207653, 0.33594158, 4.998215675354004, 3.5481812953948975, 8.671367645263672, 30.41060447692871, -52.94268035888672, 44.75865173339844, 
325, 3399764795, 0.8816108, 0.2397482, -0.21951914, 0.3421909, 5.0366597175598145, 4.289575576782227, 8.367464065551758, 30.302810668945312, -54.3067512512207, 55.708343505859375, 
326, 3399781462, 0.875491, 0.24380392, -0.22709589, 0.35000363, 5.218913555145264, 4.732710361480713, 8.20810604095459, 29.440385818481445, -51.97815704345703, 67.99031829833984, 
327, 3399798129, 0.86863005, 0.24843319, -0.23298849, 0.35983226, 4.096411228179932, 5.37565279006958, 8.38137435913086, 40.469696044921875, -41.38207244873047, 77.1417007446289, 
328, 3399814796, 0.86187434, 0.25230265, -0.23733997, 0.37038615, 2.876467704772949, 6.907845497131348, 8.63768482208252, 37.35506820678711, -30.38417625427246, 75.61092376708984, 
329, 3399831463, 0.8585021, 0.25214213, -0.2399919, 0.37656668, 5.132722854614258, 9.24307632446289, 9.476682662963867, 7.390570640563965, -10.97651481628418, 48.34193801879883, 
330, 3399848130, 0.8582798, 0.250367, -0.23734945, 0.37991786, 1.41304349899292, 6.592424392700195, 7.717460632324219, -0.766635000705719, 23.86268424987793, 14.488374710083008, 
331, 3399864797, 0.85828495, 0.2508885, -0.23453742, 0.381306, 0.3224484920501709, 5.73015022277832, 7.080923080444336, 10.620088577270508, 16.192049026489258, -0.30309465527534485, 
332, 3399881464, 0.858783, 0.25363165, -0.2308822, 0.38059998, 0.9250773191452026, 5.537998199462891, 7.846153259277344, 23.767505645751953, 13.277416229248047, -16.204540252685547, 
333, 3399898131, 0.86002624, 0.25658357, -0.22618194, 0.37863103, 0.666218101978302, 5.202138900756836, 8.232958793640137, 24.013336181640625, 17.596834182739258, -28.162574768066406, 
334, 3399914798, 0.86144197, 0.2601606, -0.22095108, 0.37605196, 0.7860419750213623, 4.197207927703857, 8.257896423339844, 28.094409942626953, 18.304285049438477, -33.665809631347656, 
335, 3399931465, 0.862637, 0.26455456, -0.215299, 0.37351683, 1.002379298210144, 3.9239399433135986, 8.39465045928955, 34.86571502685547, 18.508901596069336, -34.244441986083984, 
336, 3399948132, 0.86346155, 0.26925862, -0.20963673, 0.37146556, 1.5560252666473389, 3.909261703491211, 8.590616226196289, 38.116329193115234, 18.000520706176758, -30.845956802368164, 
337, 3399964799, 0.86395514, 0.27418268, -0.20388933, 0.3699116, 2.319533348083496, 4.144320487976074, 8.784724235534668, 40.96939468383789, 18.299898147583008, -27.473669052124023, 
338, 3399981466, 0.8643865, 0.27892387, -0.19771811, 0.36870748, 3.1165215969085693, 4.660897254943848, 8.92417049407959, 41.567039489746094, 21.783374786376953, -25.73570442199707, 
339, 3399998133, 0.86491436, 0.28288606, -0.19149037, 0.3677364, 3.2495882511138916, 4.543862819671631, 8.631258964538574, 37.205020904541016, 24.619787216186523, -23.601398468017578, 
340, 3400014800, 0.8651378, 0.28735322, -0.18562198, 0.3667551, 3.3567569255828857, 4.4254150390625, 8.304460525512695, 39.8716926574707, 20.74266815185547, -22.820714950561523, 
341, 3400031467, 0.86514294, 0.2920064, -0.1810997, 0.36532602, 3.5719616413116455, 4.7289204597473145, 8.060539245605469, 37.44179153442383, 11.072319984436035, -22.48015022277832, 
342, 3400048134, 0.86485577, 0.29733253, -0.17842913, 0.36301652, 3.7896389961242676, 4.334593772888184, 7.637877464294434, 36.279998779296875, -3.786651372909546, -24.06886863708496, 
343, 3400064801, 0.8641076, 0.30369267, -0.17793602, 0.3597605, 4.1245880126953125, 4.5079264640808105, 7.359650135040283, 36.781742095947266, -21.825788497924805, -25.339508056640625, 
344, 3400081468, 0.8629411, 0.3104957, -0.18039738, 0.35550246, 4.949648857116699, 4.598963737487793, 7.388710975646973, 31.76369857788086, -43.07881546020508, -24.605737686157227, 
345, 3400098135, 0.861709, 0.3169632, -0.18551926, 0.3501066, 5.916540622711182, 4.182185173034668, 6.946896076202393, 22.016878128051758, -60.541534423828125, -25.085697174072266, 
346, 3400114802, 0.860168, 0.32470015, -0.19147366, 0.34353873, 6.66448450088501, 3.251858711242676, 6.467642784118652, 26.740032196044922, -71.4444351196289, -31.093931198120117, 
347, 3400131469, 0.8579937, 0.33451298, -0.19773325, 0.3359309, 7.354345321655273, 3.1713545322418213, 6.051202774047852, 38.388545989990234, -81.25470733642578, -37.8231315612793, 
348, 3400148136, 0.855704, 0.34512055, -0.20393175, 0.32722244, 8.145719528198242, 3.2287209033966064, 5.64253568649292, 42.038089752197266, -85.34954833984375, -45.30202102661133, 
349, 3400164803, 0.85374147, 0.35609132, -0.20911011, 0.31717142, 8.47286605834961, 2.3254666328430176, 5.2101898193359375, 43.85928726196289, -82.80811309814453, -56.909950256347656, 
350, 3400181470, 0.85212076, 0.3668889, -0.21324053, 0.30628645, 8.639300346374512, 2.5000147819519043, 4.7855753898620605, 43.1529426574707, -77.74040985107422, -64.9334716796875, 
351, 3400198137, 0.8513088, 0.3749331, -0.21715021, 0.2958791, 9.197173118591309, 2.5551514625549316, 4.2648210525512695, 26.19586944580078, -68.16671752929688, -60.43000411987305, 
352, 3400214804, 0.85133326, 0.37954846, -0.22075014, 0.28713095, 9.09957504272461, 1.8840314149856567, 3.544126033782959, 7.1144819259643555, -53.7537727355957, -48.18516159057617, 
353, 3400231471, 0.85162795, 0.38205442, -0.22345698, 0.28076944, 8.919340133666992, 0.9696198105812073, 2.5750622749328613, -0.5188794732093811, -37.62083435058594, -33.9786491394043, 
354, 3400248138, 0.85119516, 0.38473433, -0.22519036, 0.2770122, 8.144213676452637, 0.09181616455316544, 1.725898265838623, 8.318252563476562, -26.42184066772461, -20.262855529785156, 
355, 3400264805, 0.8493733, 0.38886014, -0.22713327, 0.2752519, 7.6341753005981445, -0.22732669115066528, 1.354290246963501, 23.172847747802734, -27.160465240478516, -7.729065418243408, 
356, 3400281472, 0.84625167, 0.39455676, -0.22988054, 0.27447855, 7.516552925109863, -0.10281269997358322, 1.3912789821624756, 35.86570739746094, -34.11480712890625, 0.08150672167539597, 
357, 3400298139, 0.84247905, 0.40079522, -0.23320007, 0.2742443, 7.78341007232666, 0.3487134277820587, 1.3135610818862915, 40.57817840576172, -37.934974670410156, 5.035287857055664, 
358, 3400314806, 0.8383781, 0.40668902, -0.2369635, 0.2749087, 7.440070629119873, 0.616355299949646, 1.392343282699585, 40.10337448120117, -37.807918548583984, 12.532709121704102, 
359, 3400331473, 0.8334927, 0.41247615, -0.24190132, 0.2768343, 6.701507568359375, 0.359696626663208, 1.6231930255889893, 41.5273323059082, -42.039283752441406, 24.64801025390625, 
360, 3400348140, 0.8272163, 0.41885424, -0.248418, 0.2802907, 6.477357864379883, 0.4171982407569885, 1.8944183588027954, 48.41632843017578, -50.117950439453125, 39.47452926635742, 
361, 3400364807, 0.8199264, 0.4254336, -0.25593552, 0.2849986, 6.674294948577881, 1.233750343322754, 2.2661590576171875, 52.709102630615234, -54.27157211303711, 51.00020217895508, 
362, 3400381474, 0.81281924, 0.43087316, -0.26380834, 0.28996333, 7.143848419189453, 2.188223123550415, 2.5666844844818115, 45.517555236816406, -52.923973083496094, 55.062522888183594, 
363, 3400398141, 0.80651724, 0.43455705, -0.27198115, 0.29447657, 7.463072299957275, 2.426095962524414, 2.2819156646728516, 31.90912437438965, -50.93783950805664, 54.94673538208008, 
364, 3400414808, 0.8003652, 0.43742305, -0.28078496, 0.2987251, 7.459404468536377, 1.652756690979004, 1.478870153427124, 25.15365219116211, -53.245574951171875, 56.53276443481445, 
365, 3400431475, 0.7922564, 0.44229677, -0.2914662, 0.30290416, 7.934683322906494, 0.5740262866020203, 0.9157304167747498, 38.09442138671875, -71.63336181640625, 61.872135162353516, 
366, 3400448142, 0.78225, 0.44905883, -0.30329633, 0.3073151, 9.10573673248291, 1.396639108657837, 0.9096101522445679, 52.22488784790039, -84.86192321777344, 66.70639038085938, 
367, 3400464809, 0.7723129, 0.45570573, -0.31547448, 0.31038854, 11.035083770751953, 1.821764588356018, 0.9296904802322388, 47.85580825805664, -90.40895080566406, 60.58974075317383, 
368, 3400481476, 0.7751248, 0.44977108, -0.3262617, 0.30073372, 13.747800827026367, 28.19869041442871, 8.977643013000488, -83.55857849121094, -68.30433654785156, -11.366958618164062, 
369, 3400498143, 0.7988608, 0.41627532, -0.31991765, 0.29357985, 32.320396423339844, 3.0963892936706543, 5.562402725219727, -254.34597778320312, 134.65548706054688, -32.07088851928711, 
370, 3400514810, 0.8266398, 0.39280954, -0.2746562, 0.29484153, 9.652525901794434, 11.050350189208984, 4.924959182739258, -113.677978515625, 361.56591796875, -127.79341125488281, 
371, 3400531477, 0.8476949, 0.36541116, -0.2516217, 0.29081798, -2.0221357345581055, 5.852118015289307, 16.870162963867188, -172.94537353515625, 216.14158630371094, -76.5851058959961, 
372, 3400548144, 0.8596464, 0.34390047, -0.23164952, 0.2984617, 9.626832962036133, 11.647269248962402, 8.998950004577637, -101.53076171875, 199.76419067382812, 7.290186405181885, 
373, 3400564811, 0.86892486, 0.32158273, -0.21343198, 0.30984014, 2.7052760124206543, 3.888960123062134, 7.532527446746826, -97.68958282470703, 195.63552856445312, 40.373355865478516, 
374, 3400581478, 0.87636214, 0.3015694, -0.1971717, 0.31963846, 5.739396095275879, -0.8338241577148438, 8.302925109863281, -86.29827117919922, 172.76596069335938, 35.842342376708984, 
375, 3400598145, 0.88347834, 0.28336126, -0.18159896, 0.3258748, 4.3949761390686035, 0.6716323494911194, 10.021495819091797, -80.97615814208984, 156.822509765625, 14.015586853027344, 
376, 3400614812, 0.8887831, 0.26814133, -0.17078489, 0.33014748, 4.579437255859375, 6.020534992218018, 10.640922546386719, -72.30936431884766, 115.08218383789062, 11.67741584777832, 
377, 3400631479, 0.8923305, 0.25194618, -0.16709079, 0.33518663, 2.6128346920013428, 4.167173862457275, 11.343023300170898, -90.30271911621094, 73.09501647949219, 34.668853759765625, 
378, 3400648146, 0.8938095, 0.2426667, -0.1665793, 0.3383326, 3.7566187381744385, -0.283005952835083, 9.571894645690918, -53.7785758972168, 31.893787384033203, 25.422752380371094, 
379, 3400664813, 0.89448065, 0.23875348, -0.16687793, 0.33919486, 4.235454082489014, 0.5518739819526672, 9.063915252685547, -23.872398376464844, 9.665066719055176, 8.450817108154297, 
380, 3400681480, 0.8947458, 0.23770289, -0.16721818, 0.33906525, 4.791858196258545, 2.250988245010376, 8.367342948913574, -6.78254508972168, 0.62235027551651, 0.061560142785310745, 
381, 3400698147, 0.89498746, 0.23617971, -0.1675241, 0.33934146, 4.823718070983887, 4.062889575958252, 7.98252010345459, -9.090263366699219, 2.572514533996582, 3.093425750732422, 
382, 3400714814, 0.89536035, 0.23342113, -0.16789255, 0.34008324, 4.875974178314209, 3.1772079467773438, 7.880579948425293, -16.54128646850586, 5.982302188873291, 7.1894683837890625, 
383, 3400731481, 0.8956963, 0.23060617, -0.16810362, 0.34101382, 4.386724472045898, 3.00174617767334, 8.221271514892578, -16.251861572265625, 7.3519816398620605, 8.25461196899414, 
384, 3400748148, 0.8960193, 0.22785203, -0.1686179, 0.3417618, 4.504515171051025, 2.670006036758423, 8.221770286560059, -16.782119750976562, 5.033708572387695, 7.57609224319458, 
385, 3400764815, 0.89633346, 0.2252256, -0.16884758, 0.34256428, 4.7545084953308105, 2.4972403049468994, 8.121110916137695, -15.248518943786621, 6.559739589691162, 7.340672492980957, 
386, 3400781482, 0.896438, 0.22319253, -0.16914774, 0.34347227, 4.611320972442627, 2.220787286758423, 8.238831520080566, -11.308494567871094, 4.651461124420166, 7.904071807861328, 
387, 3400798149, 0.8964593, 0.22173555, -0.1691105, 0.3443776, 4.540738582611084, 2.2022087574005127, 8.340211868286133, -6.828776836395264, 5.2708516120910645, 6.8944926261901855, 
388, 3400814816, 0.8965221, 0.2206483, -0.16874291, 0.34509173, 4.415378570556641, 2.500242233276367, 8.225825309753418, -4.0447773933410645, 6.185839653015137, 4.681311130523682, 
389, 3400831483, 0.89657253, 0.21978731, -0.16816323, 0.34579238, 4.374233722686768, 2.629570722579956, 8.211540222167969, -2.143110752105713, 6.918606758117676, 4.044592380523682, 
390, 3400848150, 0.89665073, 0.21908182, -0.16757303, 0.34632376, 4.357020378112793, 2.2881791591644287, 8.396421432495117, -1.400099277496338, 6.38697624206543, 2.743440866470337, 
391, 3400864817, 0.8966725, 0.21892092, -0.16684428, 0.34672034, 4.192867755889893, 2.6405906677246094, 8.350249290466309, 2.222439765930176, 5.6719970703125, 1.2098416090011597, 
392, 3400881484, 0.8966862, 0.21904205, -0.16617732, 0.34692904, 4.277801990509033, 2.7204225063323975, 8.326730728149414, 3.608112335205078, 4.31860876083374, -0.15602616965770721, 
393, 3400898151, 0.8967466, 0.21885027, -0.16568318, 0.34713024, 4.3189377784729, 2.7626078128814697, 8.37916374206543, 1.183831810951233, 4.0363688468933105, 0.30746763944625854, 
394, 3400914818, 0.89670175, 0.2190979, -0.16522217, 0.3473095, 4.312135696411133, 2.408442974090576, 8.331753730773926, 3.9418721199035645, 2.626800298690796, -0.02404392510652542, 
395, 3400931485, 0.89656955, 0.2194115, -0.16506913, 0.34752584, 4.317559719085693, 2.4879980087280273, 8.486846923828125, 3.7901551723480225, 0.5227168202400208, 0.8033552169799805, 
396, 3400948152, 0.8961398, 0.22094695, -0.16505255, 0.34766904, 4.17723274230957, 1.8948988914489746, 8.545342445373535, 11.363028526306152, -3.691694736480713, -0.11836274713277817, 
397, 3400964819, 0.8954341, 0.22367677, -0.16525534, 0.34764534, 4.17478084564209, 2.834437847137451, 8.310729026794434, 18.43946647644043, -8.472929954528809, -1.5149997472763062, 
398, 3400981486, 0.8947818, 0.22470433, -0.16612062, 0.34824935, 4.550950050354004, 2.917262077331543, 8.316457748413086, 7.000977993011475, -7.465011119842529, 5.177877902984619, 
399, 3400998153, 0.8936377, 0.22761369, -0.16662057, 0.34905776, 4.26603889465332, 1.7667853832244873, 8.48414421081543, 20.440473556518555, -9.97038459777832, 4.900730609893799, 
400, 3401014820, 0.892484, 0.22979315, -0.16811052, 0.3498665, 4.565040588378906, 3.2549426555633545, 8.317682266235352, 13.61085319519043, -14.320562362670898, 7.302896499633789, 
401, 3401031487, 0.89083385, 0.23273455, -0.17011774, 0.35115495, 4.475322246551514, 2.4932377338409424, 8.653108596801758, 18.36901092529297, -19.14720916748047, 11.38060188293457, 
402, 3401048154, 0.8887063, 0.23667948, -0.1736386, 0.35218439, 4.170057773590088, 3.0210485458374023, 8.907249450683594, 21.326663970947266, -31.82358741760254, 12.190203666687012, 
403, 3401064821, 0.8858135, 0.24107549, -0.17916472, 0.35371917, 4.48626708984375, 4.427074432373047, 8.911900520324707, 21.072628021240234, -45.27933120727539, 19.856359481811523, 
404, 3401081488, 0.8820645, 0.24426311, -0.18773921, 0.3564432, 4.576589107513428, 3.7048330307006836, 9.147869110107422, 9.156110763549805, -60.008785247802734, 35.73647689819336, 
405, 3401098155, 0.87691516, 0.24879418, -0.20009978, 0.3592788, 3.1559998989105225, 3.779742956161499, 9.82514476776123, 10.508191108703613, -87.90601348876953, 44.474395751953125, 
406, 3401114822, 0.8696867, 0.2550106, -0.2190166, 0.36145052, 4.894441604614258, 4.121638774871826, 11.17379093170166, 7.1044487953186035, -135.66024780273438, 54.51961898803711, 
407, 3401131489, 0.85895723, 0.26381668, -0.24787499, 0.3621482, 2.4130845069885254, 4.516417503356934, 13.693675994873047, 1.788840413093567, -209.4748992919922, 67.947265625, 
408, 3401148156, 0.84281653, 0.27411398, -0.29053706, 0.36070794, 2.1708033084869385, 5.7081074714660645, 14.96340560913086, -17.621686935424805, -308.0203857421875, 91.33184814453125, 
409, 3401164823, 0.81889004, 0.28424677, -0.34801823, 0.3570804, 0.9175258874893188, 6.980576992034912, 14.552921295166016, -45.07539749145508, -413.4971923828125, 126.30609893798828, 
410, 3401181490, 0.7853376, 0.2919926, -0.41737348, 0.3518305, -0.45423513650894165, 6.646347999572754, 10.947319984436035, -72.83734893798828, -501.1318054199219, 169.86746215820312, 
411, 3401198157, 0.7433467, 0.29254878, -0.49376273, 0.3435829, 2.3175363540649414, 7.1091532707214355, 7.161946773529053, -120.49046325683594, -552.3480834960938, 209.0093994140625, 
412, 3401214824, 0.69945943, 0.27748242, -0.56854814, 0.33243522, 10.202353477478027, 3.3684520721435547, 3.228926658630371, -202.77743530273438, -519.6046142578125, 248.61019897460938, 
413, 3401231491, 0.65882885, 0.25764447, -0.6265955, 0.32701996, 18.43195915222168, 3.049365520477295, -0.4868345260620117, -171.2310333251953, -404.2237548828125, 255.36758422851562, 
414, 3401248158, 0.6269055, 0.23397541, -0.6700226, 0.32142645, 17.1174373626709, 3.76900577545166, 3.4038238525390625, -171.9013214111328, -291.9238586425781, 225.53053283691406, 
415, 3401264825, 0.61655504, 0.22002518, -0.68641543, 0.3166749, 19.273208618164062, 2.868015766143799, 13.699758529663086, -101.0418701171875, -96.03294372558594, 93.18651580810547, 
416, 3401281492, 0.63745, 0.21617462, -0.66136515, 0.33094177, 5.467936038970947, 2.086390495300293, 8.884719848632812, 74.4530029296875, 233.67437744140625, -4.489680767059326, 
417, 3401298159, 0.6598982, 0.19305882, -0.6364172, 0.3496225, -26.60394287109375, 17.26565170288086, 3.4178457260131836, 7.462173938751221, 290.57586669921875, 99.1579360961914, 
418, 3401314826, 0.6753961, 0.1724464, -0.62447417, 0.35232756, -6.539542198181152, 1.9377881288528442, 0.8845642805099487, -73.24077606201172, 173.77310180664062, 49.86537551879883, 
419, 3401331493, 0.6899185, 0.17120287, -0.6014879, 0.36457434, -7.035295486450195, 4.814228057861328, -0.38555389642715454, 85.5562973022461, 185.2466583251953, 0.26247265934944153, 
420, 3401348160, 0.70843333, 0.16911003, -0.5777391, 0.36843133, -2.568493366241455, 6.796735763549805, 2.362327814102173, 44.00093460083008, 197.6322021484375, -46.87771987915039, 
421, 3401364827, 0.72997093, 0.17510937, -0.5482469, 0.36865252, 0.43121588230133057, 7.0119194984436035, 4.152925491333008, 79.97074890136719, 212.86520385742188, -110.9806137084961, 
422, 3401381494, 0.75211006, 0.18535563, -0.5170764, 0.364151, 1.8503782749176025, 4.6461381912231445, 3.7005646228790283, 86.96852111816406, 207.04954528808594, -154.13308715820312, 
423, 3401398161, 0.77252465, 0.19576746, -0.4871375, 0.3571805, 2.4048266410827637, 3.7052860260009766, 4.564340114593506, 78.1364974975586, 190.9348602294922, -161.52264404296875, 
424, 3401414828, 0.78903174, 0.20700474, -0.4592398, 0.35167748, 5.189171314239502, 1.2701282501220703, 4.5869526863098145, 87.66692352294922, 166.8911895751953, -144.07679748535156, 
425, 3401431495, 0.8007915, 0.21897501, -0.43459, 0.34916282, 7.292182922363281, -0.684831440448761, 3.9157721996307373, 99.9881820678711, 136.73834228515625, -114.03781127929688, 
426, 3401448162, 0.80553705, 0.2349083, -0.41689467, 0.34946686, 7.360394477844238, -2.254000663757324, 2.6638236045837402, 124.12076568603516, 72.2439956665039, -83.03473663330078, 
427, 3401464829, 0.8032322, 0.256836, -0.40846446, 0.34929973, 9.310529708862305, -3.0934929847717285, 3.0460762977600098, 145.1544952392578, -14.377659797668457, -70.92206573486328, 
428, 3401481496, 0.79671156, 0.2842013, -0.4057082, 0.34623855, 13.216938972473145, -1.935999870300293, 4.412115097045898, 160.9689483642578, -75.63679504394531, -82.04696655273438, 
429, 3401498163, 0.78989756, 0.31209025, -0.40479657, 0.33882365, 17.68814468383789, 0.02604582905769348, 5.355935573577881, 147.9678497314453, -96.21105194091797, -103.0685043334961, 
430, 3401514830, 0.78679186, 0.33491397, -0.40211454, 0.32725397, 22.41566276550293, 1.6583974361419678, 4.870083332061768, 105.1343994140625, -73.26905059814453, -123.99820709228516, 
431, 3401531497, 0.790292, 0.3487803, -0.39634168, 0.31097296, 25.827255249023438, -1.0509179830551147, 1.6067551374435425, 35.448936462402344, -28.835119247436523, -146.7603759765625, 
432, 3401548164, 0.79725754, 0.35697705, -0.38699013, 0.2952737, 25.416101455688477, -7.064724445343018, -3.481135845184326, 5.620290756225586, 13.774877548217773, -144.29183959960938, 
433, 3401564831, 0.80285853, 0.36107096, -0.3783478, 0.28618014, 20.623310089111328, -11.709293365478516, -5.153143882751465, 2.6734867095947266, 31.075298309326172, -92.91011810302734, 
434, 3401581498, 0.80229133, 0.36428964, -0.37756717, 0.28471938, 17.483905792236328, -16.581432342529297, -8.590508460998535, 17.617206573486328, -7.430222988128662, -17.15062141418457, 
435, 3401598165, 0.7942487, 0.37270746, -0.3808885, 0.2918599, 18.32965087890625, -10.752119064331055, -8.72029972076416, 79.41017150878906, -37.814353942871094, 41.34941101074219, 
436, 3401614832, 0.7858618, 0.37547952, -0.38762543, 0.3019652, 16.303041458129883, -3.6386401653289795, -7.647994041442871, 50.40679168701172, -38.167015075683594, 81.48668670654297, 
437, 3401631499, 0.7757043, 0.37821108, -0.40095925, 0.30736116, 15.659642219543457, 5.828754425048828, -9.300568580627441, 28.492897033691406, -90.37254333496094, 76.69461822509766, 
438, 3401648166, 0.79220843, 0.35001445, -0.4062041, 0.2913659, 25.559120178222656, 11.739569664001465, 14.123117446899414, -247.8253631591797, 36.28659439086914, -29.493358612060547, 
439, 3401664833, 0.8121742, 0.33874822, -0.36711204, 0.30141592, 24.735294342041016, 2.3591582775115967, 6.8497724533081055, -2.3107407093048096, 316.2974853515625, -48.488121032714844, 
440, 3401681500, 0.841158, 0.32045346, -0.31887424, 0.29678652, -4.061996936798096, 8.11850357055664, 15.865532875061035, -80.6385726928711, 370.7200622558594, -152.85728454589844, 
441, 3401698167, 0.8586091, 0.30215967, -0.28972754, 0.29588556, 15.061738014221191, 5.430279731750488, 6.046368598937988, -85.93936157226562, 242.82969665527344, -65.4592514038086, 
442, 3401714834, 0.8722591, 0.28685808, -0.25231057, 0.30531284, 0.5788114070892334, 5.629991054534912, 8.52668571472168, -22.960193634033203, 299.5782470703125, -19.886377334594727, 
443, 3401731501, 0.8815838, 0.2753872, -0.22097115, 0.31327906, 6.4445366859436035, 0.35653525590896606, 8.836260795593262, -6.728779315948486, 244.5618133544922, -14.145097732543945, 
444, 3401748168, 0.8897099, 0.26321545, -0.19283603, 0.31929317, 2.5040676593780518, 4.618646621704102, 11.32645034790039, -18.499629974365234, 221.10845947265625, -16.27407455444336, 
445, 3401764835, 0.89571965, 0.24912877, -0.1763743, 0.32328543, 3.048003911972046, 5.627248287200928, 12.796561241149902, -54.66765213012695, 147.3392333984375, -0.27588561177253723, 
446, 3401781502, 0.89876395, 0.23648441, -0.17228149, 0.32652372, 1.6161365509033203, 3.8655614852905273, 14.381353378295898, -69.10405731201172, 62.99123001098633, 21.160640716552734, 
447, 3401798169, 0.8989437, 0.23269334, -0.17465013, 0.32749307, 2.9685585498809814, -2.4014158248901367, 11.037631034851074, -26.902021408081055, -3.9935262203216553, 13.624606132507324, 
448, 3401814836, 0.8972226, 0.23930137, -0.17781855, 0.3257411, 4.083499431610107, 0.676638662815094, 9.110859870910645, 35.435176849365234, -39.037139892578125, -10.151895523071289, 
449, 3401831503, 0.8955597, 0.24622945, -0.17981546, 0.32405296, 6.25174617767334, 3.0260283946990967, 6.464066982269287, 40.046573638916016, -32.371185302734375, -12.227999687194824, 
450, 3401848170, 0.8944273, 0.25171605, -0.1789586, 0.32343885, 6.054187297821045, 3.6247875690460205, 6.447778701782227, 37.94411087036133, -9.08521556854248, -9.858595848083496, 
451, 3401864837, 0.8938831, 0.25488478, -0.17727198, 0.32339045, 5.021700859069824, 3.991588830947876, 7.46028995513916, 25.192726135253906, 2.899339199066162, -6.2774505615234375, 
452, 3401881504, 0.8934367, 0.25778735, -0.1759133, 0.32306522, 4.725924015045166, 3.4382457733154297, 8.091012001037598, 22.302942276000977, 1.111426830291748, -7.2931599617004395, 
453, 3401898171, 0.8929119, 0.2605562, -0.1750333, 0.32277265, 4.688509464263916, 4.230928897857666, 7.809845447540283, 20.59227180480957, -1.575830340385437, -5.906445503234863, 
454, 3401914838, 0.8926023, 0.26172376, -0.17496437, 0.3227215, 4.487738132476807, 4.396476745605469, 7.8264594078063965, 8.85109806060791, -2.3149850368499756, -1.515407681465149, 
455, 3401931505, 0.892446, 0.2619402, -0.17488217, 0.32302272, 5.100683212280273, 3.330716371536255, 7.5786967277526855, 3.1748604774475098, 0.6869197487831116, 1.4386268854141235, 
456, 3401948172, 0.8923775, 0.26226634, -0.17426316, 0.32328203, 5.013808250427246, 3.010986566543579, 7.728821277618408, 4.8288254737854, 3.7712011337280273, -0.11226686090230942, 
457, 3401964839, 0.89241165, 0.26254174, -0.17328817, 0.3234882, 4.907446384429932, 3.2484517097473145, 7.748935699462891, 5.063093662261963, 6.096092700958252, -1.2510333061218262, 
458, 3401981506, 0.89240247, 0.26296398, -0.1721711, 0.32376713, 4.810079097747803, 3.1604743003845215, 7.86513614654541, 6.444413185119629, 6.720633506774902, -1.138772964477539, 
459, 3401998173, 0.8923066, 0.263756, -0.17125091, 0.3238749, 4.362572193145752, 3.5402772426605225, 8.067673683166504, 8.23082160949707, 4.27508020401001, -2.078618049621582, 
460, 3402014840, 0.8921518, 0.2643038, -0.17080367, 0.32409108, 4.622863292694092, 3.6796092987060547, 7.886453628540039, 5.912539005279541, 2.033904790878296, -0.1316429078578949, 
461, 3402031507, 0.8919791, 0.2646355, -0.17051524, 0.32444715, 4.728818893432617, 3.470791816711426, 7.728944301605225, 4.424312114715576, 1.7696709632873535, 1.3123947381973267, 
462, 3402048174, 0.89189285, 0.2645253, -0.17014976, 0.32496566, 4.905873775482178, 3.661984443664551, 7.523247241973877, 1.9170984029769897, 3.623044967651367, 2.495958089828491, 
463, 3402064841, 0.89184135, 0.26372474, -0.16983174, 0.32592252, 4.6782708168029785, 3.7967050075531006, 7.751305103302002, -1.978254795074463, 5.713836193084717, 6.002567768096924, 
464, 3402081508, 0.8916322, 0.26263162, -0.16998692, 0.32729387, 4.602336883544922, 3.44659161567688, 8.042686462402344, -4.068828582763672, 4.032183647155762, 10.102689743041992, 
465, 3402098175, 0.89091283, 0.26255602, -0.17077973, 0.3288966, 4.216829776763916, 3.3486874103546143, 8.335460662841797, 1.9256664514541626, -2.3502676486968994, 12.63374137878418, 
466, 3402114842, 0.88975877, 0.26288727, -0.17306846, 0.33055565, 4.241796016693115, 4.130690097808838, 8.23850154876709, 1.8887600898742676, -12.856538772583008, 16.187776565551758, 
467, 3402131509, 0.88811827, 0.2626982, -0.1765159, 0.33328357, 4.664036273956299, 4.452232360839844, 7.9770426750183105, -1.7857816219329834, -17.423633575439453, 26.555395126342773, 
468, 3402148176, 0.8857113, 0.26242977, -0.1813579, 0.33727655, 4.961296558380127, 4.12758207321167, 8.192334175109863, -2.560206413269043, -24.411636352539062, 38.660179138183594, 
469, 3402164843, 0.8823941, 0.26245493, -0.18858242, 0.3419573, 4.851047992706299, 4.338577747344971, 8.925213813781738, -3.806823968887329, -39.502201080322266, 48.89802932739258, 
470, 3402181510, 0.8777703, 0.26354417, -0.19971617, 0.3466659, 3.9616405963897705, 4.685185432434082, 9.74913501739502, -4.157357692718506, -67.38277435302734, 57.82042694091797, 
471, 3402198177, 0.87116355, 0.26579013, -0.21741267, 0.3509437, 4.242074489593506, 4.327748775482178, 10.634730339050293, -9.828703880310059, -113.29493713378906, 70.26795196533203, 
472, 3402214844, 0.8607115, 0.27176952, -0.2445211, 0.35429728, 3.081639289855957, 3.981466770172119, 13.201346397399902, -4.54046630859375, -186.1814422607422, 85.6460189819336, 
473, 3402231511, 0.8452036, 0.27979463, -0.28412768, 0.35583344, 2.028874158859253, 5.400270938873291, 14.05272388458252, -16.48995018005371, -277.1763610839844, 107.1502456665039, 
474, 3402248178, 0.82281846, 0.28909412, -0.33606413, 0.355606, 2.4198598861694336, 5.035070896148682, 13.003857612609863, -29.494504928588867, -369.01556396484375, 135.02284240722656, 
475, 3402264845, 0.79197043, 0.29788792, -0.39840725, 0.35400206, 1.6657198667526245, 5.04929780960083, 10.956148147583008, -44.20745086669922, -449.2384338378906, 169.86822509765625, 
476, 3402281512, 0.75378346, 0.3021811, -0.46612403, 0.35103473, 3.4223756790161133, 4.769172668457031, 7.610308647155762, -70.57569122314453, -490.6988220214844, 203.73907470703125, 
477, 3402298179, 0.71315277, 0.29913193, -0.5320665, 0.34472966, 7.017935276031494, 4.535313606262207, 4.752999782562256, -110.05789184570312, -478.6188049316406, 212.22373962402344, 
478, 3402314846, 0.6767486, 0.28993863, -0.58693135, 0.33683622, 16.344816207885742, 2.264125347137451, 1.3492822647094727, -128.46871948242188, -397.39263916015625, 194.07801818847656, 
479, 3402331513, 0.6496473, 0.27556673, -0.6258536, 0.3321576, 13.779614448547363, 5.225694179534912, 2.5554709434509277, -121.2013931274414, -267.0491943359375, 176.55020141601562, 
480, 3402348180, 0.6286551, 0.2580612, -0.6567552, 0.32690945, 4.157100677490234, 4.545507431030273, 2.9096109867095947, -130.9256591796875, -198.82240295410156, 158.3892822265625, 
481, 3402364847, 0.6145205, 0.2429563, -0.67777425, 0.32242665, 5.985819339752197, 3.027261972427368, 6.595524787902832, -107.05059051513672, -129.18214416503906, 117.94437408447266, 
482, 3402381514, 0.61536866, 0.23535661, -0.67098045, 0.3401677, -1.4767643213272095, 1.5643612146377563, 9.479687690734863, 64.84112548828125, 78.55896759033203, 97.23763275146484, 
483, 3402398181, 0.6273646, 0.22337362, -0.66236436, 0.34320772, -5.916720390319824, 12.904440879821777, 9.527986526489258, -35.34267807006836, 124.02423095703125, 26.252511978149414, 
484, 3402414848, 0.6546944, 0.20239146, -0.64179456, 0.3442568, -2.7281484603881836, 5.5881123542785645, 4.707694053649902, -78.64408111572266, 263.51275634765625, 4.257972240447998, 
485, 3402431515, 0.67492247, 0.2015096, -0.6151259, 0.35425106, -6.985314846038818, -2.8301823139190674, -2.6608164310455322, 75.61763000488281, 224.40707397460938, -35.79975891113281, 
486, 3402448182, 0.6919346, 0.20525005, -0.5884958, 0.36437884, -2.3765347003936768, 6.177886009216309, 2.049696207046509, 102.00711059570312, 199.584716796875, -46.89682388305664, 
487, 3402464849, 0.7097089, 0.209804, -0.56156355, 0.37005663, 2.401320695877075, 6.892572402954102, 4.4280924797058105, 87.517578125, 195.76382446289062, -73.60916137695312, 
488, 3402481516, 0.729611, 0.21422274, -0.53376555, 0.3699603, 5.179240703582764, 4.361448287963867, 4.808714866638184, 63.651729583740234, 200.1766815185547, -107.83172607421875, 
489, 3402498183, 0.7504402, 0.22116432, -0.50284463, 0.3675233, 7.540085315704346, 3.6340928077697754, 5.412451267242432, 74.2735824584961, 209.3544921875, -135.73757934570312, 
490, 3402514850, 0.7705894, 0.22964618, -0.47029978, 0.36369357, 9.336138725280762, 1.504814863204956, 4.923243045806885, 82.52316284179688, 209.34803771972656, -148.9547882080078, 
491, 3402531517, 0.78728616, 0.24127813, -0.4379654, 0.36076546, 9.997641563415527, -0.2602911591529846, 4.600025177001953, 107.0541763305664, 190.6134033203125, -145.37338256835938, 
492, 3402548184, 0.79883146, 0.25576365, -0.4093592, 0.3589965, 9.284564971923828, -1.3733203411102295, 3.6514596939086914, 125.30123901367188, 149.77503967285156, -128.7178192138672, 
493, 3402564851, 0.80317014, 0.27292573, -0.39092112, 0.3572258, 8.98993968963623, -2.1595802307128906, 3.909886121749878, 127.59234619140625, 67.06161499023438, -100.59063720703125, 
494, 3402581518, 0.8017469, 0.2938014, -0.38176423, 0.35374978, 11.424311637878418, -1.3626627922058105, 5.380568504333496, 131.57766723632812, -11.959159851074219, -88.43729400634766, 
495, 3402598185, 0.79855454, 0.3165333, -0.3771961, 0.34617984, 16.607086181640625, 1.4497547149658203, 5.9141154289245605, 123.53343963623047, -54.63582992553711, -102.32656860351562, 
496, 3402614852, 0.79871964, 0.3336919, -0.37409323, 0.33279285, 21.684120178222656, 3.6055943965911865, 4.684390068054199, 67.08789825439453, -53.29296112060547, -124.63265228271484, 
497, 3402631519, 0.80332506, 0.34275326, -0.37080452, 0.31574216, 23.12453269958496, -0.5049562454223633, 1.984275221824646, 3.4520487785339355, -30.617244720458984, -134.54898071289062, 
498, 3402648186, 0.8075481, 0.35005695, -0.36564702, 0.3027022, 22.009368896484375, -7.264220237731934, -1.861924409866333, 8.958575248718262, -7.852613925933838, -111.59407806396484, 
499, 3402664853, 0.80726975, 0.3610302, -0.3606216, 0.29652128, 18.133089065551758, -10.204788208007812, -2.2698137760162354, 57.1917724609375, -10.842584609985352, -73.23480224609375, 
500, 3402681520, 0.8025901, 0.3751106, -0.35627466, 0.29700142, 18.325056076049805, -10.805363655090332, -3.040318250656128, 100.56320190429688, -15.157349586486816, -33.51401138305664, 
501, 3402698187, 0.7970793, 0.38637075, -0.351392, 0.30316022, 16.618961334228516, -6.741995811462402, -2.5150272846221924, 102.20980834960938, 6.331221103668213, 4.82767391204834, 
502, 3402714854, 0.79276615, 0.39018685, -0.34970567, 0.31141946, 14.551963806152344, -4.480255603790283, -3.6482841968536377, 56.68046569824219, 12.93759822845459, 40.14811325073242, 
503, 3402731521, 0.78805315, 0.3898589, -0.35214978, 0.320894, 11.409244537353516, -5.813730239868164, -5.33967924118042, 29.259761810302734, 1.7258687019348145, 68.54190826416016, 
504, 3402748188, 0.777729, 0.39477324, -0.36106357, 0.3300378, 9.489360809326172, -6.5334672927856445, -5.861153602600098, 57.64575958251953, -59.244998931884766, 83.6517562866211, 
505, 3402764855, 0.7666893, 0.4046107, -0.37153646, 0.33232322, 12.567782402038574, 21.701204299926758, -0.8001629114151001, 65.35317993164062, -99.03653717041016, 40.47908020019531, 
506, 3402781522, 0.7945922, 0.37093285, -0.37210077, 0.30425817, 38.649349212646484, 5.000662326812744, 20.647247314453125, -327.5527038574219, 67.79151916503906, -124.7390365600586, 
507, 3402798189, 0.81926584, 0.36907881, -0.31315738, 0.3074358, 4.959284782409668, 10.445323944091797, 2.805419921875, 59.23788833618164, 397.9961242675781, -180.64222717285156, 
508, 3402814856, 0.84612876, 0.33787927, -0.28772104, 0.2951613, 3.9994513988494873, 2.7751593589782715, 10.9833402633667, -215.87542724609375, 236.62693786621094, -123.91650390625, 
509, 3402831523, 0.85882586, 0.32774416, -0.25199452, 0.30249086, 9.360599517822266, 12.120515823364258, 6.210575580596924, -0.6096809506416321, 271.1711730957031, -46.6169548034668, 
510, 3402848190, 0.8684721, 0.30913556, -0.2275829, 0.31368405, 2.359121322631836, 7.82718563079834, 8.766968727111816, -60.663150787353516, 225.39369201660156, 22.805225372314453, 
511, 3402864857, 0.87704724, 0.29005936, -0.20466802, 0.32367393, 3.0785677433013916, 0.4596913456916809, 8.81424617767334, -66.28878021240234, 213.17262268066406, 21.913057327270508, 
512, 3402881524, 0.88421464, 0.27342772, -0.18485798, 0.33049908, 6.967262268066406, 1.73128080368042, 9.36551570892334, -60.03322982788086, 180.66787719726562, 8.724483489990234, 
513, 3402898191, 0.88977385, 0.25710133, -0.17244163, 0.33535898, 2.9953489303588867, 7.007054805755615, 12.37313175201416, -74.4035873413086, 129.28195190429688, 13.944696426391602, 
514, 3402914858, 0.8923281, 0.24276423, -0.1702758, 0.34032685, 0.833646297454834, 1.0601716041564941, 13.39382553100586, -80.43341064453125, 58.55622863769531, 37.34716033935547, 
515, 3402931525, 0.89233506, 0.24082738, -0.17140417, 0.34111744, 3.6241776943206787, -2.1025238037109375, 9.758700370788574, -12.647953033447266, -0.7056368589401245, 8.675336837768555, 
516, 3402948192, 0.89145285, 0.24510866, -0.17282543, 0.3396543, 4.631627559661865, 1.5087130069732666, 8.458833694458008, 23.69375228881836, -21.888874053955078, -9.932575225830078, 
517, 3402964859, 0.89052016, 0.24994458, -0.1733615, 0.3383007, 5.590586185455322, 3.393213987350464, 7.4211249351501465, 29.389333724975586, -17.640525817871094, -11.306206703186035, 
518, 3402981526, 0.8899446, 0.25314686, -0.17249162, 0.33787864, 5.634238243103027, 3.5749242305755615, 7.141131401062012, 23.143272399902344, -3.198014974594116, -6.906434535980225, 
519, 3402998193, 0.8895469, 0.25580397, -0.17096494, 0.33770102, 4.872816562652588, 3.1803035736083984, 7.849079132080078, 21.303285598754883, 2.7348520755767822, -6.324215888977051, 
520, 3403014860, 0.889208, 0.25854266, -0.16994655, 0.33702126, 4.5301690101623535, 3.681652784347534, 8.03649616241455, 19.9246883392334, -1.379969596862793, -8.733797073364258, 
521, 3403031527, 0.8889101, 0.2607004, -0.16919225, 0.33652374, 4.866816520690918, 3.777430772781372, 7.669401168823242, 15.894271850585938, -1.2835882902145386, -6.563562393188477, 
522, 3403048194, 0.88862216, 0.2624008, -0.16861562, 0.33625177, 4.639584064483643, 3.599780797958374, 7.7683329582214355, 12.923665046691895, -0.896156907081604, -4.356229782104492, 
523, 3403064861, 0.888328, 0.26408073, -0.16814774, 0.33594832, 4.73292875289917, 3.3279476165771484, 7.85702657699585, 12.51637077331543, -1.5814379453659058, -4.311727523803711, 
524, 3403081528, 0.88802665, 0.26587546, -0.16771795, 0.33554396, 4.815458297729492, 3.2854549884796143, 7.839244842529297, 13.024271011352539, -2.275043249130249, -4.975558280944824, 
525, 3403098195, 0.8876835, 0.26791927, -0.16732906, 0.33502012, 4.604701995849609, 3.3121838569641113, 7.9292497634887695, 14.38916301727295, -3.367913007736206, -5.8227386474609375, 
526, 3403114862, 0.88719994, 0.27046227, -0.16704965, 0.33439642, 4.644538879394531, 3.2405474185943604, 7.909677028656006, 17.32506561279297, -5.536262035369873, -6.481256484985352, 
527, 3403131529, 0.88649905, 0.2737437, -0.1669098, 0.3336541, 4.560849666595459, 3.3229751586914062, 8.014374732971191, 21.777809143066406, -8.561941146850586, -7.296196937561035, 
528, 3403148196, 0.88569736, 0.27725288, -0.16699429, 0.33284262, 4.758685111999512, 3.5260305404663086, 7.720798015594482, 22.760805130004883, -10.704244613647461, -7.327407360076904, 
529, 3403164863, 0.88498396, 0.28033963, -0.16697425, 0.33216354, 4.805184841156006, 3.847132682800293, 7.368607997894287, 20.408788681030273, -8.750435829162598, -6.438629150390625, 
530, 3403181530, 0.8843833, 0.28280526, -0.1669049, 0.33170804, 4.851617336273193, 3.935338258743286, 7.526872634887695, 16.775672912597656, -6.474187850952148, -4.717474460601807, 
531, 3403198197, 0.8837331, 0.2849861, -0.16699113, 0.33153114, 4.737618923187256, 3.9702930450439453, 7.701045513153076, 15.099533081054688, -6.287815570831299, -2.280858278274536, 
532, 3403214864, 0.8829569, 0.28702977, -0.16741262, 0.33162355, 4.663785457611084, 4.012147903442383, 7.572232723236084, 14.053366661071777, -7.632789611816406, 0.4583781063556671, 
533, 3403231531, 0.8819011, 0.28915575, -0.16847198, 0.33204934, 4.59456729888916, 3.928367853164673, 7.876626491546631, 14.029461860656738, -11.363373756408691, 4.2849578857421875, 
534, 3403248198, 0.88036823, 0.29202905, -0.17040427, 0.33261588, 4.677456378936768, 3.779348134994507, 8.00737190246582, 17.676828384399414, -18.643098831176758, 7.098628044128418, 
535, 3403264865, 0.87852585, 0.29483935, -0.17388219, 0.33320743, 4.4421916007995605, 4.61320686340332, 8.017641067504883, 14.411733627319336, -28.176340103149414, 11.133832931518555, 
536, 3403281532, 0.8763171, 0.29687035, -0.1789166, 0.33455276, 5.012985706329346, 4.9264326095581055, 7.527365684509277, 7.7751784324646, -34.714195251464844, 20.61968994140625, 
537, 3403298199, 0.8736472, 0.2980788, -0.18546978, 0.33688393, 4.995442867279053, 4.823777198791504, 7.622239589691162, 1.4702723026275635, -40.53160095214844, 31.74066734313965, 
538, 3403314866, 0.870152, 0.2995038, -0.19419077, 0.33973965, 5.2764177322387695, 4.898892879486084, 7.646255016326904, 0.09676636010408401, -54.04204559326172, 40.972537994384766, 
539, 3403331533, 0.86530834, 0.3015273, -0.20618615, 0.34323475, 4.378458499908447, 4.21937894821167, 8.76930046081543, -0.3526911437511444, -75.52192687988281, 53.89676284790039, 
540, 3403348200, 0.85865474, 0.30527937, -0.2226861, 0.34630573, 4.8849921226501465, 4.382909774780273, 9.267057418823242, 2.4510302543640137, -109.87586212158203, 62.540443420410156, 
541, 3403364867, 0.8491037, 0.31175616, -0.24573499, 0.34849036, 4.13663387298584, 4.726327896118164, 10.699552536010742, 7.663928031921387, -161.36485290527344, 73.78535461425781, 
542, 3403381534, 0.8351886, 0.32125914, -0.27835944, 0.34895337, 3.3976261615753174, 5.14656925201416, 12.619757652282715, 8.835148811340332, -235.66346740722656, 89.63225555419922, 
543, 3403398201, 0.8152262, 0.33338845, -0.322113, 0.3471337, 2.790173292160034, 4.098951816558838, 12.831005096435547, 6.193296909332275, -322.6529235839844, 110.62108612060547, 
544, 3403414868, 0.7856706, 0.3503498, -0.37716326, 0.34311008, 1.7963013648986816, 4.415676116943359, 12.501091957092285, 23.432334899902344, -424.06951904296875, 136.41526794433594, 
545, 3403431535, 0.7464176, 0.36698878, -0.44165495, 0.33633482, 2.026475191116333, 6.179882526397705, 9.707685470581055, 15.626716613769531, -506.4151611328125, 168.09654235839844, 
546, 3403448202, 0.7010188, 0.37722182, -0.5105346, 0.3250091, 4.559164047241211, 5.542356014251709, 5.530212879180908, -25.78999137878418, -544.49609375, 189.57174682617188, 
547, 3403464869, 0.65623, 0.3787962, -0.5741009, 0.3102966, 13.596311569213867, 0.74666428565979, 1.1662142276763916, -69.20428466796875, -506.1233215332031, 188.5070037841797, 
548, 3403481536, 0.61814445, 0.37719086, -0.62068576, 0.3006225, 21.318391799926758, 4.411707401275635, -0.9979866147041321, -44.882816314697266, -382.84002685546875, 165.138916015625, 
549, 3403498203, 0.58996344, 0.37200457, -0.6531844, 0.29479864, 9.872060775756836, 4.120903491973877, 3.2201614379882812, -40.255523681640625, -263.1534423828125, 139.74356079101562, 
550, 3403514870, 0.5728834, 0.3672341, -0.6736099, 0.2884329, 14.321742057800293, 7.611874103546143, 4.353818416595459, -44.92802810668945, -166.542724609375, 82.30355834960938, 
551, 3403531537, 0.57876086, 0.3580574, -0.6713755, 0.293404, 13.283697128295898, 3.6035547256469727, 12.988743782043457, -22.7947940826416, 66.33891296386719, 44.69514083862305, 
552, 3403548204, 0.6023083, 0.3421613, -0.6459914, 0.32069567, -9.623916625976562, 2.522002935409546, 6.584579944610596, 56.72357940673828, 308.4537658691406, 71.96308898925781, 
553, 3403564871, 0.62109894, 0.31411758, -0.6338912, 0.3372658, -10.03115177154541, 12.574640274047852, 4.54607629776001, -59.35348892211914, 233.764404296875, 123.2928695678711, 
554, 3403581538, 0.6473909, 0.2708517, -0.6234937, 0.34464508, -1.7129499912261963, -3.1225833892822266, -0.536167323589325, -184.646728515625, 274.6438903808594, 136.8223876953125, 
555, 3403598205, 0.66484314, 0.25465903, -0.5951989, 0.37265372, -3.739753484725952, 5.60303258895874, 0.7808002233505249, 83.23059844970703, 290.6687927246094, 100.12643432617188, 
556, 3403614872, 0.68387383, 0.23456241, -0.5710894, 0.3887854, -1.8192706108093262, 7.013260364532471, 0.8411499261856079, 3.218446731567383, 267.1673889160156, 65.1347427368164, 
557, 3403631539, 0.7033808, 0.22222883, -0.5451104, 0.39840248, 0.5377318263053894, 6.2098708152771, 2.1071813106536865, 18.33693504333496, 246.5433349609375, -0.2137327939271927, 
558, 3403648206, 0.72252053, 0.2203417, -0.5171522, 0.40245187, 1.617250680923462, 4.444447040557861, 1.4823724031448364, 53.938720703125, 217.58811950683594, -68.26091766357422, 
559, 3403664873, 0.74015486, 0.22488737, -0.49236065, 0.39897066, 2.301833152770996, 4.304941654205322, 2.3262834548950195, 52.61213302612305, 167.2766876220703, -119.54097747802734, 
560, 3403681540, 0.7544359, 0.23557034, -0.47077334, 0.3920532, 4.798333168029785, 3.17905855178833, 2.9441778659820557, 68.59290313720703, 117.44827270507812, -143.60768127441406, 
561, 3403698207, 0.7654499, 0.2487639, -0.4530242, 0.3833696, 8.079595565795898, 2.8468286991119385, 4.23063325881958, 70.85012817382812, 77.32589721679688, -145.82664489746094, 
562, 3403714874, 0.7745584, 0.26162037, -0.43786728, 0.37401405, 11.02331829071045, 2.1930127143859863, 4.758572101593018, 63.41354751586914, 57.48896026611328, -138.82054138183594, 
563, 3403731541, 0.7819863, 0.27319163, -0.42551997, 0.36441287, 12.079636573791504, 0.45919573307037354, 4.352255344390869, 51.63849639892578, 40.3432731628418, -126.86141967773438, 
564, 3403748208, 0.7864028, 0.28519708, -0.41735998, 0.35502678, 12.659423828125, -1.2017595767974854, 3.9305777549743652, 49.78818130493164, 8.36474895477295, -111.56655883789062, 
565, 3403764875, 0.7881174, 0.29896823, -0.41260612, 0.34531903, 15.74648666381836, -1.136786937713623, 3.913642406463623, 55.43118667602539, -22.706478118896484, -105.12329864501953, 
566, 3403781542, 0.7895432, 0.312388, -0.4081041, 0.33538997, 19.297504425048828, -0.2434343695640564, 3.6336822509765625, 52.93061828613281, -24.453432083129883, -104.15695190429688, 
567, 3403798209, 0.7917813, 0.32466924, -0.40088505, 0.32705304, 21.75468635559082, -1.6670655012130737, 1.88798987865448, 55.76445388793945, -1.29922616481781, -100.07109832763672, 
568, 3403814876, 0.7944211, 0.3381369, -0.38908938, 0.32119796, 21.501930236816406, -3.9127612113952637, -0.547132670879364, 78.48542785644531, 27.704919815063477, -101.02044677734375, 
569, 3403831543, 0.7947211, 0.35566002, -0.37434158, 0.31904987, 20.689311981201172, -6.281254291534424, -3.3392701148986816, 122.54214477539062, 37.36528015136719, -93.41902923583984, 
570, 3403848210, 0.79212636, 0.37242442, -0.36212394, 0.3204721, 17.444974899291992, -5.32331657409668, -3.535285711288452, 129.1391143798828, 26.635438919067383, -59.544551849365234, 
571, 3403864877, 0.7892115, 0.38189238, -0.3572751, 0.3219594, 15.319611549377441, -5.282690525054932, -3.868107318878174, 74.15409088134766, 2.075690269470215, -21.565128326416016, 
572, 3403881544, 0.7873871, 0.38478747, -0.35789815, 0.32228747, 14.294574737548828, -4.1774444580078125, -4.888933181762695, 20.675430297851562, -13.315032958984375, 0.13180963695049286, 
573, 3403898211, 0.7872037, 0.38130996, -0.3620813, 0.32219592, 12.926752090454102, -5.516599655151367, -7.029176235198975, -27.085710525512695, -15.419633865356445, 19.227453231811523, 
574, 3403914878, 0.7835566, 0.38080928, -0.36843967, 0.32446232, 10.464900970458984, -8.262468338012695, -7.91326379776001, -0.8412379622459412, -36.0962028503418, 37.85497283935547, 
575, 3403931545, 0.77429, 0.3897008, -0.37744996, 0.32579124, 16.945894241333008, 17.05544090270996, -1.3507707118988037, 56.18785095214844, -87.90560913085938, 28.373680114746094, 
576, 3403948212, 0.8058796, 0.35045463, -0.36778155, 0.3040996, 57.25685119628906, -11.425187110900879, 7.6079912185668945, -327.7093505859375, 163.8888397216797, -110.75894927978516, 
577, 3403964879, 0.8323471, 0.3501768, -0.29150194, 0.31559688, -17.503185272216797, 16.490201950073242, 18.836870193481445, 124.1621322631836, 519.2388305664062, -175.6227569580078, 
578, 3403981546, 0.85295326, 0.3295946, -0.25839368, 0.31156233, 5.391510486602783, 6.7391276359558105, 10.889236450195312, -102.88392639160156, 266.3376159667969, -106.77426147460938, 
579, 3403998213, 0.86670613, 0.31088707, -0.22385573, 0.31946602, 6.469859600067139, 7.213599681854248, 7.3803606033325195, -52.04999923706055, 285.54071044921875, -28.57811164855957, 
580, 3404014880, 0.87625337, 0.29031777, -0.20217393, 0.32714185, 2.885366201400757, 6.413403511047363, 11.949628829956055, -82.76424407958984, 205.99411010742188, 9.660346984863281, 
581, 3404031547, 0.88237524, 0.27401456, -0.18666993, 0.33389264, 4.29048490524292, 3.1390185356140137, 10.542585372924805, -65.24815368652344, 152.599609375, 18.44505500793457, 
582, 3404048214, 0.886717, 0.26128164, -0.17661929, 0.33803925, 3.3259661197662354, 1.0637184381484985, 11.156983375549316, -56.2642707824707, 103.94477844238281, 12.111361503601074, 
583, 3404064881, 0.8885692, 0.25431085, -0.17405103, 0.33981928, 3.1915879249572754, 2.758484125137329, 12.131085395812988, -37.23886489868164, 37.358970642089844, 9.273452758789062, 
584, 3404081548, 0.88855124, 0.25122744, -0.17600767, 0.34114954, 4.071287155151367, 2.8363306522369385, 9.319862365722656, -20.7667293548584, -2.0242340564727783, 15.145029067993164, 
585, 3404098215, 0.88775134, 0.2513438, -0.1782222, 0.34199506, 5.379498481750488, 1.1977472305297852, 8.050698280334473, -1.128861665725708, -12.961530685424805, 10.452963829040527, 
586, 3404114882, 0.88679147, 0.2533396, -0.17970666, 0.34223643, 5.360265254974365, 2.7932417392730713, 7.79013729095459, 11.65522575378418, -14.13293170928955, 3.6460490226745605, 
587, 3404131549, 0.88611275, 0.25507855, -0.17991444, 0.34259313, 5.624910831451416, 3.5331180095672607, 7.120729923248291, 12.573781967163086, -5.318166732788086, 1.467711091041565, 
588, 3404148216, 0.8860055, 0.25550058, -0.1791107, 0.34297702, 5.441870212554932, 2.6125309467315674, 7.35681676864624, 5.980412483215332, 4.723917484283447, 0.18202948570251465, 
589, 3404164883, 0.8858511, 0.25728908, -0.17822565, 0.3424996, 4.743847370147705, 2.6833081245422363, 8.260031700134277, 13.694158554077148, 0.5572943091392517, -6.470662593841553, 
590, 3404181550, 0.88549614, 0.25989252, -0.17792529, 0.3416071, 4.742841720581055, 3.2331314086914062, 8.089224815368652, 17.021968841552734, -5.989737033843994, -8.68718147277832, 
591, 3404198217, 0.8851066, 0.26260504, -0.1775298, 0.34074676, 5.029651165008545, 3.423844575881958, 7.496651649475098, 17.9627628326416, -5.690516471862793, -8.795408248901367, 
592, 3404214884, 0.8846401, 0.26532972, -0.1772069, 0.3400145, 4.820478916168213, 3.4530346393585205, 7.824460983276367, 18.08523178100586, -6.079817295074463, -7.844931602478027, 
593, 3404231551, 0.8841842, 0.26763287, -0.1772211, 0.33938736, 4.7922821044921875, 4.129288673400879, 7.702565670013428, 15.113877296447754, -6.736959934234619, -5.622076511383057, 
594, 3404248218, 0.8838619, 0.26847243, -0.17762922, 0.33935028, 4.879321098327637, 4.084962368011475, 7.592332363128662, 5.612587928771973, -4.58483362197876, -0.09314700216054916, 
595, 3404264885, 0.88359493, 0.26885843, -0.1779759, 0.3395587, 5.053149700164795, 3.220147132873535, 7.570961952209473, 3.199679374694824, -2.627011299133301, 1.7334164381027222, 
596, 3404281552, 0.88334227, 0.269524, -0.17817526, 0.33958343, 4.980539798736572, 3.0573768615722656, 7.755298137664795, 5.023150444030762, -2.6819381713867188, 0.024985192343592644, 
597, 3404298219, 0.8830972, 0.27030033, -0.1783375, 0.33951887, 4.89750337600708, 3.563566207885742, 7.638867378234863, 5.695509433746338, -2.8481006622314453, -0.6803693771362305, 
598, 3404314886, 0.88288164, 0.2706085, -0.17840312, 0.3397993, 4.974826335906982, 3.510158061981201, 7.491870403289795, 3.0184950828552246, -0.8202658891677856, 1.0088329315185547, 
599, 3404331553, 0.8827362, 0.27064767, -0.17831108, 0.34019357, 4.968297004699707, 3.536320447921753, 7.563672065734863, 2.1303234100341797, 1.3442312479019165, 2.206162691116333, 
600, 3404348220, 0.8825082, 0.27058592, -0.17829135, 0.34084433, 4.836771011352539, 3.8133413791656494, 7.791134834289551, 1.8099086284637451, 1.5147478580474854, 4.21323823928833, 
601, 3404364887, 0.88224, 0.26986548, -0.17870508, 0.3418919, 4.899000644683838, 3.8397061824798584, 7.827538013458252, -2.695718288421631, 1.072570562362671, 8.243372917175293, 
602, 3404381554, 0.88180923, 0.26890627, -0.17955679, 0.3433095, 5.010705471038818, 3.4339499473571777, 7.722936630249023, -4.2836174964904785, -0.43706178665161133, 12.21297550201416, 
603, 3404398221, 0.8810482, 0.26799452, -0.18100238, 0.3452121, 4.8834028244018555, 3.937972068786621, 7.968469619750977, -4.361917495727539, -3.791983127593994, 16.678865432739258, 
604, 3404414888, 0.8798892, 0.26615465, -0.18373834, 0.34813347, 4.894603252410889, 4.713666915893555, 7.871946334838867, -10.754110336303711, -7.810561180114746, 27.837526321411133, 
605, 3404431555, 0.87839204, 0.26246434, -0.18733448, 0.35276866, 5.165619850158691, 4.716907978057861, 7.538263320922852, -21.47370147705078, -6.058356285095215, 42.52398681640625, 
606, 3404448222, 0.8764517, 0.257755, -0.19082046, 0.35914144, 5.409294128417969, 4.00783634185791, 7.195833206176758, -24.276866912841797, -0.32285863161087036, 55.30363464355469, 
607, 3404464889, 0.87374735, 0.25315785, -0.19503433, 0.3666584, 5.225329875946045, 3.9193336963653564, 8.151267051696777, -22.750213623046875, -4.084211349487305, 64.90778350830078, 
608, 3404481556, 0.87016994, 0.24926177, -0.20114273, 0.37445238, 4.797340393066406, 3.5497708320617676, 8.646124839782715, -21.450164794921875, -17.936323165893555, 71.10197448730469, 
609, 3404498223, 0.86560607, 0.24612468, -0.21004787, 0.38213715, 4.321901321411133, 3.5347583293914795, 9.359405517578125, -22.28057289123535, -38.021141052246094, 77.19871520996094, 
610, 3404514890, 0.8599966, 0.24337165, -0.22293484, 0.38919958, 4.709005355834961, 3.687906503677368, 10.062891960144043, -29.725099563598633, -65.38484191894531, 82.22660064697266, 
611, 3404531557, 0.8522017, 0.24256591, -0.24134968, 0.39580876, 4.144359111785889, 4.21677303314209, 11.105358123779297, -29.56251335144043, -107.20913696289062, 92.35872650146484, 
612, 3404548224, 0.8413047, 0.24332662, -0.26733625, 0.40190774, 3.852775812149048, 4.780267715454102, 12.206894874572754, -36.858375549316406, -161.98489379882812, 107.56754302978516, 
613, 3404564891, 0.8258377, 0.24565157, -0.30349448, 0.40686435, 3.738044023513794, 4.957687854766846, 13.087398529052734, -50.705772399902344, -235.65390014648438, 127.37427520751953, 
614, 3404581558, 0.80487615, 0.24821946, -0.35065824, 0.40939027, 2.7646191120147705, 4.241262912750244, 12.939443588256836, -75.94566345214844, -314.53271484375, 147.08847045898438, 
615, 3404598225, 0.77658653, 0.25005797, -0.4083711, 0.40941113, 2.555734634399414, 2.8311450481414795, 11.161367416381836, -103.21017456054688, -392.9985656738281, 173.74600219726562, 
616, 3404614892, 0.7405327, 0.25085384, -0.47190368, 0.4074198, 2.8589534759521484, 1.6349984407424927, 8.48093318939209, -117.50106048583984, -446.59967041015625, 197.87034606933594, 
617, 3404631559, 0.7012572, 0.248909, -0.53399426, 0.40141362, 3.381369113922119, 2.3991267681121826, 5.945850849151611, -134.93170166015625, -449.0267333984375, 192.8612060546875, 
618, 3404648226, 0.66436195, 0.24187283, -0.58852875, 0.39211583, 8.902928352355957, 3.965573787689209, 4.892796039581299, -154.8031005859375, -395.36865234375, 176.15679931640625, 
619, 3404664893, 0.63374525, 0.2292678, -0.63194394, 0.38268796, 7.633704662322998, 4.106013774871826, 4.742565155029297, -161.2223663330078, -304.2602233886719, 162.67425537109375, 
620, 3404681560, 0.61502296, 0.21371233, -0.66006494, 0.37468445, 4.338376045227051, 0.732722282409668, 9.139678001403809, -146.37374877929688, -175.85452270507812, 126.28959655761719, 
621, 3404698227, 0.6067725, 0.21438332, -0.66153485, 0.3850179, -13.76207447052002, 4.455909729003906, 11.695629119873047, 58.74717330932617, -30.54236602783203, 64.0399398803711, 
622, 3404714894, 0.62219185, 0.20844314, -0.65437174, 0.37580106, 15.08802318572998, 14.169455528259277, 15.082558631896973, -69.84200286865234, 101.70809173583984, -62.83119201660156, 
623, 3404731561, 0.6573796, 0.2081507, -0.6219587, 0.37106982, -8.638947486877441, -8.360539436340332, -1.3115015029907227, 11.397064208984375, 290.4481201171875, -156.20791625976562, 
624, 3404748228, 0.6790874, 0.21795094, -0.5943765, 0.37155673, -0.2720729410648346, 7.585536003112793, 4.169788837432861, 86.33668518066406, 192.6293487548828, -134.548583984375, 
625, 3404764895, 0.7043423, 0.22321759, -0.56572866, 0.3660971, 6.994981288909912, 2.2290658950805664, 2.1164135932922363, 38.25432586669922, 214.74224853515625, -154.378662109375, 
626, 3404781562, 0.7313158, 0.23089081, -0.5343552, 0.35543114, 10.857965469360352, -1.1208808422088623, 1.3022851943969727, 33.886104583740234, 220.588623046875, -197.45733642578125, 
627, 3404798229, 0.75562507, 0.24145293, -0.50114495, 0.34581092, 12.891411781311035, -1.4670485258102417, 1.0957238674163818, 61.00925064086914, 214.65762329101562, -199.2192840576172, 
628, 3404814896, 0.77807146, 0.24917383, -0.46947974, 0.33482268, 17.78078269958496, -1.8503479957580566, 0.8722144961357117, 40.96920394897461, 204.7249298095703, -189.54405212402344, 
629, 3404831563, 0.7980984, 0.2562309, -0.43824172, 0.32454434, 18.62015724182129, 0.40814247727394104, 1.6661078929901123, 42.89275360107422, 197.43807983398438, -177.31642150878906, 
630, 3404848230, 0.8156009, 0.26019627, -0.41208425, 0.31189734, 19.24407196044922, 0.03506813570857048, 0.8956499695777893, 11.90386962890625, 164.73495483398438, -166.41732788085938, 
631, 3404864897, 0.83024675, 0.26239377, -0.39055964, 0.29883638, 18.371829986572266, -0.7404688000679016, 0.9355288743972778, -4.001001834869385, 133.79417419433594, -149.3348388671875, 
632, 3404881564, 0.8423345, 0.26473996, -0.37204286, 0.28630316, 17.7418212890625, -0.19715900719165802, 1.8352049589157104, -3.2904486656188965, 110.49055480957031, -136.07411193847656, 
633, 3404898231, 0.85242295, 0.26812756, -0.35549563, 0.27405426, 15.67393970489502, -0.8830705285072327, 1.7127728462219238, 3.2382149696350098, 92.52287292480469, -129.60887145996094, 
634, 3404914898, 0.8599559, 0.27339193, -0.34093446, 0.26362187, 13.2706298828125, -0.7779763340950012, 2.1694767475128174, 19.656496047973633, 74.52938842773438, -115.11486053466797, 
635, 3404931565, 0.86536556, 0.27959493, -0.32781762, 0.25593957, 11.505762100219727, -0.02980124019086361, 3.574112892150879, 33.03480911254883, 64.54428100585938, -94.53097534179688, 
636, 3404948232, 0.87003857, 0.28558055, -0.31453085, 0.25009418, 9.83221435546875, 0.8493964672088623, 5.123781204223633, 37.60540771484375, 67.85575866699219, -82.17749786376953, 
637, 3404964899, 0.87485385, 0.29011753, -0.3007916, 0.244923, 7.706087112426758, 2.1016643047332764, 6.204521656036377, 30.906644821166992, 74.71082305908203, -76.16922760009766, 
638, 3404981566, 0.88034034, 0.29186893, -0.28735495, 0.23925036, 6.3982343673706055, 3.5259809494018555, 6.6123809814453125, 11.272171020507812, 77.97518920898438, -73.96363067626953, 
639, 3404998233, 0.88677496, 0.29120153, -0.27443853, 0.23133412, 5.499781131744385, 4.323057174682617, 6.862127780914307, -10.558825492858887, 76.17559814453125, -83.27938842773438, 
640, 3405014900, 0.89391327, 0.2908743, -0.26127377, 0.21919683, 4.880363464355469, 5.274712562561035, 6.587177276611328, -17.467086791992188, 70.02144622802734, -111.26740264892578, 
641, 3405031567, 0.90143275, 0.2912925, -0.24914032, 0.20123835, 4.528472900390625, 6.765278339385986, 6.278315544128418, -25.673690795898438, 51.59617614746094, -146.88648986816406, 
642, 3405048234, 0.90879303, 0.2931117, -0.23778774, 0.1778701, 5.26602840423584, 6.829934120178223, 5.781188488006592, -27.04442024230957, 33.70537567138672, -181.01779174804688, 
643, 3405064901, 0.91535366, 0.29591775, -0.22737472, 0.15119955, 5.702682971954346, 7.182051658630371, 5.6345014572143555, -25.843326568603516, 18.669189453125, -200.38426208496094, 
644, 3405081568, 0.92084813, 0.29899547, -0.21856096, 0.1219498, 6.617039680480957, 7.246781826019287, 5.399710178375244, -27.69163703918457, 1.412596583366394, -212.6718292236328, 
645, 3405098235, 0.92452306, 0.30331516, -0.21188168, 0.091449656, 7.472990989685059, 6.2644877433776855, 4.546212673187256, -19.789955139160156, -18.433868408203125, -216.53854370117188, 
646, 3405114902, 0.9259448, 0.30884188, -0.208252, 0.062242374, 8.25873851776123, 6.251117706298828, 4.191039085388184, -7.480810165405273, -39.14125061035156, -202.3038330078125, 
647, 3405131569, 0.9258773, 0.31368575, -0.20742343, 0.03644442, 9.334320068359375, 7.430866241455078, 4.491768836975098, -5.016363143920898, -51.54279327392578, -173.03952026367188, 
648, 3405148236, 0.92487043, 0.31697196, -0.20951794, 0.01567688, 9.340670585632324, 5.682788372039795, 3.587270498275757, -6.502523899078369, -60.209510803222656, -132.26441955566406, 
649, 3405164903, 0.9223597, 0.32084823, -0.2151848, 0.002131015, 8.112733840942383, 5.427067756652832, 2.938554525375366, 10.516151428222656, -69.3726577758789, -79.26470947265625, 
650, 3405181570, 0.9188065, 0.32443005, -0.22471157, -0.0066919797, 6.788727283477783, 3.798720121383667, 1.3950343132019043, 17.852428436279297, -84.93106842041016, -40.3686637878418, 
