sep=,
DeviceTag:,L Lower Leg - 4,,,,,,,,,,,,,,,,,
FirmwareVersion:,3.0.0,,,,,,,,,,,,,,,,,
AppVersion:,2023.6.1,,,,,,,,,,,,,,,,,
StartTime:,2024-05-23 12:04:51.000 +0200,,,,,,,,,,,,,,,,,
 2024,,,,,,,,,,,,,,,,,,,

PacketCounter,SampleTimeFine,Quat_W,Quat_X,Quat_Y,Quat_Z,Acc_X,Acc_Y,Acc_Z,Gyr_X,Gyr_Y,Gyr_Z,
0, 3403894233, 0.6595325, 0.007422364, -0.7475868, -0.0779478, 0.0, 0.0, 0.0, 0.0, 0.0, 0.0, 
1, 3403910900, 0.6593899, 0.0071227574, -0.7476945, -0.07814897, 9.810739517211914, 1.225625991821289, -1.200356125831604, 0.15898442268371582, -0.3416733741760254, 1.4695734977722168, 
2, 3403927567, 0.6592127, 0.006975519, -0.7479094, -0.077598445, 9.809319496154785, 1.249918818473816, -1.2051457166671753, 0.31139278411865234, -0.4179863929748535, 1.508888840675354, 
3, 3403944234, 0.6590051, 0.006869835, -0.7481333, -0.07721357, 9.833514213562012, 1.2464375495910645, -1.1928021907806396, 0.3572395443916321, -0.46802088618278503, 1.5056105852127075, 
4, 3403960901, 0.65889657, 0.0067906883, -0.7482591, -0.07692627, 9.81739616394043, 1.227296233177185, -1.1879011392593384, 0.05476635694503784, -0.49066242575645447, 1.4557170867919922, 
5, 3403977568, 0.65883046, 0.0067760623, -0.7483539, -0.07657046, 9.802103042602539, 1.214404582977295, -1.1583833694458008, -0.1504489928483963, -0.7559459805488586, 1.487809658050537, 
6, 3403994235, 0.6588269, 0.006724627, -0.74838936, -0.07625911, 9.816972732543945, 1.2056052684783936, -1.16260826587677, -0.103129543364048, -0.8593188524246216, 1.3476570844650269, 
7, 3404010902, 0.65879935, 0.006329188, -0.74841726, -0.0762565, 9.8163480758667, 1.2358428239822388, -1.147792935371399, -0.15175525844097137, -0.9903791546821594, 1.279693841934204, 
8, 3404027569, 0.6588214, 0.0062629846, -0.748421, -0.076033905, 9.809968948364258, 1.2287684679031372, -1.1952495574951172, -0.4115832448005676, -1.0136609077453613, 1.3208661079406738, 
9, 3404044236, 0.6587867, 0.006073332, -0.74846196, -0.07594728, 9.81174087524414, 1.1948384046554565, -1.221027135848999, -0.20677131414413452, -1.043589472770691, 1.2920005321502686, 
10, 3404060903, 0.6587241, 0.005979834, -0.7485344, -0.07578519, 9.828410148620605, 1.2130165100097656, -1.2068829536437988, -0.11019863188266754, -1.0266337394714355, 1.1115976572036743, 
11, 3404077570, 0.6586453, 0.005850232, -0.74861807, -0.0756528, 9.830387115478516, 1.2419532537460327, -1.2307629585266113, -0.1257583647966385, -1.0413227081298828, 1.1648846864700317, 
12, 3404094237, 0.65854806, 0.0057268655, -0.74871665, -0.07553314, 9.815754890441895, 1.2276676893234253, -1.2290586233139038, 0.13991577923297882, -1.0116888284683228, 1.2014083862304688, 
13, 3404110904, 0.6584625, 0.005752448, -0.74881315, -0.07531967, 9.824197769165039, 1.2625765800476074, -1.248673915863037, 0.01947205513715744, -0.9359521269798279, 1.0876753330230713, 
14, 3404127571, 0.6583667, 0.005724483, -0.7489133, -0.075163946, 9.804981231689453, 1.2421237230300903, -1.2420557737350464, 0.3403351604938507, -0.8336165547370911, 1.1379529237747192, 
15, 3404144238, 0.6582421, 0.005496677, -0.7490236, -0.07517245, 9.817160606384277, 1.2642678022384644, -1.255340576171875, 0.47889983654022217, -0.8660038709640503, 1.2278664112091064, 
16, 3404160905, 0.6581887, 0.0058198925, -0.7491141, -0.07471282, 9.821924209594727, 1.2494045495986938, -1.2367057800292969, 0.6599176526069641, -0.637116014957428, 1.2102705240249634, 
17, 3404177572, 0.65809876, 0.0058048572, -0.7492091, -0.07455271, 9.810137748718262, 1.2240649461746216, -1.220310926437378, 0.8532871603965759, -0.6533671617507935, 1.199263572692871, 
18, 3404194239, 0.6580336, 0.00578014, -0.74928355, -0.07438217, 9.814188957214355, 1.2375564575195312, -1.2186009883880615, 0.8163599967956543, -0.48844701051712036, 1.288594126701355, 
19, 3404210906, 0.6579471, 0.005603879, -0.7493642, -0.0743476, 9.821634292602539, 1.221426010131836, -1.2361221313476562, 0.44870245456695557, -0.6296497583389282, 1.3173187971115112, 
20, 3404227573, 0.6578765, 0.0056039696, -0.7494451, -0.074157864, 9.818403244018555, 1.2148224115371704, -1.1896227598190308, 0.22145380079746246, -0.6869069933891296, 1.324426293373108, 
21, 3404244240, 0.6578012, 0.0055824746, -0.74953, -0.07396939, 9.805343627929688, 1.250715732574463, -1.1632601022720337, 0.10308472067117691, -0.8133953213691711, 1.4059131145477295, 
22, 3404260907, 0.65772, 0.0054733586, -0.74961245, -0.07386212, 9.818337440490723, 1.250410556793213, -1.1802780628204346, -0.1930813491344452, -0.9046918749809265, 1.4484943151474, 
23, 3404277574, 0.6576327, 0.0052664983, -0.7496907, -0.073861316, 9.810148239135742, 1.2417267560958862, -1.2048542499542236, -0.13510698080062866, -0.8976482152938843, 1.351639747619629, 
24, 3404294241, 0.6575639, 0.0053944443, -0.74977845, -0.07357264, 9.804678916931152, 1.2298003435134888, -1.2139315605163574, 0.15432289242744446, -1.0064637660980225, 1.2853540182113647, 
25, 3404310908, 0.65748733, 0.005359522, -0.74986374, -0.07339079, 9.816905975341797, 1.2461267709732056, -1.2176189422607422, 0.2796202600002289, -0.9602457284927368, 1.4538090229034424, 
26, 3404327575, 0.6574251, 0.00536972, -0.74994034, -0.073165216, 9.8091459274292, 1.2620612382888794, -1.2121039628982544, 0.4998638927936554, -0.850751519203186, 1.4588290452957153, 
27, 3404344242, 0.6573682, 0.0055134473, -0.7500215, -0.0728321, 9.818303108215332, 1.239382028579712, -1.2157304286956787, 0.5272437930107117, -0.9173058271408081, 1.4210885763168335, 
28, 3404360909, 0.65730757, 0.0055301064, -0.75009626, -0.07260829, 9.829645156860352, 1.2313731908798218, -1.1883115768432617, 0.6432949900627136, -0.8327201008796692, 1.4190139770507812, 
29, 3404377576, 0.6572445, 0.00544681, -0.7501648, -0.07247698, 9.843457221984863, 1.2132246494293213, -1.1881906986236572, 0.7943331003189087, -0.7664600610733032, 1.3709005117416382, 
30, 3404394243, 0.6571941, 0.0056348713, -0.75024444, -0.072093755, 9.82176399230957, 1.2222366333007812, -1.2006744146347046, 0.7509065866470337, -0.930880606174469, 1.4269793033599854, 
31, 3404410910, 0.65710723, 0.0055486853, -0.75033414, -0.07195797, 9.827850341796875, 1.252619981765747, -1.2047829627990723, 0.5615774989128113, -1.0477513074874878, 1.4040045738220215, 
32, 3404427577, 0.6570108, 0.0054272655, -0.7504292, -0.07185699, 9.827836990356445, 1.247504711151123, -1.2254164218902588, 0.5004529356956482, -1.117033839225769, 1.3977810144424438, 
33, 3404444244, 0.65693414, 0.0055019166, -0.75052345, -0.071568154, 9.834084510803223, 1.2222535610198975, -1.2330139875411987, 0.32943692803382874, -1.1395217180252075, 1.5091321468353271, 
34, 3404460911, 0.6568402, 0.0053774067, -0.75061667, -0.07146307, 9.838570594787598, 1.2030149698257446, -1.2330328226089478, 0.4720612168312073, -1.094699501991272, 1.4363538026809692, 
35, 3404477578, 0.6567538, 0.0054093, -0.75071573, -0.071213454, 9.789042472839355, 1.236279845237732, -1.2183637619018555, 0.3183594346046448, -1.1820900440216064, 1.4789220094680786, 
36, 3404494245, 0.6566618, 0.0053891246, -0.75081754, -0.070986524, 9.792320251464844, 1.2412457466125488, -1.1915128231048584, 0.37197962403297424, -1.2052568197250366, 1.595139741897583, 
37, 3404510912, 0.6565463, 0.005199224, -0.75092566, -0.07092597, 9.83565902709961, 1.2488173246383667, -1.1965665817260742, 0.12840284407138824, -1.296950101852417, 1.5365506410598755, 
38, 3404527579, 0.65645766, 0.005239602, -0.75102663, -0.07067359, 9.816932678222656, 1.2188931703567505, -1.2129513025283813, 0.26466241478919983, -1.2357871532440186, 1.4792677164077759, 
39, 3404544246, 0.6563783, 0.005361458, -0.7511267, -0.07033781, 9.806957244873047, 1.2193204164505005, -1.2237138748168945, 0.4576413035392761, -1.2135169506072998, 1.5135247707366943, 
40, 3404560913, 0.6562576, 0.0052252174, -0.7512438, -0.07022345, 9.838420867919922, 1.2273764610290527, -1.2222448587417603, 0.3612799644470215, -1.3864604234695435, 1.5397075414657593, 
41, 3404577580, 0.6561361, 0.0052009714, -0.7513681, -0.07003042, 9.844011306762695, 1.2174289226531982, -1.2109434604644775, 0.18454591929912567, -1.4941297769546509, 1.4588674306869507, 
42, 3404594247, 0.65601784, 0.005130216, -0.75148726, -0.06986676, 9.801243782043457, 1.2112051248550415, -1.1890963315963745, 0.3091133236885071, -1.427920937538147, 1.5006929636001587, 
43, 3404610914, 0.6558894, 0.0051729437, -0.75162387, -0.06959797, 9.809721946716309, 1.2218672037124634, -1.1968027353286743, 0.3238150179386139, -1.6321182250976562, 1.520658016204834, 
44, 3404627581, 0.65575373, 0.0051213168, -0.7517578, -0.06943326, 9.830111503601074, 1.2359483242034912, -1.205025315284729, 0.5349148511886597, -1.5809952020645142, 1.3816066980361938, 
45, 3404644248, 0.6556337, 0.0052626366, -0.751893, -0.06909249, 9.817011833190918, 1.2159639596939087, -1.204630970954895, 0.640605628490448, -1.6056987047195435, 1.4121370315551758, 
46, 3404660915, 0.6554822, 0.005156972, -0.7520391, -0.068947814, 9.810580253601074, 1.2246934175491333, -1.2248201370239258, 0.5730393528938293, -1.7154874801635742, 1.5185450315475464, 
47, 3404677582, 0.6553281, 0.005006907, -0.75218177, -0.068866394, 9.843180656433105, 1.2121163606643677, -1.2387880086898804, 0.3553057909011841, -1.7062413692474365, 1.4224461317062378, 
48, 3404694249, 0.6551714, 0.0049472726, -0.75233275, -0.06871139, 9.822197914123535, 1.1958858966827393, -1.2113118171691895, -0.06149609759449959, -1.846317172050476, 1.4461506605148315, 
49, 3404710916, 0.65502495, 0.0051202457, -0.7524906, -0.06836776, 9.800936698913574, 1.2124533653259277, -1.2465225458145142, -0.24666307866573334, -1.9617791175842285, 1.392005443572998, 
50, 3404727583, 0.65486073, 0.0049997573, -0.75264114, -0.06829222, 9.799304962158203, 1.2110868692398071, -1.2878590822219849, -0.23219193518161774, -1.863708257675171, 1.3285754919052124, 
51, 3404744250, 0.6546824, 0.0049317977, -0.75280803, -0.0681669, 9.813706398010254, 1.2430624961853027, -1.283248782157898, -0.2928300201892853, -2.0367987155914307, 1.3532023429870605, 
52, 3404760917, 0.65454865, 0.0048321183, -0.75293523, -0.06805317, 9.809242248535156, 1.2745188474655151, -1.3172097206115723, -0.5046598315238953, -1.6367155313491821, 1.4909857511520386, 
53, 3404777584, 0.6543848, 0.00444609, -0.75306904, -0.06817485, 9.812782287597656, 1.2495620250701904, -1.2976360321044922, -0.6626389622688293, -1.6938191652297974, 1.5915923118591309, 
54, 3404794251, 0.6542803, 0.00443262, -0.753178, -0.0679759, 9.803764343261719, 1.249693512916565, -1.299346923828125, -0.5992603898048401, -1.444556474685669, 1.584869146347046, 
55, 3404810918, 0.65417075, 0.0042238426, -0.75327915, -0.06792267, 9.817889213562012, 1.2513923645019531, -1.293210506439209, -0.5985816717147827, -1.347586750984192, 1.72321617603302, 
56, 3404827585, 0.65407145, 0.0039659375, -0.7533688, -0.0678991, 9.809622764587402, 1.2321734428405762, -1.288192868232727, -0.6422896981239319, -1.225631833076477, 1.809492588043213, 
57, 3404844252, 0.65397793, 0.0038054364, -0.7534605, -0.067790665, 9.827347755432129, 1.1880096197128296, -1.2803722620010376, -0.4089452028274536, -1.2284491062164307, 1.7827783823013306, 
58, 3404860919, 0.6538843, 0.0037597746, -0.7535614, -0.06757507, 9.831501007080078, 1.1528029441833496, -1.2262533903121948, 0.16800011694431305, -1.2683151960372925, 1.7356382608413696, 
59, 3404877586, 0.65377396, 0.0036230623, -0.7536688, -0.067451425, 9.831952095031738, 1.1497994661331177, -1.2144614458084106, 0.7844465970993042, -1.2753971815109253, 1.573253870010376, 
60, 3404894253, 0.65367997, 0.0038485518, -0.75378686, -0.06702973, 9.800554275512695, 1.1519101858139038, -1.1964870691299438, 0.9522354006767273, -1.397390604019165, 1.4537960290908813, 
61, 3404910920, 0.6535369, 0.0038758144, -0.75392926, -0.06682102, 9.807012557983398, 1.1652265787124634, -1.2166543006896973, 1.251519799232483, -1.6263296604156494, 1.1799066066741943, 
62, 3404927587, 0.6534036, 0.0039639915, -0.75406796, -0.06655343, 9.816286087036133, 1.1894774436950684, -1.2438827753067017, 1.348899245262146, -1.5915091037750244, 1.1993595361709595, 
63, 3404944254, 0.65326434, 0.0040893173, -0.7542141, -0.066259034, 9.817291259765625, 1.1889493465423584, -1.2840003967285156, 1.0204291343688965, -1.7117606401443481, 1.2161486148834229, 
64, 3404960921, 0.65311974, 0.004122714, -0.75435466, -0.066081904, 9.806681632995605, 1.1857454776763916, -1.3033249378204346, 0.7650577425956726, -1.6791943311691284, 1.0573242902755737, 
65, 3404977588, 0.65296817, 0.003933019, -0.75448656, -0.0660863, 9.791707038879395, 1.2574151754379272, -1.363396406173706, 0.47459688782691956, -1.6053398847579956, 1.1660373210906982, 
66, 3404994255, 0.65286374, 0.003930944, -0.75459033, -0.065930665, 9.792800903320312, 1.2811782360076904, -1.34616219997406, -0.24421703815460205, -1.388656497001648, 1.2776062488555908, 
67, 3405010922, 0.6527878, 0.004022819, -0.75467646, -0.06569307, 9.809557914733887, 1.2365580797195435, -1.3256163597106934, -0.25768938660621643, -1.2014918327331543, 1.3059853315353394, 
68, 3405027589, 0.65270865, 0.003986778, -0.7547566, -0.06556076, 9.816624641418457, 1.1960645914077759, -1.2960375547409058, 0.004373368341475725, -1.1043683290481567, 1.3068304061889648, 
69, 3405044256, 0.6526168, 0.0038099817, -0.7548368, -0.06556072, 9.794513702392578, 1.181941270828247, -1.293254017829895, 0.22753681242465973, -1.0790629386901855, 1.2222188711166382, 
70, 3405060923, 0.6525427, 0.0038658055, -0.7549163, -0.06537938, 9.801666259765625, 1.2102450132369995, -1.3041322231292725, -0.0343722440302372, -1.1123212575912476, 1.1589938402175903, 
71, 3405077590, 0.652471, 0.0037681218, -0.75498223, -0.06534006, 9.8072509765625, 1.2129732370376587, -1.3120174407958984, -0.12685970962047577, -0.9708622097969055, 1.134328842163086, 
72, 3405094257, 0.6523948, 0.003699505, -0.7550536, -0.065281235, 9.809769630432129, 1.1749870777130127, -1.3192811012268066, -0.13467156887054443, -1.0339463949203491, 1.1083576679229736, 
73, 3405110924, 0.6523052, 0.003386105, -0.7551173, -0.06545698, 9.812933921813965, 1.1974835395812988, -1.2968803644180298, -0.10517855733633041, -0.937130331993103, 0.9889000058174133, 
74, 3405127591, 0.6522446, 0.0032968316, -0.7551713, -0.065441206, 9.81846809387207, 1.177125334739685, -1.2767045497894287, -0.024434516206383705, -0.8449373245239258, 0.9745697379112244, 
75, 3405144258, 0.65218735, 0.0033176006, -0.7552294, -0.0653401, 9.80447769165039, 1.1822251081466675, -1.2624040842056274, 0.08474601060152054, -0.8860968947410583, 0.9069135785102844, 
76, 3405160925, 0.65213025, 0.0034082802, -0.7552903, -0.065201685, 9.78699779510498, 1.2102245092391968, -1.3032852411270142, 0.28179731965065, -0.9050503373146057, 0.7593461275100708, 
77, 3405177592, 0.65208167, 0.0035033382, -0.7553437, -0.065063015, 9.81612777709961, 1.2408252954483032, -1.315070390701294, -0.03512781858444214, -0.8615471720695496, 0.7969198822975159, 
78, 3405194259, 0.6520399, 0.0034604361, -0.7553812, -0.06504829, 9.800881385803223, 1.2279003858566284, -1.326986312866211, -0.26863881945610046, -0.7152090072631836, 0.8200610280036926, 
79, 3405210926, 0.6519961, 0.003400058, -0.7554191, -0.06505147, 9.801873207092285, 1.2019462585449219, -1.2977591753005981, -0.2285933643579483, -0.7134162187576294, 0.8080742955207825, 
80, 3405227593, 0.6519806, 0.0035847167, -0.7554499, -0.06483949, 9.784904479980469, 1.2295162677764893, -1.2856342792510986, -0.1723862588405609, -0.6486671566963196, 0.8276678919792175, 
81, 3405244260, 0.6519527, 0.003536648, -0.7554767, -0.06480912, 9.813139915466309, 1.240894079208374, -1.27895188331604, -0.016110388562083244, -0.5853782296180725, 0.9148152470588684, 
82, 3405260927, 0.65195, 0.003619788, -0.755491, -0.064665, 9.807743072509766, 1.2171474695205688, -1.2912473678588867, 0.036888688802719116, -0.45995283126831055, 0.9277623295783997, 
83, 3405277594, 0.6519415, 0.0036873145, -0.75551057, -0.06451894, 9.78935718536377, 1.2190256118774414, -1.3047903776168823, 0.6009058356285095, -0.46088773012161255, 0.9292479157447815, 
84, 3405294261, 0.6519252, 0.0036839922, -0.7555297, -0.06445953, 9.806767463684082, 1.2474769353866577, -1.3162493705749512, 0.5345306396484375, -0.463372141122818, 0.8121082782745361, 
85, 3405310928, 0.651907, 0.0035092873, -0.7555396, -0.06453595, 9.808486938476562, 1.2429442405700684, -1.2920238971710205, 0.15528340637683868, -0.4018888771533966, 0.9433093070983887, 
86, 3405327595, 0.6519075, 0.0035081536, -0.75554687, -0.064445265, 9.796806335449219, 1.2388890981674194, -1.2899914979934692, 0.1037762463092804, -0.3884293735027313, 1.057939052581787, 
87, 3405344262, 0.65190315, 0.0033730085, -0.7555484, -0.06447828, 9.81544303894043, 1.259888768196106, -1.285301685333252, 0.07474425435066223, -0.3339255154132843, 1.024578332901001, 
88, 3405360929, 0.6519346, 0.0034925195, -0.7555388, -0.06426549, 9.821322441101074, 1.245030403137207, -1.2998247146606445, -0.19925402104854584, -0.25912368297576904, 1.2191325426101685, 
89, 3405377596, 0.6519474, 0.0034839865, -0.75553524, -0.06417842, 9.80864143371582, 1.1953973770141602, -1.2826353311538696, -0.18325887620449066, -0.317802369594574, 1.1444586515426636, 
90, 3405394263, 0.6519511, 0.003520626, -0.7555407, -0.06407689, 9.7784423828125, 1.1968259811401367, -1.264650583267212, 0.033687103539705276, -0.3990074396133423, 0.9843024015426636, 
91, 3405410930, 0.65195054, 0.0035540387, -0.7555499, -0.06397065, 9.80709171295166, 1.2352547645568848, -1.2823050022125244, -0.103424072265625, -0.4612206518650055, 1.0478218793869019, 
92, 3405427597, 0.6519521, 0.003599563, -0.7555554, -0.06388805, 9.807960510253906, 1.2272322177886963, -1.284329891204834, -0.6486160159111023, -0.4830555319786072, 0.9570761919021606, 
93, 3405444264, 0.6519584, 0.0036368337, -0.75555587, -0.06381723, 9.80306339263916, 1.2188711166381836, -1.261332392692566, -0.8954712152481079, -0.45897960662841797, 0.9784756302833557, 
94, 3405460931, 0.6519566, 0.003630745, -0.755561, -0.06377394, 9.8238525390625, 1.2445837259292603, -1.2513322830200195, -1.1529812812805176, -0.540261447429657, 1.0749073028564453, 
95, 3405477598, 0.6519489, 0.0035005747, -0.7555621, -0.06384663, 9.810502052307129, 1.2329323291778564, -1.2316648960113525, -0.925796627998352, -0.4780866801738739, 1.0027308464050293, 
96, 3405494265, 0.651956, 0.003599394, -0.7555659, -0.06372325, 9.802687644958496, 1.224997878074646, -1.2179820537567139, -0.6413676142692566, -0.4964253604412079, 0.9643118381500244, 
97, 3405510932, 0.6519534, 0.0036381693, -0.7555738, -0.063655674, 9.805087089538574, 1.2091805934906006, -1.221321702003479, -0.2941490411758423, -0.5119081735610962, 0.898743212223053, 
98, 3405527599, 0.6519467, 0.0036425705, -0.75558376, -0.06360364, 9.810662269592285, 1.2281792163848877, -1.2532365322113037, 0.1702796220779419, -0.49747544527053833, 0.9092828035354614, 
99, 3405544266, 0.6519393, 0.0037653856, -0.75560117, -0.06346618, 9.7970552444458, 1.2187111377716064, -1.2764873504638672, 0.27486908435821533, -0.5758247375488281, 0.8144774436950684, 
100, 3405560933, 0.6519322, 0.0038878876, -0.75561744, -0.0633374, 9.791821479797363, 1.2276639938354492, -1.2542868852615356, 0.4473450183868408, -0.553733766078949, 0.7520977258682251, 
101, 3405577600, 0.65191317, 0.003883666, -0.7556355, -0.06331871, 9.83911418914795, 1.2427231073379517, -1.2620958089828491, 0.04633977636694908, -0.6100560426712036, 0.8162575364112854, 
102, 3405594267, 0.6519205, 0.0040347055, -0.75564075, -0.063171245, 9.783963203430176, 1.2403745651245117, -1.2731285095214844, -0.009758437983691692, -0.49505504965782166, 0.8127486109733582, 
103, 3405610934, 0.65191996, 0.0041212835, -0.7556488, -0.06307554, 9.827930450439453, 1.2584701776504517, -1.2740542888641357, 6.403174484148622E-4, -0.5279929637908936, 0.8372663259506226, 
104, 3405627601, 0.65193367, 0.0041005234, -0.7556374, -0.06307049, 9.810602188110352, 1.250900149345398, -1.272891879081726, 0.07053738832473755, -0.3169635832309723, 0.8563094735145569, 
105, 3405644268, 0.65195376, 0.004207816, -0.7556299, -0.06294739, 9.778411865234375, 1.247101068496704, -1.2810848951339722, -0.01084697712212801, -0.37674999237060547, 0.9182856678962708, 
106, 3405660935, 0.6519762, 0.0042644786, -0.7556144, -0.062894225, 9.805336952209473, 1.2422289848327637, -1.2756808996200562, -0.019427234306931496, -0.2997710704803467, 0.7928475141525269, 
107, 3405677602, 0.65201163, 0.004308647, -0.7555874, -0.06284875, 9.800799369812012, 1.2347142696380615, -1.2750753164291382, -0.13542713224887848, -0.1900206208229065, 0.8427281975746155, 
108, 3405694269, 0.6520226, 0.004318125, -0.7555781, -0.06284531, 9.811826705932617, 1.2333627939224243, -1.2497178316116333, -0.267947256565094, -0.3932957947254181, 0.8000190854072571, 
109, 3405710936, 0.6520398, 0.004409377, -0.75556856, -0.062777124, 9.820914268493652, 1.2384252548217773, -1.2363077402114868, -0.39384645223617554, -0.4146055579185486, 0.7962027192115784, 
110, 3405727603, 0.65206516, 0.0044287103, -0.75554675, -0.06277547, 9.790980339050293, 1.241821050643921, -1.2106891870498657, -0.3006034195423126, -0.2828538119792938, 0.7724341750144958, 
111, 3405744270, 0.65206665, 0.0044214753, -0.755543, -0.06280473, 9.808049201965332, 1.2558141946792603, -1.2169333696365356, -0.29617244005203247, -0.48141634464263916, 0.7309160232543945, 
112, 3405760937, 0.6520643, 0.0043865833, -0.7555409, -0.06285524, 9.825615882873535, 1.2316139936447144, -1.248241662979126, 0.006198273506015539, -0.4760376811027527, 0.7123788595199585, 
113, 3405777604, 0.65209776, 0.004726067, -0.75553274, -0.062582925, 9.801050186157227, 1.2873380184173584, -1.2861758470535278, 0.23575849831104279, -0.416744202375412, 0.689090371131897, 
114, 3405794271, 0.65213484, 0.0049614124, -0.7555168, -0.06236904, 9.780678749084473, 1.2905951738357544, -1.283056378364563, 0.19097468256950378, -0.3400726020336151, 0.8757429718971252, 
115, 3405810938, 0.65216297, 0.005064697, -0.7554988, -0.062283326, 9.795490264892578, 1.2525674104690552, -1.2689100503921509, 0.2668779194355011, -0.3048679828643799, 0.8056539297103882, 
116, 3405827605, 0.6522194, 0.005296947, -0.75546575, -0.062075544, 9.807332038879395, 1.237209677696228, -1.2605847120285034, 0.5595158338546753, -0.12879343330860138, 0.8352493047714233, 
117, 3405844272, 0.65226626, 0.0054961485, -0.7554377, -0.061906558, 9.789855003356934, 1.2610286474227905, -1.2471107244491577, 0.5338582992553711, -0.18902172148227692, 0.7923288941383362, 
118, 3405860939, 0.6522976, 0.005506503, -0.7554129, -0.061878372, 9.798124313354492, 1.2701143026351929, -1.2407981157302856, 0.27938973903656006, -0.2440761923789978, 0.9537849426269531, 
119, 3405877606, 0.65233815, 0.0055223894, -0.7553792, -0.061861176, 9.814665794372559, 1.2645267248153687, -1.2465746402740479, 0.1891433596611023, -0.16689231991767883, 0.8984614610671997, 
120, 3405894273, 0.6524046, 0.0057949577, -0.75533897, -0.061625898, 9.807117462158203, 1.2715377807617188, -1.2458844184875488, 0.4228464365005493, -0.09808383136987686, 0.8602473139762878, 
121, 3405910940, 0.6524612, 0.005883144, -0.75529677, -0.061537042, 9.80856990814209, 1.2846285104751587, -1.2298381328582764, 0.4041299819946289, -0.07374536246061325, 0.9408440589904785, 
122, 3405927607, 0.65251464, 0.0059774555, -0.75525725, -0.06144508, 9.805281639099121, 1.26906156539917, -1.2401885986328125, 0.3721461296081543, -0.11488575488328934, 0.9447179436683655, 
123, 3405944274, 0.6525619, 0.0059928796, -0.75521874, -0.061415676, 9.806639671325684, 1.2627077102661133, -1.2021926641464233, 0.07414235919713974, -0.15505927801132202, 1.0281513929367065, 
124, 3405960941, 0.65260804, 0.006087747, -0.7551845, -0.0613376, 9.813096046447754, 1.2638429403305054, -1.2177150249481201, 0.10007521510124207, -0.21159930527210236, 0.9286715984344482, 
125, 3405977608, 0.6526535, 0.0061376016, -0.7551496, -0.061277583, 9.80903434753418, 1.268876314163208, -1.2199798822402954, 0.17982034385204315, -0.20323675870895386, 1.0364497900009155, 
126, 3405994275, 0.6527036, 0.0062256567, -0.7551126, -0.061191827, 9.802573204040527, 1.2881954908370972, -1.204938530921936, 0.2461124211549759, -0.18427693843841553, 1.0009571313858032, 
127, 3406010942, 0.65275913, 0.0063487175, -0.75507325, -0.061072323, 9.816122055053711, 1.3064521551132202, -1.251807689666748, 0.23542550206184387, -0.1716691106557846, 1.0347081422805786, 
128, 3406027609, 0.6528232, 0.0064680832, -0.75502837, -0.060928054, 9.832590103149414, 1.292873740196228, -1.2481166124343872, 0.34978625178337097, -0.10744526982307434, 1.1795352697372437, 
129, 3406044276, 0.65289664, 0.0065575517, -0.75497407, -0.060803726, 9.807825088500977, 1.2614082098007202, -1.2218754291534424, 0.44533440470695496, -0.0020874349866062403, 1.213830590248108, 
130, 3406060943, 0.6529476, 0.006586628, -0.754936, -0.060726874, 9.8034029006958, 1.269968867301941, -1.218475341796875, 0.4000767469406128, -0.17891749739646912, 1.2469862699508667, 
131, 3406077610, 0.65300477, 0.0067006717, -0.7548985, -0.06056609, 9.820108413696289, 1.2721158266067505, -1.2040945291519165, 0.43839341402053833, -0.19520719349384308, 1.3087385892868042, 
132, 3406094277, 0.6530592, 0.006758973, -0.7548589, -0.060466416, 9.818343162536621, 1.2672744989395142, -1.214820146560669, 0.3854134976863861, -0.18264415860176086, 1.2578973770141602, 
133, 3406110944, 0.6531278, 0.006809465, -0.7548067, -0.060373265, 9.829090118408203, 1.3004852533340454, -1.2332335710525513, 0.16228845715522766, -0.07736315578222275, 1.3062283992767334, 
134, 3406127611, 0.6532133, 0.006757109, -0.754735, -0.06034968, 9.822504997253418, 1.3256093263626099, -1.2431806325912476, -0.549277126789093, 0.05862106755375862, 1.5294687747955322, 
135, 3406144278, 0.65328896, 0.0066314093, -0.7546697, -0.060359318, 9.813176155090332, 1.2956008911132812, -1.2269219160079956, -0.5678720474243164, -0.0118074556812644, 1.7029756307601929, 
136, 3406160945, 0.65336496, 0.0065189237, -0.75460565, -0.060350224, 9.807984352111816, 1.2714046239852905, -1.1779627799987793, -0.5954439043998718, -0.03397523984313011, 1.755948781967163, 
137, 3406177612, 0.6534655, 0.0064915097, -0.7545255, -0.060268346, 9.806132316589355, 1.271811604499817, -1.1803264617919922, 0.005538747180253267, 0.18266339600086212, 1.6844385862350464, 
138, 3406194279, 0.6535506, 0.0064974427, -0.7544604, -0.06015793, 9.799296379089355, 1.268186330795288, -1.1871527433395386, 0.25888678431510925, 0.03459635749459267, 1.6504759788513184, 
139, 3406210946, 0.65362746, 0.0064709377, -0.75440013, -0.060081415, 9.817739486694336, 1.2725601196289062, -1.188737392425537, 0.17523568868637085, -0.027328751981258392, 1.641294002532959, 
140, 3406227613, 0.6536932, 0.006400629, -0.7543478, -0.06003199, 9.815912246704102, 1.2781435251235962, -1.1935368776321411, -0.02936496213078499, -0.13769389688968658, 1.7341911792755127, 
141, 3406244280, 0.65374964, 0.0063301297, -0.7543056, -0.059954412, 9.815143585205078, 1.27354097366333, -1.183090090751648, -0.2068609595298767, -0.26811373233795166, 1.9152599573135376, 
142, 3406260947, 0.65380156, 0.0062237475, -0.754266, -0.059898265, 9.836788177490234, 1.2792589664459229, -1.1735010147094727, -0.3486144244670868, -0.31438305974006653, 1.995530128479004, 
143, 3406277614, 0.6538596, 0.006113858, -0.7542191, -0.059865702, 9.817821502685547, 1.2213743925094604, -1.1312754154205322, -0.08020616322755814, -0.22067901492118835, 1.863138198852539, 
144, 3406294281, 0.6539113, 0.0061966027, -0.7541891, -0.059671246, 9.81355094909668, 1.1937239170074463, -1.0978868007659912, 0.3833964765071869, -0.37635934352874756, 1.7733335494995117, 
145, 3406310948, 0.6539595, 0.0062241904, -0.75415784, -0.059533667, 9.827186584472656, 1.199622631072998, -1.1362041234970093, 0.6862793564796448, -0.34427306056022644, 1.6888883113861084, 
146, 3406327615, 0.6540049, 0.0063734637, -0.75413793, -0.059270583, 9.840536117553711, 1.1580313444137573, -1.2213577032089233, 1.703161358833313, -0.38173168897628784, 1.653856873512268, 
147, 3406344282, 0.6540366, 0.006719886, -0.7541402, -0.05885221, 9.870243072509766, 1.1325355768203735, -1.2755872011184692, 3.2642109394073486, -0.4838239252567291, 1.3478556871414185, 
148, 3406360949, 0.65407413, 0.0071471306, -0.754143, -0.058347713, 9.782862663269043, 1.2498470544815063, -1.2137470245361328, 4.178213119506836, -0.40922054648399353, 1.3058891296386719, 
149, 3406377616, 0.6541094, 0.007543495, -0.7541481, -0.05783512, 9.801141738891602, 1.3272361755371094, -1.1700304746627808, 3.902529716491699, -0.46326330304145813, 1.5385805368423462, 
150, 3406394283, 0.6541551, 0.007857377, -0.75413954, -0.057385046, 9.784273147583008, 1.2959328889846802, -1.1553572416305542, 3.481682062149048, -0.36357229948043823, 1.663935661315918, 
151, 3406410950, 0.65419865, 0.008204041, -0.7541343, -0.05690628, 9.83056354522705, 1.2712019681930542, -1.1553599834442139, 3.6168148517608643, -0.39767563343048096, 1.6578783988952637, 
152, 3406427617, 0.6542652, 0.008637283, -0.75411224, -0.056367382, 9.802806854248047, 1.277625560760498, -1.17332923412323, 3.5971438884735107, -0.24332068860530853, 1.5983672142028809, 
153, 3406444284, 0.65432054, 0.008966762, -0.7540925, -0.055933725, 9.826644897460938, 1.2560009956359863, -1.164083480834961, 3.107300281524658, -0.313345730304718, 1.5994553565979004, 
154, 3406460951, 0.6543477, 0.009095525, -0.7540853, -0.055693988, 9.811868667602539, 1.2335169315338135, -1.125253438949585, 2.263195514678955, -0.5100896954536438, 1.6203168630599976, 
155, 3406477618, 0.6543629, 0.009251096, -0.7540884, -0.055446982, 9.804707527160645, 1.2024445533752441, -1.0896151065826416, 1.2936270236968994, -0.7249802947044373, 1.676242470741272, 
156, 3406494285, 0.6543543, 0.009353607, -0.75410694, -0.05527993, 9.830731391906738, 1.1658928394317627, -1.0909265279769897, 0.7157147526741028, -0.948566198348999, 1.5815647840499878, 
157, 3406510952, 0.65431833, 0.00939607, -0.7541439, -0.055194728, 9.824090003967285, 1.1682604551315308, -1.0903918743133545, 0.7704939246177673, -1.1432162523269653, 1.4163819551467896, 
158, 3406527619, 0.6542507, 0.009457823, -0.7542088, -0.055098712, 9.824943542480469, 1.2105495929718018, -1.124066948890686, 0.475410133600235, -1.4814963340759277, 1.4229649305343628, 
159, 3406544286, 0.6541623, 0.009438532, -0.7542869, -0.0550825, 9.817829132080078, 1.2101953029632568, -1.1548446416854858, 0.1022523045539856, -1.6534278392791748, 1.4289261102676392, 
160, 3406560953, 0.65407366, 0.009571386, -0.75437117, -0.054957177, 9.823505401611328, 1.2264918088912964, -1.16171395778656, -0.18464836478233337, -1.7710094451904297, 1.3519279956817627, 
161, 3406577620, 0.65398055, 0.009574709, -0.75445235, -0.054950397, 9.82929801940918, 1.227934718132019, -1.1641300916671753, -0.38978686928749084, -1.751767873764038, 1.3594902753829956, 
162, 3406594287, 0.6538796, 0.009552418, -0.7545383, -0.0549763, 9.80526351928711, 1.2104700803756714, -1.1469038724899292, -0.4225967824459076, -1.8085129261016846, 1.3153979778289795, 
163, 3406610954, 0.65375346, 0.0094405245, -0.7546407, -0.055090655, 9.824313163757324, 1.2056787014007568, -1.1762590408325195, -0.6076357364654541, -1.9991865158081055, 1.287313461303711, 
164, 3406627621, 0.6536204, 0.0093862405, -0.75474966, -0.055183485, 9.814141273498535, 1.2195156812667847, -1.1798802614212036, -1.1952934265136719, -2.1385321617126465, 1.2236659526824951, 
165, 3406644288, 0.6534675, 0.009307007, -0.75487465, -0.055299334, 9.823260307312012, 1.2256439924240112, -1.1939706802368164, -1.4852677583694458, -2.337825059890747, 1.2591780424118042, 
166, 3406660955, 0.65331125, 0.009243818, -0.755003, -0.05540415, 9.829154968261719, 1.2115728855133057, -1.186169981956482, -1.3604633808135986, -2.3705384731292725, 1.2332897186279297, 
167, 3406677622, 0.6531306, 0.009133787, -0.7551498, -0.05555178, 9.825713157653809, 1.1936569213867188, -1.1522586345672607, -0.9631144404411316, -2.529202938079834, 1.1659477949142456, 
168, 3406694289, 0.65295076, 0.009185049, -0.75530356, -0.055564646, 9.840463638305664, 1.1881029605865479, -1.1417031288146973, -0.6296241283416748, -2.6006622314453125, 1.095051646232605, 
169, 3406710956, 0.6527526, 0.009248712, -0.75547254, -0.05558576, 9.816737174987793, 1.1920785903930664, -1.1656198501586914, -0.350637823343277, -2.7439396381378174, 0.9550398588180542, 
170, 3406727623, 0.65252346, 0.009268157, -0.7556644, -0.05566419, 9.826080322265625, 1.2174032926559448, -1.173616886138916, -0.2972353994846344, -2.984161615371704, 0.8447389006614685, 
171, 3406744290, 0.6522887, 0.009241782, -0.75586, -0.055764247, 9.835115432739258, 1.2364588975906372, -1.2448396682739258, -0.986319363117218, -3.095064163208008, 1.044479489326477, 
172, 3406760957, 0.65203977, 0.0091133835, -0.7560606, -0.0559769, 9.860099792480469, 1.2342166900634766, -1.2526640892028809, -1.4266786575317383, -3.181673765182495, 0.9839567542076111, 
173, 3406777624, 0.6517833, 0.008934045, -0.7562648, -0.056233425, 9.79473876953125, 1.2063082456588745, -1.2090535163879395, -1.0710464715957642, -3.186681032180786, 0.9377002716064453, 
174, 3406794291, 0.65147436, 0.008843789, -0.75651866, -0.056412864, 9.78684139251709, 1.2430942058563232, -1.144119381904602, -0.9909043312072754, -3.7217180728912354, 0.9152123928070068, 
175, 3406810958, 0.65116566, 0.008827453, -0.7567743, -0.056550626, 9.8147554397583, 1.2512235641479492, -1.1403954029083252, -0.8290320038795471, -3.7457172870635986, 0.7812963128089905, 
176, 3406827625, 0.65085614, 0.008913811, -0.75703573, -0.056602478, 9.799710273742676, 1.218536138534546, -1.1928482055664062, -0.03822695463895798, -3.7545015811920166, 0.656216561794281, 
177, 3406844292, 0.6505343, 0.008955816, -0.75730425, -0.056702837, 9.825674057006836, 1.2563657760620117, -1.3423528671264648, 0.6458306908607483, -3.769152879714966, 0.5021434426307678, 
178, 3406860959, 0.650275, 0.009140747, -0.75752604, -0.056686435, 9.784692764282227, 1.321424961090088, -1.5022737979888916, 0.587241530418396, -3.2948174476623535, 0.5010164380073547, 
179, 3406877626, 0.65006375, 0.009209184, -0.75770295, -0.05673568, 9.765901565551758, 1.2972750663757324, -1.5420769453048706, 0.15332402288913727, -2.8429455757141113, 0.7726518511772156, 
180, 3406894293, 0.64991593, 0.009239058, -0.7578253, -0.05678703, 9.760856628417969, 1.2462069988250732, -1.498120903968811, 0.011762631125748158, -2.2637782096862793, 0.9854550361633301, 
181, 3406910960, 0.6497939, 0.009272284, -0.7579288, -0.056796934, 9.773361206054688, 1.2698010206222534, -1.4274344444274902, -0.11535319685935974, -2.069678783416748, 1.2198176383972168, 
182, 3406927627, 0.649693, 0.0092981085, -0.75801486, -0.056799907, 9.798990249633789, 1.2391537427902222, -1.3235682249069214, 0.11436071246862411, -1.8570551872253418, 1.2684307098388672, 
183, 3406944294, 0.64957505, 0.0093648685, -0.7581175, -0.05676825, 9.82713794708252, 1.194936990737915, -1.2959270477294922, 0.8795529007911682, -1.9665623903274536, 1.1480252742767334, 
184, 3406960961, 0.64947295, 0.009650774, -0.75821775, -0.056547355, 9.802663803100586, 1.1863255500793457, -1.248257040977478, 1.6829594373703003, -1.8944816589355469, 1.0376217365264893, 
185, 3406977628, 0.64937174, 0.009961367, -0.75831854, -0.056305192, 9.803725242614746, 1.2445557117462158, -1.2880767583847046, 2.0899643898010254, -1.8689842224121094, 0.9797945022583008, 
186, 3406994295, 0.64925814, 0.010138669, -0.7584225, -0.056181878, 9.7966890335083, 1.3082362413406372, -1.3652287721633911, 1.510720133781433, -1.9493825435638428, 1.0461313724517822, 
187, 3407010962, 0.6491634, 0.0102394875, -0.7585068, -0.056122117, 9.797216415405273, 1.2683014869689941, -1.3946508169174194, 0.954041063785553, -1.7848210334777832, 1.1571625471115112, 
188, 3407027629, 0.6490644, 0.010373786, -0.7585939, -0.05606293, 9.815655708312988, 1.2405251264572144, -1.3965975046157837, 0.6273574829101562, -1.8541227579116821, 1.057599663734436, 
189, 3407044296, 0.6489748, 0.010373069, -0.7586676, -0.056104828, 9.786711692810059, 1.2774931192398071, -1.3708453178405762, 0.5057099461555481, -1.7032958269119263, 1.160882830619812, 
190, 3407060963, 0.6489116, 0.010459393, -0.7587247, -0.05604769, 9.801036834716797, 1.2882864475250244, -1.3804131746292114, 0.5996637344360352, -1.5316778421401978, 1.2891703844070435, 
191, 3407077630, 0.64886254, 0.010390418, -0.7587617, -0.056126412, 9.789224624633789, 1.2678860425949097, -1.361134648323059, 0.8386622071266174, -1.2735081911087036, 1.2469414472579956, 
192, 3407094297, 0.6488287, 0.010516093, -0.75879735, -0.05601287, 9.798446655273438, 1.2851063013076782, -1.38942551612854, 1.0308279991149902, -1.2686227560043335, 1.3620129823684692, 
193, 3407110964, 0.64882267, 0.010693258, -0.7588118, -0.05585425, 9.783683776855469, 1.2957974672317505, -1.4138233661651611, 0.8675981163978577, -1.0674220323562622, 1.4071168899536133, 
194, 3407127631, 0.6488236, 0.010753087, -0.7588172, -0.05575851, 9.80665111541748, 1.2717292308807373, -1.3959568738937378, 0.7783699035644531, -0.9626084566116333, 1.62801992893219, 
195, 3407144298, 0.64883643, 0.010755529, -0.75880986, -0.055707235, 9.779205322265625, 1.2510098218917847, -1.3979642391204834, 0.3523730933666229, -0.8632631897926331, 1.7282744646072388, 
196, 3407160965, 0.64884746, 0.010810822, -0.7588066, -0.05561284, 9.795402526855469, 1.249391794204712, -1.3520557880401611, 0.3209463357925415, -0.9147191047668457, 1.725508213043213, 
197, 3407177632, 0.64887327, 0.010856374, -0.75878865, -0.055545896, 9.763243675231934, 1.2367483377456665, -1.3320366144180298, 0.10564597696065903, -0.7820068597793579, 1.6659971475601196, 
198, 3407194299, 0.6488739, 0.010850787, -0.75879097, -0.05550954, 9.807435035705566, 1.2248319387435913, -1.3154176473617554, 0.26807528734207153, -0.9762407541275024, 1.7054086923599243, 
199, 3407210966, 0.6489007, 0.010935478, -0.75877494, -0.055399515, 9.807896614074707, 1.2395116090774536, -1.3395004272460938, 0.6381980180740356, -0.7619649767875671, 1.6411144733428955, 
200, 3407227633, 0.64891917, 0.0109059345, -0.75876045, -0.055388696, 9.811441421508789, 1.239219307899475, -1.323844313621521, 0.5518383383750916, -0.7727670073509216, 1.6470756530761719, 
201, 3407244300, 0.6489381, 0.010933062, -0.7587482, -0.055328622, 9.787405014038086, 1.2326433658599854, -1.3156176805496216, 0.554732620716095, -0.810584306716919, 1.6530436277389526, 
202, 3407260967, 0.6489382, 0.010963644, -0.7587515, -0.05527356, 9.782498359680176, 1.2088830471038818, -1.2728058099746704, 0.30555951595306396, -1.0033069849014282, 1.651378870010376, 
203, 3407277634, 0.6489155, 0.010965208, -0.75877327, -0.055241648, 9.795268058776855, 1.197344183921814, -1.256365418434143, 0.33775463700294495, -1.1973745822906494, 1.6503541469573975, 
204, 3407294301, 0.6488821, 0.01101189, -0.75880396, -0.055203855, 9.806017875671387, 1.1451643705368042, -1.2528252601623535, 0.5620642900466919, -1.282901644706726, 1.4399393796920776, 
205, 3407310968, 0.64883035, 0.011035478, -0.7588469, -0.055217974, 9.799907684326172, 1.1626677513122559, -1.2622332572937012, 0.8993515372276306, -1.3819139003753662, 1.2114038467407227, 
206, 3407327635, 0.6487613, 0.011088404, -0.75890577, -0.055208463, 9.790135383605957, 1.1758743524551392, -1.2945072650909424, 0.9928891658782959, -1.5555298328399658, 1.1829227209091187, 
207, 3407344302, 0.64868045, 0.011220417, -0.7589778, -0.055142824, 9.772063255310059, 1.2244808673858643, -1.3256746530532837, 0.7056811451911926, -1.7377127408981323, 1.1662486791610718, 
208, 3407360969, 0.6485973, 0.011270762, -0.7590478, -0.0551451, 9.801400184631348, 1.2309616804122925, -1.3558515310287476, 0.5489442348480225, -1.7240933179855347, 1.2022345066070557, 
209, 3407377636, 0.64850956, 0.011333688, -0.759122, -0.055144273, 9.779472351074219, 1.236885905265808, -1.3808584213256836, 0.377140611410141, -1.7874079942703247, 1.1909584999084473, 
210, 3407394303, 0.6484027, 0.011302101, -0.75920796, -0.05522282, 9.803632736206055, 1.231345772743225, -1.3754770755767822, 0.3418719470500946, -1.9025371074676514, 1.2012932300567627, 
211, 3407410970, 0.6483075, 0.011338619, -0.7592864, -0.05525563, 9.787825584411621, 1.2177784442901611, -1.3654319047927856, 0.5483230948448181, -1.8136224746704102, 1.1086266040802002, 
212, 3407427637, 0.6482144, 0.011384762, -0.7593643, -0.055266846, 9.800164222717285, 1.234665870666504, -1.385445475578308, 0.6442170739173889, -1.8012515306472778, 1.1661654710769653, 
213, 3407444304, 0.6481603, 0.011532815, -0.7594143, -0.055184517, 9.799246788024902, 1.230201244354248, -1.44234037399292, 0.6385822296142578, -1.5215991735458374, 1.2147783041000366, 
214, 3407460971, 0.64810586, 0.011625699, -0.7594606, -0.055166185, 9.785725593566895, 1.2001368999481201, -1.435673713684082, 0.5786164999008179, -1.4789539575576782, 1.136781096458435, 
215, 3407477638, 0.6480813, 0.0117950225, -0.759483, -0.05511141, 9.8029146194458, 1.2177859544754028, -1.4381945133209229, 0.5966671109199524, -1.231497049331665, 0.9919606447219849, 
216, 3407494305, 0.64806974, 0.011884779, -0.75949085, -0.05511868, 9.767050743103027, 1.2351157665252686, -1.4223891496658325, 0.590315043926239, -1.0651681423187256, 1.0243221521377563, 
217, 3407510972, 0.64805585, 0.011920062, -0.75949705, -0.05519126, 9.769580841064453, 1.2420233488082886, -1.4124177694320679, 0.17688772082328796, -1.0762457847595215, 0.9946756362915039, 
218, 3407527639, 0.64806217, 0.011971222, -0.75948626, -0.05525228, 9.795892715454102, 1.2324315309524536, -1.410629391670227, -0.06386526674032211, -0.9252587556838989, 1.0283945798873901, 
219, 3407544306, 0.6480686, 0.011849829, -0.7594693, -0.055436894, 9.827407836914062, 1.2252877950668335, -1.4050871133804321, -0.017262959852814674, -0.8242294788360596, 1.148210883140564, 
220, 3407560973, 0.6480869, 0.011696724, -0.7594401, -0.05565266, 9.801501274108887, 1.2306108474731445, -1.3938729763031006, 0.16190429031848907, -0.6734219789505005, 1.098944902420044, 
221, 3407577640, 0.6481355, 0.011850803, -0.7593985, -0.055622052, 9.76823616027832, 1.2336757183074951, -1.39369797706604, 0.34485578536987305, -0.5733146667480469, 1.0015782117843628, 
222, 3407594307, 0.6481822, 0.011961581, -0.75935745, -0.055614613, 9.781840324401855, 1.1968510150909424, -1.386545181274414, 0.5416125655174255, -0.5513134002685547, 1.041508436203003, 
223, 3407610974, 0.64823896, 0.012050104, -0.7593066, -0.055628635, 9.800541877746582, 1.225347638130188, -1.3835409879684448, 0.6775519251823425, -0.430715948343277, 1.0095053911209106, 
224, 3407627641, 0.64828855, 0.012100213, -0.759259, -0.05569, 9.77225112915039, 1.2228155136108398, -1.4125906229019165, 0.48366379737854004, -0.4774847626686096, 0.9631847739219666, 
225, 3407644308, 0.6483478, 0.012229705, -0.7592069, -0.055682894, 9.773209571838379, 1.2270948886871338, -1.3702313899993896, 0.29026228189468384, -0.4634874165058136, 1.0041266679763794, 
226, 3407660975, 0.6484001, 0.012115476, -0.7591491, -0.05588671, 9.782386779785156, 1.2741494178771973, -1.3546463251113892, 0.20360173285007477, -0.3697449266910553, 0.9979667663574219, 
227, 3407677642, 0.6484916, 0.012201576, -0.75906837, -0.055901226, 9.809635162353516, 1.2447471618652344, -1.3733378648757935, 0.21407736837863922, -0.1639341115951538, 1.1064366102218628, 
228, 3407694309, 0.6485866, 0.012396532, -0.7589895, -0.05582662, 9.787201881408691, 1.2068088054656982, -1.3681282997131348, 0.4200931489467621, -0.18191422522068024, 1.0552881956100464, 
229, 3407710976, 0.6486564, 0.012488191, -0.7589277, -0.05583725, 9.802236557006836, 1.2236822843551636, -1.3657699823379517, 0.18336132168769836, -0.36789441108703613, 1.1021145582199097, 
230, 3407727643, 0.6487081, 0.012359966, -0.75887024, -0.056044806, 9.793917655944824, 1.2438464164733887, -1.3859343528747559, -0.1919095665216446, -0.4171348214149475, 1.108889102935791, 
231, 3407744310, 0.64877415, 0.012301497, -0.75880337, -0.056199055, 9.801941871643066, 1.2044451236724854, -1.376800298690796, -0.2310137301683426, -0.332824170589447, 1.08725905418396, 
232, 3407760977, 0.6488556, 0.012362669, -0.758728, -0.056262292, 9.785696029663086, 1.2049081325531006, -1.354539155960083, -0.10549871623516083, -0.25178566575050354, 1.0107475519180298, 
233, 3407777644, 0.6489402, 0.012440649, -0.75864923, -0.056332566, 9.778164863586426, 1.2742570638656616, -1.3695565462112427, -0.3719732165336609, -0.24706009030342102, 0.9419006109237671, 
234, 3407794311, 0.64902407, 0.012438505, -0.7585696, -0.05643973, 9.790313720703125, 1.258500337600708, -1.3540675640106201, -0.4891129434108734, -0.23626436293125153, 1.1264272928237915, 
235, 3407810978, 0.64909744, 0.012365678, -0.7584951, -0.05661345, 9.785872459411621, 1.2414934635162354, -1.3797847032546997, -0.4470504820346832, -0.27539417147636414, 1.0851333141326904, 
236, 3407827645, 0.64919347, 0.012385625, -0.75840765, -0.05667895, 9.800359725952148, 1.2743252515792847, -1.3661975860595703, -0.2256222814321518, -0.13088089227676392, 1.2107571363449097, 
237, 3407844312, 0.64929265, 0.012258951, -0.7583114, -0.056858752, 9.808120727539062, 1.2677462100982666, -1.3750431537628174, -0.5841936469078064, -0.04808144271373749, 1.3274294137954712, 
238, 3407860979, 0.6494059, 0.012303065, -0.75821114, -0.056891277, 9.770724296569824, 1.2274335622787476, -1.344202995300293, -0.3364996612071991, -0.012934412807226181, 1.3013429641723633, 
239, 3407877646, 0.6495178, 0.012362115, -0.7581136, -0.0569004, 9.790885925292969, 1.249644160270691, -1.3854091167449951, 0.02175799012184143, -0.006921832449734211, 1.3036863803863525, 
240, 3407894313, 0.6496669, 0.012488049, -0.7579884, -0.05683886, 9.830302238464355, 1.2369768619537354, -1.3969204425811768, 0.364750474691391, 0.3118090331554413, 1.3299522399902344, 
241, 3407910980, 0.6498072, 0.01254616, -0.75787044, -0.05679561, 9.796320915222168, 1.2679619789123535, -1.3979182243347168, 0.39213046431541443, 0.2517472207546234, 1.5323437452316284, 
242, 3407927647, 0.64994365, 0.012530849, -0.75775415, -0.05678877, 9.788976669311523, 1.3060849905014038, -1.3800748586654663, 0.4968479871749878, 0.2606348395347595, 1.654260277748108, 
243, 3407944314, 0.65009797, 0.012434396, -0.7576201, -0.056832317, 9.780191421508789, 1.3060113191604614, -1.3665621280670166, 0.0878707617521286, 0.42051568627357483, 1.8277413845062256, 
244, 3407960981, 0.6502721, 0.012359343, -0.75747114, -0.056842275, 9.757678985595703, 1.2901238203048706, -1.3285870552062988, -0.03672860935330391, 0.5624485015869141, 1.9374406337738037, 
245, 3407977648, 0.65046453, 0.012338219, -0.75731, -0.056793034, 9.781779289245605, 1.2608532905578613, -1.36117422580719, 0.32392382621765137, 0.7190637588500977, 1.958103895187378, 
246, 3407994315, 0.65066224, 0.012276905, -0.75714225, -0.05677643, 9.79191780090332, 1.2327007055282593, -1.3438453674316406, 0.053658612072467804, 0.766869843006134, 2.0104434490203857, 
247, 3408010982, 0.65085644, 0.012212848, -0.756976, -0.0567824, 9.802335739135742, 1.2080447673797607, -1.2860021591186523, -0.3051241338253021, 0.7159198522567749, 1.9558563232421875, 
248, 3408027649, 0.6510328, 0.011937983, -0.75681555, -0.05695635, 9.817054748535156, 1.2084095478057861, -1.2389469146728516, -0.7915285229682922, 0.6373976469039917, 2.097116708755493, 
249, 3408044316, 0.6511888, 0.011679701, -0.7566722, -0.05713189, 9.799274444580078, 1.1837323904037476, -1.2153130769729614, -1.7764135599136353, 0.3468727767467499, 2.154578447341919, 
250, 3408060983, 0.65129966, 0.011456937, -0.7565661, -0.05731877, 9.833065032958984, 1.1665551662445068, -1.1714705228805542, -1.8661667108535767, -0.06892376393079758, 1.9323304891586304, 
251, 3408077650, 0.65136325, 0.011219037, -0.75649726, -0.057549827, 9.816488265991211, 1.1583263874053955, -1.1474484205245972, -1.8741838932037354, -0.4691222012042999, 1.7546942234039307, 
252, 3408094317, 0.6513954, 0.011130035, -0.7564612, -0.057676915, 9.804220199584961, 1.1727721691131592, -1.1149529218673706, -1.7126317024230957, -0.8310296535491943, 1.589735507965088, 
253, 3408110984, 0.65139043, 0.01109774, -0.75645643, -0.0578023, 9.831877708435059, 1.13788902759552, -1.1305848360061646, -1.3601049184799194, -1.141474723815918, 1.2756917476654053, 
254, 3408127651, 0.651328, 0.011048376, -0.75649923, -0.057954166, 9.794352531433105, 1.15424382686615, -1.1567401885986328, -0.6962108016014099, -1.5778511762619019, 1.094699501991272, 
255, 3408144318, 0.65124196, 0.010916193, -0.75655836, -0.05817496, 9.806964874267578, 1.2221177816390991, -1.2465633153915405, -0.34995269775390625, -1.707745909690857, 1.050133466720581, 
256, 3408160985, 0.65116054, 0.01088974, -0.7566186, -0.05830776, 9.813152313232422, 1.2039353847503662, -1.3100494146347046, -0.6525091528892517, -1.772142767906189, 1.0776095390319824, 
257, 3408177652, 0.6510603, 0.010850084, -0.7566935, -0.05846364, 9.795858383178711, 1.2290066480636597, -1.292103886604309, -0.5093469619750977, -1.9085174798965454, 0.988272488117218, 
258, 3408194319, 0.6509595, 0.010831246, -0.7567709, -0.058586564, 9.775909423828125, 1.2725098133087158, -1.2722151279449463, -0.6599624156951904, -1.956477403640747, 1.0884437561035156, 
259, 3408210986, 0.65085137, 0.0107660685, -0.75685453, -0.058720075, 9.799284934997559, 1.2745393514633179, -1.2882516384124756, -0.701551079750061, -2.019017219543457, 1.2489010095596313, 
260, 3408227653, 0.65073144, 0.010591506, -0.75694305, -0.058938395, 9.817233085632324, 1.2417302131652832, -1.3472274541854858, -0.4224046766757965, -2.0265023708343506, 1.2578461170196533, 
261, 3408244320, 0.650617, 0.0105339205, -0.75703317, -0.059054166, 9.793128967285156, 1.2434042692184448, -1.3440272808074951, -0.09540730714797974, -2.0260541439056396, 1.2173140048980713, 
262, 3408260987, 0.6505153, 0.010569024, -0.7571201, -0.059054803, 9.793760299682617, 1.2619179487228394, -1.3407926559448242, 0.2129119485616684, -1.9716527462005615, 1.359246850013733, 
263, 3408277654, 0.65040195, 0.010400327, -0.757207, -0.059218697, 9.783576965332031, 1.2675036191940308, -1.3309530019760132, -0.16812175512313843, -1.9803611040115356, 1.4809454679489136, 
264, 3408294321, 0.6502994, 0.010334919, -0.7572905, -0.059289567, 9.821032524108887, 1.2287904024124146, -1.3177731037139893, -0.25815680623054504, -1.9691877365112305, 1.5187307596206665, 
265, 3408310988, 0.65019435, 0.0103471195, -0.757382, -0.059271965, 9.796154022216797, 1.2059803009033203, -1.284248948097229, 0.24112436175346375, -2.0137343406677246, 1.5546331405639648, 
266, 3408327655, 0.65002716, 0.010017209, -0.7575093, -0.059532654, 9.813215255737305, 1.2622058391571045, -1.3483763933181763, 0.06364115327596664, -2.360773801803589, 1.6526530981063843, 
267, 3408344322, 0.6498873, 0.009742271, -0.757617, -0.05973438, 9.798379898071289, 1.2435402870178223, -1.3459380865097046, 0.07850292325019836, -2.1590418815612793, 1.7179718017578125, 
268, 3408360989, 0.64976597, 0.009663947, -0.7577207, -0.059752986, 9.772981643676758, 1.2557002305984497, -1.330654263496399, 0.19270995259284973, -2.1363742351531982, 1.7758821249008179, 
269, 3408377656, 0.6496542, 0.009669867, -0.757821, -0.059693266, 9.790786743164062, 1.2605843544006348, -1.36713445186615, 0.37245988845825195, -2.094344139099121, 1.7826439142227173, 
270, 3408394323, 0.6495597, 0.009666646, -0.75790906, -0.059605602, 9.78992748260498, 1.2736865282058716, -1.3956413269042969, 0.08622515946626663, -1.9912915229797363, 2.0189340114593506, 
271, 3408410990, 0.64947355, 0.009523317, -0.75798345, -0.059621625, 9.78506088256836, 1.252832055091858, -1.3849958181381226, 0.02934575080871582, -1.8300144672393799, 2.1218137741088867, 
272, 3408427657, 0.6493945, 0.009307524, -0.75805014, -0.05966757, 9.777141571044922, 1.2627873420715332, -1.3600939512252808, 0.06802091747522354, -1.732174038887024, 2.2896153926849365, 
273, 3408444324, 0.6493119, 0.009039517, -0.7581174, -0.059753545, 9.812932014465332, 1.2360877990722656, -1.3666951656341553, -0.03184298798441887, -1.7416445016860962, 2.3307044506073, 
274, 3408460991, 0.6492455, 0.008924259, -0.7581795, -0.059705563, 9.805967330932617, 1.233523964881897, -1.3389408588409424, -0.031113026663661003, -1.708744764328003, 2.347724199295044, 
275, 3408477658, 0.64916986, 0.008747294, -0.75824654, -0.059701446, 9.796796798706055, 1.1909503936767578, -1.3445290327072144, 0.3099008798599243, -1.717325210571289, 2.341513156890869, 
276, 3408494325, 0.64909583, 0.008710975, -0.75832164, -0.05955751, 9.799010276794434, 1.2255923748016357, -1.367012858390808, 0.3231106400489807, -1.8224846124649048, 2.436286687850952, 
277, 3408510992, 0.6490284, 0.008628852, -0.7583893, -0.059443634, 9.779703140258789, 1.2228304147720337, -1.3449217081069946, 0.29696008563041687, -1.7377705574035645, 2.4926347732543945, 
278, 3408527659, 0.6489385, 0.008437159, -0.7584693, -0.059430078, 9.789237022399902, 1.1863454580307007, -1.3441258668899536, 0.5871583223342896, -1.8251738548278809, 2.4091947078704834, 
279, 3408544326, 0.6488485, 0.008399688, -0.75856006, -0.05926174, 9.800786972045898, 1.1687830686569214, -1.3432507514953613, 1.0288877487182617, -1.9130957126617432, 2.456603527069092, 
280, 3408560993, 0.64876425, 0.008535549, -0.75865495, -0.05894678, 9.797197341918945, 1.1741611957550049, -1.3423587083816528, 1.4571255445480347, -1.9390478134155273, 2.3766472339630127, 
281, 3408577660, 0.6486493, 0.00847438, -0.75876707, -0.05877878, 9.789224624633789, 1.1886811256408691, -1.3850784301757812, 1.2646205425262451, -2.114161729812622, 2.5151989459991455, 
282, 3408594327, 0.6485223, 0.008443116, -0.75889003, -0.05859543, 9.793253898620605, 1.1533094644546509, -1.3401689529418945, 1.322159767150879, -2.228010416030884, 2.447287082672119, 
283, 3408610994, 0.6483643, 0.008329631, -0.7590337, -0.058498904, 9.809149742126465, 1.163050651550293, -1.3331189155578613, 1.2213736772537231, -2.447601079940796, 2.366466522216797, 
284, 3408627661, 0.6481932, 0.008321834, -0.75919694, -0.058280732, 9.833968162536621, 1.2062692642211914, -1.3742154836654663, 1.3152828216552734, -2.6602635383605957, 2.509014129638672, 
285, 3408644328, 0.64805084, 0.008278878, -0.75933415, -0.05807978, 9.805240631103516, 1.1946223974227905, -1.3654968738555908, 1.0793766975402832, -2.4072606563568115, 2.621389389038086, 
286, 3408660995, 0.6478756, 0.008219561, -0.7594981, -0.057900965, 9.77915096282959, 1.1510579586029053, -1.3703495264053345, 1.3546366691589355, -2.660109758377075, 2.5271990299224854, 
287, 3408677662, 0.6476917, 0.008254951, -0.75967354, -0.057648815, 9.790523529052734, 1.1552878618240356, -1.3247263431549072, 1.6568089723587036, -2.767491102218628, 2.433706283569336, 
288, 3408694329, 0.64747685, 0.008224583, -0.7598758, -0.057400808, 9.80997085571289, 1.1525754928588867, -1.3684889078140259, 1.5553760528564453, -3.055864095687866, 2.7163870334625244, 
289, 3408710996, 0.64724433, 0.008118199, -0.76009166, -0.057181455, 9.846646308898926, 1.1930121183395386, -1.4619336128234863, 1.345889925956726, -3.213766574859619, 2.934556007385254, 
290, 3408727663, 0.6470273, 0.007864018, -0.7602877, -0.05706616, 9.79964828491211, 1.2267073392868042, -1.5208333730697632, 0.9707149267196655, -3.021402359008789, 3.118237257003784, 
291, 3408744330, 0.64683276, 0.007763775, -0.76047355, -0.056809276, 9.778557777404785, 1.1909081935882568, -1.501602053642273, 1.1500871181488037, -2.9131948947906494, 3.1477625370025635, 
292, 3408760997, 0.64666206, 0.007762396, -0.76064605, -0.056440488, 9.773601531982422, 1.1645265817642212, -1.4607824087142944, 1.6528774499893188, -2.733752727508545, 3.220707893371582, 
293, 3408777664, 0.64649093, 0.0075725764, -0.7608122, -0.056185123, 9.782525062561035, 1.1619713306427002, -1.4220589399337769, 1.92279052734375, -2.614262819290161, 3.430636167526245, 
294, 3408794331, 0.64630336, 0.0074266177, -0.76099414, -0.0559007, 9.824014663696289, 1.13089919090271, -1.4357573986053467, 1.8635294437408447, -2.7938530445098877, 3.3903536796569824, 
295, 3408810998, 0.64611953, 0.00735583, -0.7611782, -0.05552803, 9.785326957702637, 1.09355890750885, -1.3776500225067139, 2.1111652851104736, -2.8036623001098633, 3.4759509563446045, 
296, 3408827665, 0.6459032, 0.0073030354, -0.76139194, -0.055120297, 9.785228729248047, 1.0724821090698242, -1.3544613122940063, 2.5469143390655518, -3.0828664302825928, 3.4997196197509766, 
297, 3408844332, 0.6456596, 0.0072659478, -0.7616296, -0.054691937, 9.825191497802734, 1.075809121131897, -1.340983271598816, 2.828615188598633, -3.319002628326416, 3.4818034172058105, 
298, 3408860999, 0.64536756, 0.00720216, -0.7619051, -0.054311384, 9.78887939453125, 1.039592981338501, -1.3562427759170532, 2.5909171104431152, -3.746748208999634, 3.3722450733184814, 
299, 3408877666, 0.6450174, 0.007221104, -0.7622322, -0.05387531, 9.777019500732422, 1.0321155786514282, -1.3738995790481567, 2.1157758235931396, -4.359339714050293, 3.3526129722595215, 
300, 3408894333, 0.6446398, 0.0071680653, -0.76257604, -0.053536482, 9.778589248657227, 0.9891511797904968, -1.339778184890747, 2.132859230041504, -4.531047344207764, 3.147890567779541, 
301, 3408911000, 0.6441859, 0.006941697, -0.7629729, -0.053372487, 9.795100212097168, 1.0704960823059082, -1.3318581581115723, 1.4785443544387817, -5.149131774902344, 3.0849215984344482, 
302, 3408927667, 0.6437082, 0.0067610354, -0.7633912, -0.05317968, 9.806047439575195, 1.1045268774032593, -1.4113004207611084, 0.6557556390762329, -5.466724872589111, 3.1603963375091553, 
303, 3408944334, 0.64318234, 0.0062521007, -0.76382965, -0.053308424, 9.824246406555176, 1.0454628467559814, -1.41815185546875, -0.17816835641860962, -5.7339091300964355, 3.0571961402893066, 
304, 3408961001, 0.64260906, 0.005888266, -0.76431394, -0.05332276, 9.779487609863281, 0.9414557814598083, -1.4450573921203613, 0.22297139465808868, -6.210690021514893, 2.92612361907959, 
305, 3408977668, 0.6420318, 0.0057382737, -0.7648122, -0.053150415, 9.791523933410645, 0.9810250997543335, -1.409568428993225, 0.8082152605056763, -6.3335862159729, 2.849137783050537, 
306, 3408994335, 0.6413835, 0.0055136397, -0.7653612, -0.053098038, 9.761595726013184, 0.9590166211128235, -1.4040449857711792, 0.9625700116157532, -6.867930889129639, 2.49487566947937, 
307, 3409011002, 0.64069897, 0.0053911367, -0.7659426, -0.052989986, 9.767370223999023, 0.9672248363494873, -1.4292329549789429, 1.0478862524032593, -7.22709846496582, 2.301551342010498, 
308, 3409027669, 0.639971, 0.005271708, -0.7665567, -0.052919146, 9.778861999511719, 0.9328749775886536, -1.4257681369781494, 0.8656326532363892, -7.606839179992676, 2.1047754287719727, 
309, 3409044336, 0.63916916, 0.0051013683, -0.7672226, -0.05297471, 9.740865707397461, 0.901701033115387, -1.361528754234314, 0.2722950577735901, -8.227888107299805, 1.738007664680481, 
310, 3409061003, 0.63826025, 0.0048696, -0.7679657, -0.053190097, 9.721603393554688, 0.85556960105896, -1.3021899461746216, -0.5962381958961487, -9.147411346435547, 1.2758135795593262, 
311, 3409077670, 0.6372295, 0.0046692453, -0.76879865, -0.05353214, 9.67706298828125, 0.8318073153495789, -1.2065163850784302, -1.8086031675338745, -10.251872062683105, 0.6367255449295044, 
312, 3409094337, 0.63602424, 0.004720709, -0.76977116, -0.053883847, 9.714134216308594, 0.6667930483818054, -1.0949888229370117, -2.8564062118530273, -11.903148651123047, -0.39954549074172974, 
313, 3409111004, 0.6345424, 0.0044992995, -0.77093554, -0.054721694, 9.746577262878418, 0.4548194706439972, -0.8713868856430054, -2.8711729049682617, -14.003920555114746, -1.8885281085968018, 
314, 3409127671, 0.6327453, 0.004459439, -0.7723423, -0.055685993, 9.73276424407959, 0.25420892238616943, -0.6495712399482727, -2.38202166557312, -16.667377471923828, -3.5938236713409424, 
315, 3409144338, 0.63054013, 0.004814517, -0.77406996, -0.056673482, 9.719521522521973, 0.15559296309947968, -0.43946564197540283, -2.2596328258514404, -20.261302947998047, -5.650797367095947, 
316, 3409161005, 0.62784034, 0.0054345364, -0.7761674, -0.057891794, 9.731618881225586, 0.02043190784752369, -0.26979655027389526, -2.5536949634552, -24.478052139282227, -8.196019172668457, 
317, 3409177672, 0.6245628, 0.0062543117, -0.77867943, -0.059503745, 9.730985641479492, -0.17329539358615875, -0.11885146796703339, -2.50463604927063, -29.219440460205078, -11.451284408569336, 
318, 3409194339, 0.62060905, 0.0076116677, -0.78169394, -0.061166577, 9.720419883728027, -0.2078854888677597, -0.08791874349117279, -0.3741137385368347, -34.84124755859375, -14.821104049682617, 
319, 3409211006, 0.6160618, 0.009455942, -0.78513837, -0.06274067, 9.74596118927002, -0.110713429749012, -0.3093767464160919, 3.0020458698272705, -39.63728713989258, -17.483976364135742, 
320, 3409227673, 0.61084616, 0.011685155, -0.78901863, -0.06465324, 9.675372123718262, 0.033989615738391876, -0.655174970626831, 3.3571248054504395, -44.950706481933594, -21.400699615478516, 
321, 3409244340, 0.60513556, 0.0148580605, -0.79322046, -0.06627016, 9.709208488464355, -0.07232597470283508, -0.9908376932144165, 8.357610702514648, -48.66506576538086, -25.328405380249023, 
322, 3409261007, 0.5991148, 0.019088058, -0.79761237, -0.067169644, 9.670406341552734, 0.041535403579473495, -1.5944656133651733, 17.525428771972656, -50.5201416015625, -28.494958877563477, 
323, 3409277674, 0.59277713, 0.023933096, -0.80217016, -0.067569345, 9.697829246520996, 0.6234517693519592, -2.2715413570404053, 24.137723922729492, -52.4234504699707, -30.364370346069336, 
324, 3409294341, 0.5862549, 0.029468538, -0.80676275, -0.06760837, 9.776710510253906, 1.2947338819503784, -2.9705913066864014, 25.914073944091797, -53.645591735839844, -31.884014129638672, 
325, 3409311008, 0.5795143, 0.03503683, -0.811381, -0.067797996, 10.012866973876953, 1.8515212535858154, -3.2982563972473145, 26.84808921813965, -54.71480178833008, -33.30544662475586, 
326, 3409327675, 0.5725904, 0.040682, -0.8160037, -0.06799567, 10.251214027404785, 2.2085201740264893, -3.397663116455078, 27.073665618896484, -55.71182632446289, -33.83756637573242, 
327, 3409344342, 0.56570315, 0.046003494, -0.8204854, -0.06831915, 10.362133026123047, 2.569902181625366, -3.108476400375366, 23.87486457824707, -55.324073791503906, -32.11211395263672, 
328, 3409361009, 0.55887276, 0.05043147, -0.8248541, -0.068803005, 10.44873046875, 2.7221696376800537, -2.8699138164520264, 20.28308868408203, -54.88510513305664, -28.007078170776367, 
329, 3409377676, 0.5521504, 0.054311335, -0.8290669, -0.06948678, 10.319226264953613, 2.706757068634033, -2.361607551574707, 16.562952041625977, -54.09075927734375, -25.503934860229492, 
330, 3409394343, 0.5453208, 0.058587927, -0.83328974, -0.06943348, 10.371784210205078, 2.6112265586853027, -2.8385355472564697, 21.972225189208984, -54.379600524902344, -24.851652145385742, 
331, 3409411010, 0.53903097, 0.063206494, -0.8370994, -0.06866889, 10.397300720214844, 2.586451292037964, -3.686110734939575, 27.0341739654541, -49.29566192626953, -24.088716506958008, 
332, 3409427677, 0.5338524, 0.06821096, -0.84009045, -0.067800835, 10.06511402130127, 2.4982845783233643, -4.210771083831787, 28.244131088256836, -39.64093780517578, -25.767671585083008, 
333, 3409444344, 0.53014743, 0.073200345, -0.8420724, -0.06708122, 9.79900074005127, 2.081521987915039, -4.32625150680542, 26.270273208618164, -27.478605270385742, -26.048959732055664, 
334, 3409461011, 0.5282789, 0.07778317, -0.84291077, -0.06612826, 9.340450286865234, 2.406575918197632, -4.115722179412842, 24.687007904052734, -12.742606163024902, -22.572509765625, 
335, 3409477678, 0.5282516, 0.08144188, -0.84264565, -0.06531461, 9.243184089660645, 3.3493525981903076, -4.033789157867432, 18.47522735595703, 1.3184486627578735, -17.187362670898438, 
336, 3409494345, 0.5302349, 0.08252231, -0.8412047, -0.06645234, 9.569452285766602, 3.3001160621643066, -3.6831469535827637, -3.8318753242492676, 14.985749244689941, -9.060227394104004, 
337, 3409511012, 0.5341646, 0.08131616, -0.8385987, -0.06934034, 9.193496704101562, 2.4869167804718018, -3.6813619136810303, -23.912439346313477, 28.436466217041016, -1.9628770351409912, 
338, 3409527679, 0.5397884, 0.07939956, -0.83499444, -0.0714738, 9.090519905090332, 1.5904819965362549, -3.4755616188049316, -23.59489631652832, 41.94449996948242, 5.1567301750183105, 
339, 3409544346, 0.5468698, 0.0773674, -0.83053845, -0.07178995, 9.194659233093262, 1.2495367527008057, -3.147691488265991, -14.816742897033691, 54.3967399597168, 12.799381256103516, 
340, 3409561013, 0.5550528, 0.07513511, -0.8253914, -0.07071288, 9.280719757080078, 1.376137375831604, -3.0998449325561523, -8.558158874511719, 63.91324234008789, 19.334253311157227, 
341, 3409577680, 0.5643543, 0.07267413, -0.8194749, -0.06843728, 9.325947761535645, 1.4001728296279907, -2.9749512672424316, -3.5980212688446045, 73.692138671875, 25.3352108001709, 
342, 3409594347, 0.5746106, 0.07007041, -0.8128276, -0.06499436, 9.289767265319824, 1.416609525680542, -2.8645341396331787, 1.5854244232177734, 82.41342163085938, 30.74066734313965, 
343, 3409611014, 0.5856744, 0.06715332, -0.8054647, -0.060848676, 9.360024452209473, 1.584995150566101, -2.907559394836426, 3.5466368198394775, 89.94725799560547, 35.27593994140625, 
344, 3409627681, 0.59737355, 0.06385175, -0.79742324, -0.05642894, 9.446220397949219, 1.8740354776382446, -2.7477855682373047, 2.920067310333252, 96.16510772705078, 38.4587516784668, 
345, 3409644348, 0.6095571, 0.059761886, -0.7887672, -0.052104797, 9.497522354125977, 2.069955348968506, -2.5729429721832275, -1.3106892108917236, 101.00186157226562, 42.31508255004883, 
346, 3409661015, 0.62203366, 0.05466091, -0.7795976, -0.048103955, 9.528021812438965, 2.0459258556365967, -2.376579761505127, -7.623233795166016, 104.25372314453125, 46.3515625, 
347, 3409677682, 0.63459766, 0.04881699, -0.770027, -0.044288922, 9.494453430175781, 1.7497438192367554, -2.234168291091919, -11.980494499206543, 106.1299057006836, 49.432037353515625, 
348, 3409694349, 0.6470904, 0.04259408, -0.76015127, -0.040372327, 9.40899658203125, 1.4371711015701294, -2.0292205810546875, -13.186319351196289, 107.01528930664062, 51.766639709472656, 
349, 3409711016, 0.6593327, 0.036018543, -0.7501045, -0.03642262, 9.387682914733887, 1.2381376028060913, -1.7037888765335083, -14.579148292541504, 106.39696502685547, 53.641666412353516, 
350, 3409727683, 0.6711717, 0.029271599, -0.740009, -0.0325339, 9.453974723815918, 1.162571668624878, -1.4524846076965332, -15.604962348937988, 104.49569702148438, 54.1378288269043, 
351, 3409744350, 0.6825926, 0.02250595, -0.7298828, -0.02884644, 9.390183448791504, 1.0748552083969116, -1.34787118434906, -16.660099029541016, 102.48260498046875, 53.20642852783203, 
352, 3409761017, 0.69351166, 0.01573237, -0.7198255, -0.025405783, 9.197870254516602, 0.8869984149932861, -1.267634391784668, -17.86447525024414, 99.6224136352539, 52.00299072265625, 
353, 3409777684, 0.70385987, 0.009648515, -0.7099426, -0.021676473, 8.771501541137695, 0.5463727116584778, -0.8843859434127808, -13.073686599731445, 96.14608001708984, 49.88595199584961, 
354, 3409794351, 0.7132534, 0.004181012, -0.70066035, -0.01809137, 8.196382522583008, 0.39009740948677063, -0.11876558512449265, -10.659969329833984, 88.6859130859375, 46.07551193237305, 
355, 3409811018, 0.72140425, -2.3676342E-4, -0.6923742, -0.013926073, 8.046863555908203, 0.6319280862808228, -0.28510138392448425, -2.5727338790893555, 77.97437286376953, 43.73398208618164, 
356, 3409827685, 0.7284754, -0.0044094655, -0.68498313, -0.010112923, 7.892595291137695, 1.018476128578186, -0.09542113542556763, -2.9624886512756348, 68.43970489501953, 40.72423553466797, 
357, 3409844352, 0.73452383, -0.009301178, -0.67847586, -0.007671552, 7.680865287780762, 1.2741912603378296, 0.11784994602203369, -13.007866859436035, 59.208614349365234, 37.159297943115234, 
358, 3409861019, 0.7393827, -0.01474111, -0.6730933, -0.006464765, 7.292935371398926, 0.9503307342529297, 0.14243711531162262, -21.563823699951172, 48.045921325683594, 33.373111724853516, 
359, 3409877686, 0.7432152, -0.020011138, -0.66872454, -0.0061821057, 7.000368118286133, 0.28945618867874146, -0.0279630608856678, -25.046737670898438, 38.2625846862793, 27.75766944885254, 
360, 3409894353, 0.74610025, -0.023915278, -0.66537666, -0.006030008, 6.936194896697998, -0.3150526285171509, -0.17630673944950104, -18.761146545410156, 28.78974723815918, 20.632312774658203, 
361, 3409911020, 0.7481963, -0.025993284, -0.6629411, -0.005974193, 7.054135322570801, -0.9237568378448486, -0.14090363681316376, -9.927729606628418, 20.62180519104004, 11.59150218963623, 
362, 3409927687, 0.7495146, -0.024612145, -0.6615087, -0.0053336862, 7.039121150970459, -1.4531195163726807, -0.09881630539894104, 10.43708324432373, 11.985000610351562, -1.4001004695892334, 
363, 3409944354, 0.7499787, -0.019649921, -0.6611585, -0.003924945, 6.922056674957275, -0.7714716196060181, -0.4580516219139099, 32.287330627441406, 2.557516098022461, -13.974395751953125, 
364, 3409961021, 0.7498354, -0.013137075, -0.6614906, -0.0021264919, 6.907942295074463, 0.36020025610923767, -0.7815258502960205, 41.9978141784668, -3.692732095718384, -19.133541107177734, 
365, 3409977688, 0.74917686, -0.006247979, -0.66234034, -5.6444615E-4, 6.62227201461792, 0.6948954463005066, -0.5454114675521851, 42.826751708984375, -8.628613471984863, -22.10296630859375, 
366, 3409994355, 0.7478419, 4.369211E-5, -0.66387695, 2.3614081E-4, 6.58949089050293, 0.990925133228302, -0.37059494853019714, 36.25718307495117, -15.174515724182129, -23.315481185913086, 
367, 3410011022, 0.7458715, 0.005788766, -0.66606474, 4.5174823E-4, 6.859941005706787, 0.9303285479545593, -0.11434447020292282, 30.778980255126953, -21.386402130126953, -23.801719665527344, 
368, 3410027689, 0.74323463, 0.011953196, -0.66892403, 5.634326E-4, 7.51919412612915, 0.47590944170951843, 0.059976913034915924, 32.48089599609375, -27.85952377319336, -26.204132080078125, 
369, 3410044356, 0.739807, 0.01852704, -0.67256415, -1.1000246E-5, 8.111771583557129, -0.20912986993789673, 0.009673140943050385, 31.484893798828125, -35.51958465576172, -31.517324447631836, 
370, 3410061023, 0.73564214, 0.02654722, -0.67685, -3.4997615E-4, 8.292722702026367, -0.3962833881378174, 0.1391482949256897, 40.031471252441406, -42.157188415527344, -36.93623733520508, 
371, 3410077690, 0.7304068, 0.03609062, -0.68205816, -3.066984E-4, 8.360729217529297, 0.39383378624916077, -0.20974180102348328, 49.72127914428711, -51.709991455078125, -41.942378997802734, 
372, 3410094357, 0.72399545, 0.04661828, -0.6882272, -0.0010094647, 8.85729694366455, 0.9589301347732544, -0.5681920051574707, 51.467830657958984, -62.20667266845703, -50.06856918334961, 
373, 3410111024, 0.7164387, 0.05913487, -0.69513595, -0.0022346864, 9.51834774017334, 1.141921877861023, -0.1402030885219574, 59.27589416503906, -71.43094635009766, -61.843544006347656, 
374, 3410127691, 0.7067983, 0.07258451, -0.70366144, -0.0053117224, 9.948190689086914, 4.488585948944092, 1.4345417022705078, 55.90324020385742, -90.07459259033203, -74.79206848144531, 
375, 3410144358, 0.6942665, 0.07876816, -0.7152107, -0.016228437, 13.095602989196777, 10.477783203125, 0.38655954599380493, -15.765976905822754, -122.96680450439453, -76.25569915771484, 
376, 3410161025, 0.686515, 0.07457217, -0.72241956, -0.035303082, 21.696613311767578, 2.4501888751983643, 2.323608160018921, -108.47797393798828, -84.34016418457031, -65.7738265991211, 
377, 3410177692, 0.6858672, 0.07596557, -0.722429, -0.04372632, 18.675220489501953, -3.016634702682495, 5.244467735290527, -34.55123519897461, -8.336883544921875, -45.25301742553711, 
378, 3410194359, 0.6785383, 0.081215, -0.72830456, -0.05062174, 9.617204666137695, -2.2564027309417725, -0.72300124168396, -3.5011403560638428, -67.37142181396484, -56.30009841918945, 
379, 3410211026, 0.670401, 0.08785785, -0.7344877, -0.0580643, 10.278862953186035, 0.28783178329467773, -5.6239848136901855, 0.8238603472709656, -72.66629028320312, -66.03829193115234, 
380, 3410227693, 0.66351914, 0.08943776, -0.74008113, -0.06343066, 8.998421669006348, 4.346020221710205, -3.608886957168579, -13.039238929748535, -64.25946044921875, -30.798887252807617, 
381, 3410244360, 0.65685236, 0.08065833, -0.7457751, -0.07654343, 12.721394538879395, 7.766242027282715, -2.5138370990753174, -99.8073501586914, -72.84992980957031, -13.223869323730469, 
382, 3410261027, 0.65351444, 0.06792164, -0.7478197, -0.0952434, 18.850797653198242, 5.808812618255615, -0.05834611877799034, -150.0843048095703, -44.471370697021484, -18.340900421142578, 
383, 3410277694, 0.649643, 0.060762737, -0.74986666, -0.10941719, 16.090822219848633, -4.384012222290039, -2.039036750793457, -101.46964263916016, -41.5238037109375, -27.016923904418945, 
384, 3410294361, 0.6425271, 0.061622806, -0.7551498, -0.11450118, 8.785080909729004, -3.105482578277588, -3.25679874420166, -15.016953468322754, -62.87483596801758, -29.04312515258789, 
385, 3410311028, 0.63393253, 0.06674451, -0.7619192, -0.11469085, 6.854339599609375, 5.517063617706299, -4.678741455078125, 30.991382598876953, -71.64118194580078, -30.202407836914062, 
386, 3410327695, 0.6276612, 0.07069184, -0.76669604, -0.1149851, 8.003056526184082, 8.860710144042969, -4.695154666900635, 22.6842041015625, -51.67790222167969, -23.508298873901367, 
387, 3410344362, 0.62398, 0.0713107, -0.76926875, -0.117429055, 9.327686309814453, 6.936587810516357, -3.938213348388672, -6.000402927398682, -32.11955261230469, -14.122725486755371, 
388, 3410361029, 0.62123847, 0.070311636, -0.7710262, -0.12098709, 9.69465446472168, 3.2563843727111816, -2.802833080291748, -19.943574905395508, -25.46025276184082, -9.899155616760254, 
389, 3410377696, 0.61823744, 0.068639755, -0.7730768, -0.12419142, 9.476274490356445, 3.0036516189575195, -2.776059150695801, -20.573530197143555, -28.461305618286133, -4.8904852867126465, 
390, 3410394363, 0.61510795, 0.06779817, -0.77524716, -0.12663884, 8.839170455932617, 2.780153274536133, -3.072918653488159, -12.859492301940918, -28.573657989501953, -6.140014171600342, 
391, 3410411030, 0.6123591, 0.06782555, -0.7770623, -0.1288035, 9.03667163848877, 2.018594264984131, -2.5282740592956543, -8.168665885925293, -24.130104064941406, -9.411768913269043, 
392, 3410427697, 0.6094525, 0.06926733, -0.77909607, -0.12953451, 9.230430603027344, 1.6410847902297974, -1.8695060014724731, 5.70809268951416, -23.963634490966797, -10.98898983001709, 
393, 3410444364, 0.60601646, 0.07132032, -0.7815364, -0.12984006, 9.104917526245117, 2.2210967540740967, -1.3106797933578491, 11.159679412841797, -27.760080337524414, -12.787507057189941, 
394, 3410461031, 0.6022442, 0.07296659, -0.78410256, -0.13100038, 9.28658390045166, 2.5792133808135986, -0.9114179611206055, 5.153084754943848, -30.891948699951172, -14.418587684631348, 
395, 3410477698, 0.59814036, 0.07445896, -0.7867841, -0.13287146, 9.239441871643066, 1.890842318534851, -0.7067051529884338, 0.9639453291893005, -33.68011474609375, -16.784650802612305, 
396, 3410494365, 0.5932691, 0.07625619, -0.7899365, -0.13497141, 9.056467056274414, 1.3804516792297363, -0.4917047619819641, 1.8098381757736206, -39.63998031616211, -19.86104393005371, 
397, 3410511032, 0.58735776, 0.07846132, -0.7937632, -0.13709472, 8.964357376098633, 1.8292052745819092, -0.7043785452842712, 4.524022102355957, -47.71330642700195, -22.81955337524414, 
398, 3410527699, 0.58057034, 0.080843374, -0.7981221, -0.1392972, 8.868721008300781, 2.4716567993164062, -1.2373807430267334, 5.788344860076904, -54.55386734008789, -24.671833038330078, 
399, 3410544366, 0.5734449, 0.08276334, -0.802452, -0.14276622, 8.733855247497559, 2.2796411514282227, -1.049687385559082, -2.836557626724243, -57.465641021728516, -27.547584533691406, 
400, 3410561033, 0.5656205, 0.084899575, -0.80699503, -0.14705361, 8.701803207397461, 1.1797045469284058, -0.872917890548706, -5.882342338562012, -62.448760986328125, -32.5526123046875, 
401, 3410577700, 0.55649865, 0.08832495, -0.8122131, -0.15105587, 8.30392074584961, 0.44510141015052795, -0.6525152325630188, 2.1570043563842773, -70.84001922607422, -39.55856704711914, 
402, 3410594367, 0.54556763, 0.093052484, -0.8182727, -0.1553295, 8.457561492919922, -0.18117345869541168, -0.2138364315032959, 7.5978684425354, -83.01612091064453, -49.29192352294922, 
403, 3410611034, 0.5333108, 0.100115016, -0.82496953, -0.15805718, 7.728610992431641, 0.3086833357810974, -1.8692747354507446, 26.5828800201416, -89.43659973144531, -57.707366943359375, 
404, 3410627701, 0.5199528, 0.10931519, -0.83195657, -0.15983728, 6.22967529296875, 0.6286329030990601, -2.5549583435058594, 40.861263275146484, -93.79264831542969, -67.4089584350586, 
405, 3410644368, 0.50533634, 0.11944877, -0.8392598, -0.16127734, 6.7598981857299805, 1.723171591758728, -3.0354835987091064, 47.42546081542969, -100.84345245361328, -72.71454620361328, 
406, 3410661035, 0.48975334, 0.1309013, -0.8466887, -0.1616323, 6.79633903503418, 3.5147595405578613, -3.6341934204101562, 59.19764709472656, -104.50593566894531, -77.54608917236328, 
407, 3410677702, 0.4732169, 0.14145435, -0.85358614, -0.16567229, 7.7975335121154785, 2.0965425968170166, -0.8659451603889465, 34.990272521972656, -112.58320617675781, -86.25309753417969, 
408, 3410694369, 0.4549229, 0.15259518, -0.86091363, -0.16907886, 7.458644866943359, 2.109814167022705, -1.5508112907409668, 42.83761215209961, -123.07111358642578, -89.2586669921875, 
409, 3410711036, 0.43348986, 0.16557546, -0.86914706, -0.17104045, 6.432236194610596, 1.9298202991485596, -3.8209228515625, 61.50589370727539, -140.88621520996094, -98.35918426513672, 
410, 3410727703, 0.41066602, 0.17915206, -0.8770652, -0.17324735, 7.125097274780273, 2.8054919242858887, -5.770756721496582, 63.02262878417969, -147.847900390625, -104.67437744140625, 
411, 3410744370, 0.38585237, 0.1931577, -0.88539475, -0.17287058, 9.113555908203125, 4.2775559425354, -6.251711845397949, 82.74267578125, -157.3188018798828, -101.85224151611328, 
412, 3410761037, 0.35903278, 0.205103, -0.8937174, -0.17406164, 12.999262809753418, 4.9867024421691895, -6.315589904785156, 70.38587951660156, -174.07688903808594, -95.8832015991211, 
413, 3410777704, 0.33073315, 0.21357605, -0.90184504, -0.1779785, 16.95872688293457, 4.877669334411621, -6.579110622406006, 46.922115325927734, -190.78765869140625, -83.37652587890625, 
414, 3410794371, 0.30097926, 0.21916148, -0.9099904, -0.1824758, 19.87657928466797, 4.910272121429443, -6.72544527053833, 38.911537170410156, -204.39694213867188, -68.64237213134766, 
415, 3410811038, 0.271178, 0.22282645, -0.9177745, -0.18574446, 18.69795036315918, 5.9515485763549805, -8.016572952270508, 42.235252380371094, -204.72573852539062, -54.81291198730469, 
416, 3410827705, 0.24386974, 0.22466159, -0.9246314, -0.18738048, 12.817968368530273, 7.299167156219482, -8.297858238220215, 44.1146125793457, -187.30612182617188, -38.56429672241211, 
417, 3410844372, 0.22179404, 0.22414322, -0.93051255, -0.18631612, 7.332453727722168, 9.199548721313477, -8.50931167602539, 48.008670806884766, -151.39028930664062, -13.880444526672363, 
418, 3410861039, 0.2060191, 0.22244817, -0.9353913, -0.1819786, 0.69029301404953, 11.454826354980469, -10.678962707519531, 56.20684814453125, -106.06450653076172, 5.1860480308532715, 
419, 3410877706, 0.19507377, 0.21954001, -0.93936515, -0.17703645, -4.410972595214844, 14.652496337890625, -11.916182518005371, 49.93253707885742, -74.25447082519531, 18.589366912841797, 
420, 3410894373, 0.19059743, 0.21385305, -0.94145924, -0.17774747, -6.402461528778076, 14.29202651977539, -13.450663566589355, -2.2333734035491943, -41.718021392822266, 34.121891021728516, 
421, 3410911040, 0.19341008, 0.20270912, -0.9407526, -0.1910136, -3.0982651710510254, 8.268045425415039, -9.50450325012207, -104.68600463867188, -15.806714057922363, 57.9039421081543, 
422, 3410927707, 0.20478421, 0.18703376, -0.9372205, -0.21142294, 1.7583553791046143, 4.1565775871276855, -6.1086907386779785, -172.53953552246094, 27.535709381103516, 85.07178497314453, 
423, 3410944374, 0.22318557, 0.1715963, -0.93268764, -0.2254703, 2.1768598556518555, 2.5492031574249268, -4.7883219718933105, -141.70852661132812, 82.77080535888672, 101.40872955322266, 
424, 3410961041, 0.24676204, 0.15900864, -0.92869955, -0.22658826, -0.13800105452537537, 0.17370983958244324, -3.261369228363037, -59.70465087890625, 134.79425048828125, 111.63093566894531, 
425, 3410977708, 0.27395612, 0.14930342, -0.92566305, -0.21401991, -1.9651563167572021, 0.20448662340641022, -3.2007980346679688, 30.066736221313477, 175.76414489746094, 123.15149688720703, 
426, 3410994375, 0.30512226, 0.14198853, -0.92170036, -0.19289456, -1.4737008810043335, 2.047018527984619, -4.500585079193115, 83.55522918701172, 215.1599578857422, 129.0193634033203, 
427, 3411011042, 0.34159938, 0.13527109, -0.9141448, -0.17132123, -0.12233391404151917, 4.243328094482422, -5.701653003692627, 77.67203521728516, 257.66253662109375, 129.79385375976562, 
428, 3411027709, 0.3808694, 0.12622643, -0.9022611, -0.15789361, -0.08855506777763367, 5.355173110961914, -6.9611334800720215, 13.281500816345215, 275.1259460449219, 124.6361083984375, 
429, 3411044376, 0.41787457, 0.1135954, -0.8881901, -0.15360808, 0.24943077564239502, 4.057780742645264, -7.061767101287842, -53.26063537597656, 255.03858947753906, 118.66786193847656, 
430, 3411061043, 0.45577192, 0.09728997, -0.87120205, -0.1543175, 0.7381706237792969, 2.9748826026916504, -6.941136837005615, -98.14421844482422, 261.17645263671875, 125.4898681640625, 
431, 3411077710, 0.4938505, 0.081251554, -0.85214335, -0.15284558, 1.8629767894744873, 2.4113311767578125, -7.136229038238525, -86.60185241699219, 270.5792541503906, 129.58238220214844, 
432, 3411094377, 0.52978575, 0.072684646, -0.83329326, -0.14023715, 3.390103578567505, 0.5465229749679565, -6.640395164489746, 5.410032749176025, 271.4602355957031, 121.51473236083984, 
433, 3411111044, 0.5624666, 0.06705067, -0.81491363, -0.12268449, 3.733682632446289, 0.585696816444397, -7.0374836921691895, 46.45457077026367, 256.4657897949219, 119.81560516357422, 
434, 3411127711, 0.5907584, 0.060705073, -0.797692, -0.10491548, 4.107551097869873, 3.379331111907959, -7.464974403381348, 47.86135482788086, 226.9693603515625, 121.4637680053711, 
435, 3411144378, 0.61670023, 0.053264897, -0.7802157, -0.090040304, 4.368075370788574, 6.273139953613281, -6.743617534637451, 28.305477142333984, 213.2107696533203, 113.94728088378906, 
436, 3411161045, 0.63884175, 0.043209463, -0.76381624, -0.08123491, 6.488964080810547, 6.904926300048828, -5.407637119293213, -13.310437202453613, 184.499267578125, 100.36614990234375, 
437, 3411177712, 0.65807414, 0.034330018, -0.7485847, -0.0733541, 8.506263732910156, 4.62947940826416, -4.25524377822876, -11.498343467712402, 164.53256225585938, 88.94609069824219, 
438, 3411194379, 0.672499, 0.026123825, -0.7366555, -0.06634359, 8.935685157775879, 1.1999157667160034, -2.2142741680145264, -10.146635055541992, 125.02111053466797, 79.94673156738281, 
439, 3411211046, 0.6810306, 0.01755481, -0.7292874, -0.06347664, 9.321918487548828, 0.4680890142917633, -2.4122250080108643, -29.685077667236328, 73.18583679199219, 60.747955322265625, 
440, 3411227713, 0.6845949, 0.013982413, -0.72617257, -0.061707072, 8.7555513381958, -0.8948544263839722, -1.8793541193008423, -9.34238338470459, 30.43573570251465, 28.884300231933594, 
441, 3411244380, 0.68400013, 0.018169884, -0.72675633, -0.060325768, 7.502973556518555, -1.8128269910812378, -0.6937018036842346, 27.20941925048828, -4.459595203399658, -13.13328742980957, 
442, 3411261047, 0.6792902, 0.027693296, -0.7309012, -0.05984575, 7.0003581047058105, -0.6960088610649109, -1.294893741607666, 49.79032516479492, -39.66297912597656, -45.350181579589844, 
443, 3411277714, 0.67227465, 0.040649004, -0.7366913, -0.060667615, 7.583166122436523, 1.841921329498291, 1.0037782192230225, 60.39495849609375, -57.753360748291016, -69.34944152832031, 
444, 3411294381, 0.66092134, 0.0496051, -0.7457559, -0.067606136, 8.760457992553711, 8.835589408874512, -0.6526755690574646, 13.50983715057373, -98.26638793945312, -78.25115203857422, 
445, 3411311048, 0.6503438, 0.048130542, -0.75336987, -0.08467834, 16.2252140045166, 5.930683612823486, -0.019581884145736694, -86.77413940429688, -96.01561737060547, -70.82633209228516, 
446, 3411327715, 0.6480054, 0.048761655, -0.7539665, -0.09615549, 20.904396057128906, -4.1923418045043945, 3.640106678009033, -55.16755294799805, -18.927305221557617, -54.189613342285156, 
447, 3411344382, 0.6413709, 0.051594768, -0.7584432, -0.10365991, 10.637163162231445, -2.0041520595550537, -1.939651370048523, -20.75054931640625, -55.815574645996094, -49.59267044067383, 
448, 3411361049, 0.63290656, 0.06011538, -0.7639422, -0.110490195, 10.225929260253906, 1.0642435550689697, -5.16480827331543, 9.216048240661621, -65.57040405273438, -77.29914093017578, 
449, 3411377716, 0.6264978, 0.068269834, -0.76809216, -0.1134654, 11.565838813781738, 2.371511697769165, -2.3389875888824463, 25.983291625976562, -47.52768325805664, -57.62131881713867, 
450, 3411394383, 0.6207369, 0.06873096, -0.7718026, -0.11950941, 15.330728530883789, 6.432178497314453, 1.2627174854278564, -24.009456634521484, -49.6536750793457, -29.92640495300293, 
451, 3411411050, 0.61459136, 0.063452415, -0.77472883, -0.13433722, 24.168521881103516, 3.9527676105499268, 0.1992982029914856, -95.55388641357422, -57.29479217529297, -37.61422348022461, 
452, 3411427717, 0.60716105, 0.062180124, -0.77789897, -0.1495403, 21.969419479370117, -4.440569877624512, -3.849971294403076, -79.82066345214844, -61.72733688354492, -61.67864990234375, 
453, 3411444384, 0.59624285, 0.067658685, -0.7842394, -0.15775111, 7.912387371063232, -3.240588426589966, -4.948238849639893, -9.518033981323242, -83.70317840576172, -71.01164245605469, 
454, 3411461051, 0.5832037, 0.080107525, -0.7932772, -0.15545969, 2.2879602909088135, 5.472508907318115, -8.75359058380127, 79.5627670288086, -93.70646667480469, -66.68225860595703, 
455, 3411477718, 0.57366604, 0.09651455, -0.80013585, -0.14620216, 0.6365191340446472, 10.154301643371582, -9.839427947998047, 129.1507110595703, -57.67690658569336, -57.72382736206055, 
456, 3411494385, 0.5689732, 0.10820407, -0.80336744, -0.13842866, 5.729427337646484, 11.86944580078125, -6.394865036010742, 95.50431823730469, -22.29140281677246, -35.01438522338867, 
457, 3411511052, 0.5663459, 0.112343915, -0.80504453, -0.13614121, 10.680845260620117, 11.062345504760742, -4.978659152984619, 32.67166519165039, -15.997918128967285, -13.827219009399414, 
458, 3411527719, 0.5646809, 0.110918276, -0.8057834, -0.1398078, 12.36062240600586, 7.034581184387207, -3.71242356300354, -23.548221588134766, -16.811534881591797, -5.93179178237915, 
459, 3411544386, 0.5632928, 0.107499816, -0.80619526, -0.14558308, 10.348580360412598, 3.5543160438537598, -2.3978006839752197, -43.47488021850586, -17.552453994750977, -3.030658483505249, 
460, 3411561053, 0.5611094, 0.10634471, -0.8073736, -0.14830734, 7.516976356506348, 2.0852808952331543, -2.9542150497436523, -16.43802833557129, -20.4348087310791, -4.001494884490967, 
461, 3411577720, 0.557951, 0.107589856, -0.8093964, -0.14829929, 6.796792030334473, 1.5156255960464478, -2.9181265830993652, 9.559191703796387, -24.660715103149414, -7.179258823394775, 
462, 3411594387, 0.5546531, 0.10940756, -0.8115895, -0.14735143, 7.996288299560547, 2.619309663772583, -2.275526762008667, 17.255441665649414, -24.80702018737793, -6.798977851867676, 
463, 3411611054, 0.55092084, 0.111225694, -0.8138592, -0.14747359, 8.620820045471191, 2.756392002105713, -1.8746609687805176, 11.693477630615234, -28.341751098632812, -11.27900505065918, 
464, 3411627721, 0.54678243, 0.112470955, -0.8160734, -0.14967807, 9.033360481262207, 1.7906465530395508, -1.407253623008728, -1.867981195449829, -32.6016845703125, -16.431428909301758, 
465, 3411644388, 0.54188985, 0.11412791, -0.8185808, -0.15249859, 8.82158088684082, 1.5954474210739136, -1.3136359453201294, -2.8892087936401367, -38.02233123779297, -21.639738082885742, 
466, 3411661055, 0.5357641, 0.11689913, -0.8216709, -0.15539837, 8.053611755371094, 1.758198857307434, -1.1911336183547974, 2.3981101512908936, -46.06361389160156, -29.076644897460938, 
467, 3411677722, 0.5284717, 0.12021242, -0.82532847, -0.1584294, 7.4584269523620605, 2.0589163303375244, -1.018879771232605, 5.201649188995361, -54.304317474365234, -33.44071960449219, 
468, 3411694389, 0.52017856, 0.124207065, -0.8294085, -0.16145808, 7.397076606750488, 1.8061184883117676, -1.1646156311035156, 8.985465049743652, -60.8083610534668, -38.06204605102539, 
469, 3411711056, 0.51065254, 0.12935679, -0.83396345, -0.16433427, 7.590426445007324, 1.1610186100006104, -1.8685773611068726, 15.572189331054688, -68.15730285644531, -45.09171676635742, 
470, 3411727723, 0.49951392, 0.13613543, -0.83902043, -0.16732499, 8.145317077636719, 0.6019914150238037, -1.5213426351547241, 22.634464263916016, -77.45365905761719, -56.24889373779297, 
471, 3411744390, 0.48625156, 0.14434843, -0.84485096, -0.17014764, 8.765929222106934, 1.431228756904602, -1.1084519624710083, 31.403520584106445, -90.59174346923828, -65.7137222290039, 
472, 3411761057, 0.47122458, 0.1538603, -0.85120505, -0.17240787, 7.430593013763428, 2.611449718475342, -2.0611038208007812, 41.38190460205078, -100.56439208984375, -72.9676284790039, 
473, 3411777724, 0.45489478, 0.1643187, -0.85765237, -0.1746502, 6.122322082519531, 3.508110761642456, -2.8780977725982666, 46.04936981201172, -107.38336944580078, -79.91714477539062, 
474, 3411794391, 0.43711224, 0.17503953, -0.86420274, -0.17733549, 7.105545997619629, 4.092507839202881, -3.3256967067718506, 46.03468322753906, -116.47159576416016, -84.48275756835938, 
475, 3411811058, 0.41803023, 0.185427, -0.87081647, -0.18040645, 8.993391036987305, 3.635854959487915, -3.4619626998901367, 44.39432144165039, -125.2763671875, -85.177001953125, 
476, 3411827725, 0.3969247, 0.19580047, -0.87766606, -0.18388942, 9.748124122619629, 4.061617851257324, -4.924109935760498, 44.76983642578125, -138.65643310546875, -88.51689147949219, 
477, 3411844392, 0.37314644, 0.20609374, -0.8848126, -0.18813254, 12.268953323364258, 3.142484426498413, -4.983804225921631, 43.94200134277344, -156.76400756835938, -93.12217712402344, 
478, 3411861059, 0.3472383, 0.21515352, -0.8922612, -0.19236545, 16.855939865112305, 3.3026187419891357, -5.672311782836914, 44.24235534667969, -172.15379333496094, -87.9820556640625, 
479, 3411877726, 0.31858814, 0.224068, -0.9005405, -0.19318914, 16.46746063232422, 4.249941349029541, -7.308504104614258, 69.95854187011719, -186.2386016845703, -81.44863891601562, 
480, 3411894393, 0.28883064, 0.23137969, -0.90897757, -0.19183372, 15.781678199768066, 5.4287519454956055, -7.899810791015625, 81.84153747558594, -192.3378143310547, -68.06106567382812, 
481, 3411911060, 0.2613556, 0.23529121, -0.916631, -0.19005018, 12.6463623046875, 7.130335807800293, -8.351670265197754, 73.08927917480469, -180.4407196044922, -44.25749588012695, 
482, 3411927727, 0.23787315, 0.23609774, -0.9235836, -0.18619269, 7.11790132522583, 9.162372589111328, -8.245071411132812, 73.212158203125, -154.81326293945312, -16.908706665039062, 
483, 3411944394, 0.21921514, 0.23509267, -0.92975575, -0.179529, 1.2522385120391846, 10.736268997192383, -10.002760887145996, 79.27372741699219, -120.70173645019531, 4.113861560821533, 
484, 3411961061, 0.20648202, 0.23236105, -0.93472856, -0.17221083, -2.8121109008789062, 12.322944641113281, -11.813397407531738, 69.84878540039062, -82.05250549316406, 21.574485778808594, 
485, 3411977728, 0.20132792, 0.22442305, -0.9377608, -0.17235543, -1.4437987804412842, 13.265914916992188, -11.300413131713867, 0.1557086855173111, -48.579986572265625, 50.39515686035156, 
486, 3411994395, 0.2049988, 0.21135667, -0.93812793, -0.18226355, -0.7357869744300842, 9.742855072021484, -9.803668022155762, -86.58674621582031, -9.062495231628418, 76.35723876953125, 
487, 3412011062, 0.21420763, 0.19636825, -0.9361474, -0.1979466, -1.9420701265335083, 6.068483352661133, -7.9708781242370605, -137.49610900878906, 19.221345901489258, 84.18443298339844, 
488, 3412027729, 0.22746314, 0.1816562, -0.93315095, -0.210929, -2.833169937133789, 2.2614593505859375, -6.194057941436768, -126.54335021972656, 50.849063873291016, 90.54937744140625, 
489, 3412044396, 0.24549183, 0.16777724, -0.9299114, -0.21644796, -1.3440920114517212, 1.0764955282211304, -4.835216045379639, -83.69314575195312, 92.45037841796875, 103.52388000488281, 
490, 3412061063, 0.27023986, 0.15441544, -0.92581403, -0.21446462, 0.045564066618680954, 0.5331785082817078, -4.668331623077393, -43.914241790771484, 146.33018493652344, 121.9179458618164, 
491, 3412077730, 0.29945195, 0.14328495, -0.9208605, -0.20448516, -0.31015750765800476, 0.9643886089324951, -4.5202741622924805, 5.095163345336914, 188.15248107910156, 128.26560974121094, 
492, 3412094397, 0.33000252, 0.13567968, -0.91512716, -0.18770114, -0.4957343339920044, 2.5024571418762207, -4.921899795532227, 52.9980354309082, 209.93215942382812, 121.09851837158203, 
493, 3412111064, 0.36333025, 0.13054079, -0.90710723, -0.16765067, -0.13390500843524933, 3.7686831951141357, -6.060632228851318, 73.59566497802734, 238.88192749023438, 114.48782348632812, 
494, 3412127731, 0.3998972, 0.12408988, -0.895322, -0.15192915, 0.4391936659812927, 4.448279857635498, -7.456821441650391, 36.05058288574219, 263.1558837890625, 112.26497650146484, 
495, 3412144398, 0.43591398, 0.11275796, -0.8810747, -0.14481756, 1.4147005081176758, 3.69380521774292, -7.855222225189209, -32.50658416748047, 254.15054321289062, 116.01698303222656, 
496, 3412161065, 0.47054574, 0.09539125, -0.8650867, -0.14530098, 2.95382022857666, 3.797536611557007, -7.397315979003906, -97.30487060546875, 239.14109802246094, 127.12681579589844, 
497, 3412177732, 0.5051808, 0.08077915, -0.8473423, -0.14240149, 4.226046562194824, 3.591223955154419, -6.683924198150635, -70.04492950439453, 249.8650360107422, 120.57275390625, 
498, 3412194399, 0.53887063, 0.07097745, -0.82891446, -0.1322179, 5.434004783630371, 1.138065218925476, -7.04705810546875, -11.052614212036133, 255.52967834472656, 116.56985473632812, 
499, 3412211066, 0.5699076, 0.060453717, -0.81065184, -0.11997672, 5.670895576477051, 1.4921255111694336, -7.367574214935303, -0.5927931070327759, 240.18759155273438, 125.97199249267578, 
500, 3412227733, 0.597678, 0.049476314, -0.79292065, -0.10775114, 6.386331558227539, 3.702200412750244, -6.574312686920166, -0.6937870979309082, 219.5691375732422, 125.95968627929688, 
501, 3412244400, 0.62261355, 0.039840277, -0.77567285, -0.0953787, 7.050215244293213, 4.945418834686279, -5.280739784240723, 6.928627967834473, 203.22091674804688, 117.33525085449219, 
502, 3412261067, 0.64462966, 0.032217495, -0.75925356, -0.0833592, 8.234841346740723, 4.417600154876709, -4.247971057891846, 14.999107360839844, 185.36578369140625, 103.43739318847656, 
503, 3412277734, 0.66436505, 0.02628843, -0.74338204, -0.07287698, 8.831750869750977, 2.2615091800689697, -3.2246804237365723, 15.289571762084961, 171.69215393066406, 86.6279067993164, 
504, 3412294401, 0.68004405, 0.021479601, -0.73003334, -0.06426513, 9.170832633972168, 0.11119043827056885, -1.9501413106918335, 12.807784080505371, 139.6737823486328, 70.78636169433594, 
505, 3412311068, 0.6905475, 0.018360393, -0.72073764, -0.05783102, 8.828781127929688, -0.3456648290157318, -1.5657161474227905, 12.375235557556152, 95.18315124511719, 50.410396575927734, 
506, 3412327735, 0.69687307, 0.019114353, -0.715047, -0.05206407, 8.306608200073242, -0.05607705935835838, -1.0530937910079956, 29.40277671813965, 58.829280853271484, 26.819292068481445, 
507, 3412344402, 0.69955933, 0.023484698, -0.7125979, -0.047639925, 7.6913323402404785, -0.6759553551673889, -0.3607850968837738, 41.683998107910156, 26.531396865844727, 1.7069345712661743, 
508, 3412361069, 0.6982578, 0.029733762, -0.7137212, -0.046412196, 7.320130825042725, -1.3350424766540527, -0.47697189450263977, 36.94093322753906, -10.083861351013184, -23.623790740966797, 
509, 3412377736, 0.6934402, 0.037935622, -0.7179393, -0.04758944, 6.825811862945557, -1.2200183868408203, -0.9253116250038147, 36.20906448364258, -42.0620231628418, -45.276947021484375, 
510, 3412394403, 0.68615943, 0.04969411, -0.7241267, -0.048544742, 7.563652515411377, -1.2148120403289795, -1.0990206003189087, 55.56657791137695, -62.377742767333984, -62.100860595703125, 
511, 3412411070, 0.6771172, 0.061505035, -0.7314368, -0.05224785, 7.730958938598633, 2.7846930027008057, 3.032874584197998, 43.12862014770508, -77.35460662841797, -75.56647491455078, 
512, 3412427737, 0.66318196, 0.06459996, -0.7428466, -0.06477286, 10.351749420166016, 13.171393394470215, -0.7492456436157227, -38.325687408447266, -127.9742660522461, -72.80979919433594, 
513, 3412444404, 0.6547457, 0.059617553, -0.7487759, -0.08419491, 19.997398376464844, 1.3945907354354858, 2.1100683212280273, -115.25244903564453, -81.56985473632812, -62.83388900756836, 
514, 3412461071, 0.65472263, 0.06372945, -0.74699366, -0.096319035, 19.6553955078125, -5.616876125335693, 5.52968168258667, -44.629302978515625, 4.649694442749023, -75.1195297241211, 
515, 3412477738, 0.6468318, 0.07837509, -0.7522253, -0.09809753, 8.103293418884277, -2.656778335571289, 2.090036392211914, 64.02510070800781, -55.93391036987305, -84.92313385009766, 
516, 3412494405, 0.63400435, 0.0936401, -0.7609485, -0.101130985, 8.579785346984863, 3.333951234817505, -6.0313849449157715, 65.31554412841797, -97.29635620117188, -95.22346496582031, 
517, 3412511072, 0.62575203, 0.104092896, -0.76623106, -0.10241613, 7.960235118865967, 9.748520851135254, -4.280346393585205, 48.128326416015625, -60.517486572265625, -61.443206787109375, 
518, 3412527739, 0.6186515, 0.100579225, -0.7710975, -0.11208414, 12.629477500915527, 12.587725639343262, -2.7128491401672363, -57.22132873535156, -68.45773315429688, -23.325965881347656, 
519, 3412544406, 0.61406755, 0.0906561, -0.7729567, -0.1313027, 24.901174545288086, 6.012762546539307, -3.150465488433838, -139.1691131591797, -53.88433074951172, -29.999942779541016, 
520, 3412561073, 0.6092318, 0.0860216, -0.77453715, -0.14672774, 21.41629409790039, -5.639852046966553, -6.415526866912842, -96.76255798339844, -46.94617462158203, -42.51691818237305, 
521, 3412577740, 0.6008147, 0.08930929, -0.7796919, -0.15207295, 5.773221492767334, -1.828680396080017, -5.245635509490967, -4.222682476043701, -67.02312469482422, -44.139320373535156, 
522, 3412594407, 0.5903909, 0.099114336, -0.78695977, -0.14936306, 1.913291335105896, 6.727283477783203, -7.246758460998535, 69.30008697509766, -74.7041015625, -46.651729583740234, 
523, 3412611074, 0.58359253, 0.11032706, -0.79178756, -0.14254989, 4.284313201904297, 10.443612098693848, -8.221580505371094, 92.22552490234375, -40.85873031616211, -35.484676361083984, 
524, 3412627741, 0.5804613, 0.11653367, -0.79385245, -0.13886428, 8.473017692565918, 9.53972339630127, -6.053717613220215, 49.62033462524414, -17.00078010559082, -19.184608459472656, 
525, 3412644408, 0.5788104, 0.11708851, -0.79482687, -0.13971151, 11.42910385131836, 8.422142028808594, -4.57341194152832, 0.11444402486085892, -13.554620742797852, -5.823666572570801, 
526, 3412661075, 0.57795674, 0.114609055, -0.79524845, -0.14286678, 10.333572387695312, 5.610010623931885, -4.174206733703613, -25.740888595581055, -11.766225814819336, 1.939623236656189, 
527, 3412677742, 0.5775448, 0.11250883, -0.7953285, -0.14572723, 8.223709106445312, 2.617929697036743, -3.2201807498931885, -23.303842544555664, -7.386347770690918, 1.2182387113571167, 
528, 3412694409, 0.5767877, 0.112594806, -0.79587567, -0.14567232, 8.282039642333984, 1.3564108610153198, -2.5097556114196777, 2.0506880283355713, -6.682419300079346, 0.8468905687332153, 
529, 3412711076, 0.5749959, 0.1145067, -0.79726994, -0.14362738, 8.887505531311035, 1.9741134643554688, -2.2637314796447754, 21.824621200561523, -12.33808708190918, -1.6617684364318848, 
530, 3412727743, 0.5727086, 0.11658089, -0.7988571, -0.14227143, 8.953089714050293, 2.643075704574585, -1.8645156621932983, 19.26949691772461, -16.209264755249023, -5.63602352142334, 
531, 3412744410, 0.5702838, 0.11848368, -0.8003363, -0.14212726, 8.8124418258667, 2.0510807037353516, -1.323353886604309, 11.947430610656738, -17.692964553833008, -9.702902793884277, 
532, 3412761077, 0.5671566, 0.12125391, -0.8020914, -0.1424088, 8.946744918823242, 0.617137610912323, -0.8483216166496277, 13.850852966308594, -22.16020965576172, -16.62862777709961, 
533, 3412777744, 0.5627229, 0.12532042, -0.8044989, -0.14289632, 8.921070098876953, 0.3311004936695099, -0.4998544752597809, 19.49302101135254, -30.841859817504883, -25.35342025756836, 
534, 3412794411, 0.5568854, 0.13036634, -0.8076347, -0.14356068, 7.977631092071533, 1.1151299476623535, -0.4144129753112793, 24.22652816772461, -40.64922332763672, -32.24667739868164, 
535, 3412811078, 0.54985374, 0.13560687, -0.81138164, -0.14467812, 7.351833820343018, 2.2782535552978516, -0.6959955096244812, 24.136476516723633, -49.864158630371094, -35.723819732666016, 
536, 3412827745, 0.5420853, 0.1410408, -0.8152779, -0.14687832, 7.773232460021973, 2.1040291786193848, -1.0911939144134521, 19.66225242614746, -55.38483428955078, -41.500431060791016, 
537, 3412844412, 0.5331948, 0.14760166, -0.81949055, -0.14950728, 8.394652366638184, 0.8490056991577148, -1.252983808517456, 22.877519607543945, -62.15522766113281, -50.26181411743164, 
538, 3412861079, 0.52271646, 0.15607615, -0.8243831, -0.15099818, 8.271883010864258, 0.6594398021697998, -1.8823537826538086, 38.61845016479492, -70.49819946289062, -57.85209274291992, 
539, 3412877746, 0.5104888, 0.16636272, -0.8297822, -0.15227088, 8.050662994384766, 0.851672351360321, -1.806420087814331, 48.75388717651367, -80.14798736572266, -68.64473724365234, 
540, 3412894413, 0.4964194, 0.17714114, -0.83569014, -0.15430811, 8.151543617248535, 1.7849280834197998, -1.2502354383468628, 48.75743865966797, -92.8262710571289, -75.51758575439453, 
541, 3412911080, 0.4808022, 0.18769263, -0.8420055, -0.1569322, 6.8970232009887695, 3.819660186767578, -2.163761854171753, 46.93102264404297, -104.1010971069336, -77.39054107666016, 
542, 3412927747, 0.46417356, 0.19749655, -0.8481486, -0.16180937, 5.912859916687012, 4.929750919342041, -3.0429189205169678, 32.546051025390625, -113.12430572509766, -81.82609558105469, 
543, 3412944414, 0.44696882, 0.20673916, -0.85399693, -0.16783135, 6.5864949226379395, 5.328745365142822, -3.9394052028656006, 24.5408992767334, -117.73504638671875, -83.23340606689453, 
544, 3412961081, 0.42898902, 0.2158959, -0.85962737, -0.1743509, 7.921679496765137, 4.297377586364746, -3.7789218425750732, 22.219758987426758, -122.43147277832031, -85.45577239990234, 
545, 3412977748, 0.40947783, 0.22533268, -0.8655252, -0.18005346, 8.31927490234375, 3.709890604019165, -4.814660549163818, 30.47644805908203, -130.74734497070312, -86.15226745605469, 
546, 3412994415, 0.38772282, 0.23567356, -0.87187266, -0.18430175, 9.92229175567627, 2.6683847904205322, -5.16058874130249, 45.705970764160156, -142.01968383789062, -89.539794921875, 
547, 3413011082, 0.36388868, 0.24559774, -0.8783914, -0.18893263, 13.851094245910645, 2.726064682006836, -5.2718892097473145, 45.875328063964844, -156.12982177734375, -90.4588851928711, 
548, 3413027749, 0.3373187, 0.25519648, -0.8855925, -0.19187729, 16.878681182861328, 2.7969226837158203, -6.669566631317139, 60.7401008605957, -172.01634216308594, -86.73973083496094, 
549, 3413044416, 0.30854055, 0.2632416, -0.893413, -0.19318405, 18.2414608001709, 2.8756299018859863, -6.6130757331848145, 71.78043365478516, -186.18032836914062, -75.38589477539062, 
550, 3413061083, 0.2799702, 0.26853877, -0.90116584, -0.19340068, 17.0117244720459, 5.2703471183776855, -7.1826324462890625, 72.15504455566406, -186.56332397460938, -56.119544982910156, 
551, 3413077750, 0.2533361, 0.2711391, -0.90876174, -0.19093679, 11.369257926940918, 7.837067604064941, -8.042186737060547, 79.78025817871094, -173.01963806152344, -32.02067184448242, 
552, 3413094417, 0.23008755, 0.2711058, -0.9162987, -0.1842779, 4.351847171783447, 10.151471138000488, -9.220815658569336, 95.02838134765625, -147.46925354003906, -3.9346914291381836, 
553, 3413111084, 0.21241978, 0.26930836, -0.92295575, -0.17465283, -2.2297394275665283, 13.17623233795166, -13.788612365722656, 99.43852233886719, -107.62654113769531, 17.338159561157227, 
554, 3413127751, 0.20198572, 0.26190206, -0.9279741, -0.17167826, -5.4152631759643555, 17.382986068725586, -12.577197074890137, 33.72397232055664, -78.300048828125, 48.938865661621094, 
555, 3413144418, 0.20042837, 0.24659257, -0.93118984, -0.17862293, -4.283535957336426, 12.965437889099121, -11.901439666748047, -58.551490783691406, -46.248291015625, 92.90328979492188, 
556, 3413161085, 0.20408024, 0.22883756, -0.93164647, -0.19498613, -2.937387228012085, 9.631636619567871, -9.795666694641113, -134.3915557861328, -27.98048973083496, 97.35879516601562, 
557, 3413177752, 0.21165141, 0.21080425, -0.9294132, -0.2166949, -0.3316199481487274, 3.5832486152648926, -7.089637756347656, -178.7696990966797, -7.820010662078857, 92.70245361328125, 
558, 3413194419, 0.22320336, 0.1943339, -0.9266986, -0.23161298, 1.5934169292449951, 0.4948440194129944, -4.291438579559326, -139.59043884277344, 30.521520614624023, 97.83362579345703, 
559, 3413211086, 0.2409155, 0.18064605, -0.92434806, -0.234324, 1.9830355644226074, -0.2506028115749359, -3.6403706073760986, -65.21360778808594, 89.95628356933594, 109.12397003173828, 
560, 3413227753, 0.26277244, 0.17209119, -0.9230979, -0.221868, -0.16823214292526245, -0.02153446525335312, -4.540721893310547, 36.283782958984375, 141.58509826660156, 109.66500854492188, 
561, 3413244420, 0.28707454, 0.16771424, -0.92177427, -0.19948019, -0.5349993705749512, 1.0489168167114258, -4.647799015045166, 103.84486389160156, 175.39434814453125, 104.7546615600586, 
562, 3413261087, 0.31458044, 0.16505466, -0.91856056, -0.17332876, 0.04362326115369797, 2.683668851852417, -5.21934700012207, 124.79165649414062, 206.16717529296875, 103.54025268554688, 
563, 3413277754, 0.34611392, 0.16157734, -0.91192794, -0.14995097, 0.6979957818984985, 4.643509387969971, -6.622359752655029, 96.85045623779297, 234.91526794433594, 103.65474700927734, 
564, 3413294421, 0.38108847, 0.15370639, -0.901571, -0.1353363, 0.6521129012107849, 5.263979434967041, -7.297491550445557, 23.775638580322266, 251.1285400390625, 109.7945556640625, 
565, 3413311088, 0.4152482, 0.13983443, -0.8894434, -0.13002189, 0.6244474649429321, 4.666138648986816, -7.389838695526123, -50.3995361328125, 235.3400421142578, 120.04037475585938, 
566, 3413327755, 0.45010775, 0.121972516, -0.87499696, -0.13002291, 1.6530652046203613, 4.464364051818848, -6.71456241607666, -97.05777740478516, 237.6214599609375, 127.70518493652344, 
567, 3413344422, 0.4849221, 0.10361078, -0.8587207, -0.12928344, 2.5888495445251465, 3.922437906265259, -6.440375328063965, -95.7509765625, 243.23046875, 131.4681396484375, 
568, 3413361089, 0.5180242, 0.086420685, -0.84177583, -0.124884225, 2.426718235015869, 3.7236404418945312, -6.163285255432129, -69.61239624023438, 239.02774047851562, 134.78335571289062, 
569, 3413377756, 0.5480285, 0.07117169, -0.8253176, -0.11597497, 3.3056087493896484, 3.39827036857605, -6.532848358154297, -34.33646774291992, 223.7396240234375, 137.26962280273438, 
570, 3413394423, 0.57587487, 0.056651305, -0.80881566, -0.10476768, 4.8339762687683105, 3.3418843746185303, -6.596531867980957, -17.549285888671875, 213.40159606933594, 140.0802764892578, 
571, 3413411090, 0.6022322, 0.04407896, -0.79167295, -0.092884526, 5.798449516296387, 3.174017906188965, -6.987549781799316, -6.007877826690674, 209.36050415039062, 130.62722778320312, 
572, 3413427757, 0.6262239, 0.03633536, -0.7747207, -0.07957012, 7.214613914489746, 2.762619972229004, -5.545438766479492, 22.641023635864258, 199.2633819580078, 108.82009887695312, 
573, 3413444424, 0.6479111, 0.031978488, -0.75815934, -0.06620656, 9.11513614654541, 2.120492935180664, -3.811331033706665, 38.355308532714844, 187.21292114257812, 89.8259048461914, 
574, 3413461091, 0.66657066, 0.028830092, -0.74296117, -0.053492248, 9.84733772277832, 2.496983051300049, -2.397540807723999, 41.56392288208008, 165.7755126953125, 79.56109619140625, 
575, 3413477758, 0.6806332, 0.024306893, -0.73083794, -0.044986077, 9.709160804748535, 3.042689800262451, -2.2146403789520264, 15.877640724182129, 126.86375427246094, 66.22027587890625, 
576, 3413494425, 0.6905925, 0.019140579, -0.7218473, -0.04064996, 8.926557540893555, 2.334872007369995, -1.9030096530914307, -6.941796779632568, 90.68482208251953, 49.20132064819336, 
577, 3413511092, 0.69733155, 0.015948799, -0.7155464, -0.038310494, 7.683895111083984, -0.2047543078660965, -0.4845205545425415, -5.89536714553833, 62.24100112915039, 29.395740509033203, 
578, 3413527759, 0.699772, 0.015721105, -0.7131529, -0.038535405, 6.259439945220947, -2.0523746013641357, 0.9921784996986389, -2.8274104595184326, 22.85735321044922, 1.8033549785614014, 
579, 3413544426, 0.69768465, 0.018738538, -0.71496576, -0.04134154, 5.284932613372803, -1.753468632698059, 0.6786940693855286, 1.5679899454116821, -19.018674850463867, -27.312076568603516, 
580, 3413561093, 0.69259495, 0.027195197, -0.7194221, -0.04477583, 6.444892406463623, -2.9887619018554688, 0.37344732880592346, 25.900802612304688, -44.999935150146484, -57.592018127441406, 
581, 3413577760, 0.6836193, 0.045544498, -0.72686356, -0.04753889, 6.152227401733398, 1.0900801420211792, 3.1155385971069336, 77.98500061035156, -75.276611328125, -104.01713562011719, 
582, 3413594427, 0.664899, 0.056448583, -0.742113, -0.06317818, 12.161049842834473, 5.412758827209473, -1.6183857917785645, -15.771714210510254, -167.1980743408203, -128.0819854736328, 
583, 3413611094, 0.65772206, 0.061623, -0.74689925, -0.07580104, 25.841032028198242, -6.13972282409668, 4.586236953735352, -35.64539337158203, -61.76809310913086, -84.04827880859375, 
584, 3413627761, 0.65520585, 0.06762319, -0.7477805, -0.08340706, 15.45827579498291, 0.36761945486068726, 8.114039421081543, -10.153327941894531, -17.702781677246094, -64.93968200683594, 
585, 3413644428, 0.6420918, 0.07419098, -0.7573986, -0.09252643, 11.10739517211914, 1.5021207332611084, 1.393012523651123, -5.427134037017822, -112.04151916503906, -76.72726440429688, 
586, 3413661095, 0.6278278, 0.078448586, -0.7668664, -0.10767596, 14.589988708496094, 4.206120014190674, -6.1985368728637695, -46.469818115234375, -121.93759155273438, -92.14676666259766, 
587, 3413677762, 0.61966896, 0.08172168, -0.77139974, -0.11947621, 12.165777206420898, 3.843520402908325, -3.307624578475952, -39.97758102416992, -67.32038116455078, -70.6341323852539, 
588, 3413694429, 0.6093765, 0.08298513, -0.7777042, -0.13019225, 14.595168113708496, 2.7534570693969727, -4.587191104888916, -40.09560012817383, -87.2074203491211, -56.117088317871094, 
589, 3413711096, 0.59804106, 0.08741129, -0.7842596, -0.14015394, 17.531566619873047, 3.841827630996704, -7.817091941833496, -22.00568389892578, -90.56239318847656, -70.67774963378906, 
590, 3413727763, 0.58731914, 0.095031075, -0.79015785, -0.147228, 9.172880172729492, 6.026932239532471, -8.714624404907227, 5.763993740081787, -79.6818618774414, -75.86553192138672, 
591, 3413744430, 0.57856613, 0.10465169, -0.7954484, -0.14687084, 4.206113815307617, 7.883560657501221, -8.049179077148438, 52.06611633300781, -59.659358978271484, -55.0567741394043, 
592, 3413761097, 0.57191044, 0.113528185, -0.7995678, -0.14394867, 4.60032844543457, 9.866945266723633, -7.682587146759033, 60.77485275268555, -42.263668060302734, -39.53528594970703, 
593, 3413777764, 0.5672934, 0.11948555, -0.80233973, -0.14195965, 6.523377418518066, 9.80542278289795, -8.03536605834961, 40.85063552856445, -29.44207763671875, -26.020299911499023, 
594, 3413794431, 0.5651874, 0.12081046, -0.803557, -0.1423525, 9.27866268157959, 8.040534973144531, -6.539190769195557, 6.072874546051025, -15.948779106140137, -8.522239685058594, 
595, 3413811098, 0.56438786, 0.11927934, -0.8038853, -0.1449391, 10.998719215393066, 5.255893707275391, -4.626553058624268, -19.332178115844727, -9.947463989257812, -0.6245923042297363, 
596, 3413827765, 0.56304145, 0.11840493, -0.8046086, -0.14686602, 9.391386032104492, 3.071117877960205, -3.7454512119293213, -11.377429008483887, -12.999136924743652, -2.1653637886047363, 
597, 3413844432, 0.56088686, 0.119650766, -0.8060812, -0.14602317, 8.215535163879395, 2.476755142211914, -2.5735654830932617, 13.138304710388184, -16.11878776550293, -3.2712459564208984, 
598, 3413861099, 0.5585048, 0.12179908, -0.80782825, -0.14370418, 8.590721130371094, 2.9972221851348877, -1.73668372631073, 25.244043350219727, -16.329120635986328, -2.5910916328430176, 
599, 3413877766, 0.5556219, 0.123895176, -0.8098537, -0.1416734, 8.689712524414062, 3.31733775138855, -1.7265840768814087, 25.735706329345703, -19.95184326171875, -4.155547618865967, 
600, 3413894433, 0.5524556, 0.12550257, -0.8118593, -0.14116108, 8.17015552520752, 3.1091549396514893, -2.0263397693634033, 14.003802299499512, -23.792203903198242, -7.047264099121094, 
601, 3413911100, 0.54900104, 0.12635918, -0.8138632, -0.14233093, 8.094558715820312, 2.0476744174957275, -1.778306007385254, 1.9401100873947144, -27.612545013427734, -9.510970115661621, 
602, 3413927767, 0.54488975, 0.1273248, -0.8161077, -0.14440238, 8.29286003112793, 1.1311607360839844, -1.1232852935791016, -2.2302486896514893, -33.00800323486328, -13.860785484313965, 
603, 3413944434, 0.53952813, 0.12903109, -0.81896585, -0.14681695, 7.878664493560791, 1.25795578956604, -0.9674924612045288, 0.7194597721099854, -41.77492141723633, -20.158164978027344, 
604, 3413961101, 0.5330489, 0.1316238, -0.82234776, -0.14925905, 7.558095932006836, 1.7474365234375, -1.3713083267211914, 5.3388261795043945, -49.175865173339844, -25.925506591796875, 
605, 3413977768, 0.52575266, 0.13494866, -0.82596076, -0.15219148, 8.138182640075684, 1.7030019760131836, -1.2177915573120117, 6.640435695648193, -54.20161819458008, -32.660648345947266, 
606, 3413994435, 0.5173185, 0.13950408, -0.8299991, -0.1549901, 8.30324935913086, 1.6973925828933716, -1.6759378910064697, 12.813338279724121, -61.01567077636719, -39.7784423828125, 
607, 3414011102, 0.50765353, 0.14540848, -0.83446735, -0.15750779, 7.625125885009766, 1.6796283721923828, -2.1610190868377686, 20.749067306518555, -67.92691802978516, -47.35171890258789, 
608, 3414027769, 0.49671668, 0.15202872, -0.8392707, -0.16057661, 7.5507636070251465, 1.7958531379699707, -1.897261619567871, 21.988201141357422, -76.07878875732422, -54.5590705871582, 
609, 3414044436, 0.48477066, 0.15934014, -0.8441035, -0.164613, 7.83256721496582, 1.958604335784912, -1.1249598264694214, 19.49769401550293, -82.42766571044922, -62.78525161743164, 
610, 3414061103, 0.47141868, 0.16745007, -0.84915173, -0.16931234, 6.6814656257629395, 2.836219310760498, -1.7839558124542236, 20.269163131713867, -91.0848388671875, -71.08329772949219, 
611, 3414077770, 0.4569327, 0.17650491, -0.8542826, -0.17395431, 5.233639240264893, 3.7322425842285156, -2.6132640838623047, 25.015539169311523, -96.86317443847656, -77.61002349853516, 
612, 3414094437, 0.44142482, 0.18596484, -0.8593559, -0.17907771, 5.978692054748535, 4.622603893280029, -2.409787654876709, 25.074729919433594, -102.56952667236328, -83.04695129394531, 
613, 3414111104, 0.42439187, 0.19561529, -0.864671, -0.18431012, 7.186415672302246, 4.900652885437012, -3.234112501144409, 26.946367263793945, -112.40956115722656, -85.8707275390625, 
614, 3414127771, 0.40604088, 0.20492402, -0.87014955, -0.1896751, 7.840579509735107, 4.536271095275879, -3.320934772491455, 27.31316375732422, -121.25900268554688, -85.79136657714844, 
615, 3414144438, 0.38554257, 0.21420117, -0.8761436, -0.19454361, 7.85926628112793, 4.807402610778809, -4.720597267150879, 34.06167984008789, -134.80877685546875, -86.43351745605469, 
616, 3414161105, 0.36331603, 0.22369412, -0.88194674, -0.20033078, 9.633177757263184, 4.293972015380859, -4.525027751922607, 31.07079315185547, -146.01651000976562, -92.50621795654297, 
617, 3414177772, 0.33897966, 0.23364823, -0.88791096, -0.20522077, 11.249027252197266, 4.821673393249512, -5.285072326660156, 41.17678451538086, -157.21009826660156, -95.78186798095703, 
618, 3414194439, 0.31120476, 0.24390465, -0.8948697, -0.20705199, 12.174296379089355, 6.374733924865723, -6.6230692863464355, 67.52745056152344, -175.2071990966797, -93.82386779785156, 
619, 3414211106, 0.2817267, 0.25168428, -0.9021925, -0.20816876, 13.428236961364746, 7.3059868812561035, -8.034226417541504, 70.12106323242188, -188.7469024658203, -79.05107879638672, 
620, 3414227773, 0.2530172, 0.25618708, -0.9092699, -0.20875584, 13.583847999572754, 7.506557941436768, -9.338784217834473, 65.2833023071289, -187.4342041015625, -56.922462463378906, 
621, 3414244440, 0.2262599, 0.25821322, -0.9161295, -0.206976, 11.050252914428711, 6.567281246185303, -9.674302101135254, 72.02523040771484, -174.30160522460938, -34.939109802246094, 
622, 3414261107, 0.20272984, 0.25714767, -0.9230719, -0.20177715, 7.435548305511475, 5.907169818878174, -9.069330215454102, 83.14604187011719, -152.47328186035156, -5.454651355743408, 
623, 3414277774, 0.18326788, 0.2532992, -0.9305552, -0.19057694, 3.4929301738739014, 8.54875373840332, -10.2103853225708, 110.90714263916016, -120.69620513916016, 27.16832160949707, 
624, 3414294441, 0.17152801, 0.24721512, -0.9373899, -0.17539465, 0.827430009841919, 10.120366096496582, -13.31762409210205, 119.27855682373047, -66.47329711914062, 55.50186538696289, 
625, 3414311108, 0.17185956, 0.23762089, -0.9407842, -0.1700756, -0.6537199020385742, 10.735808372497559, -13.398158073425293, 26.922067642211914, -5.5851922035217285, 75.22116088867188, 
626, 3414327775, 0.181747, 0.22285542, -0.9404467, -0.18128261, -2.685229539871216, 7.563598155975342, -10.679381370544434, -106.014404296875, 27.64927101135254, 94.2049789428711, 
627, 3414344442, 0.19740786, 0.20430873, -0.93813664, -0.1979595, -4.744720935821533, 4.256355285644531, -7.683025360107422, -157.43032836914062, 54.38868713378906, 116.0706787109375, 
628, 3414361109, 0.2195084, 0.18322764, -0.93586504, -0.20591371, -2.363264322280884, 3.602550506591797, -8.965544700622559, -113.59793853759766, 104.74874877929688, 153.1085662841797, 
629, 3414377776, 0.24744588, 0.16206023, -0.93256617, -0.20694812, -0.631123960018158, 2.3036751747131348, -8.433453559875488, -78.02647399902344, 152.5067596435547, 171.11595153808594, 
630, 3414394443, 0.277513, 0.14301509, -0.9280319, -0.20319998, -0.8477149605751038, 2.7103970050811768, -8.541794776916504, -47.90196990966797, 176.6494140625, 167.31871032714844, 
631, 3414411110, 0.3082549, 0.12759805, -0.9226944, -0.19321659, -2.176995038986206, 3.4330849647521973, -9.233076095581055, -2.9952139854431152, 193.72799682617188, 156.24270629882812, 
632, 3414427777, 0.33689314, 0.11414877, -0.9171437, -0.17977951, -1.7527581453323364, 3.2505741119384766, -10.284934997558594, 24.631711959838867, 186.531005859375, 148.1295166015625, 
633, 3414444444, 0.36237767, 0.09987662, -0.9109701, -0.16982579, 0.5755205750465393, 3.3252711296081543, -10.038412094116211, 2.4345757961273193, 164.3881072998047, 140.89048767089844, 
634, 3414461111, 0.38597125, 0.08452644, -0.90377957, -0.16451114, 1.7224242687225342, 5.598470211029053, -8.850199699401855, -29.21974754333496, 150.68235778808594, 133.19798278808594, 
635, 3414477778, 0.4069699, 0.070792906, -0.8967166, -0.15894501, 3.6319355964660645, 7.090163707733154, -7.711488723754883, -21.709440231323242, 136.2308807373047, 120.98553466796875, 
636, 3414494445, 0.42605627, 0.05782207, -0.88956654, -0.15428586, 5.097733020782471, 6.501844882965088, -7.752603054046631, -24.313135147094727, 125.0998306274414, 111.64797973632812, 
637, 3414511112, 0.44212538, 0.043686356, -0.88240695, -0.15483814, 4.866687774658203, 4.451402187347412, -8.454960823059082, -58.398460388183594, 103.3826904296875, 100.33184051513672, 
