sep=,
DeviceTag:,L Upper Leg - 6,,,,,,,,,,,,,,,,,
FirmwareVersion:,3.0.0,,,,,,,,,,,,,,,,,
AppVersion:,2023.6.1,,,,,,,,,,,,,,,,,
StartTime:,2024-05-23 12:04:51.000 +0200,,,,,,,,,,,,,,,,,
 2024,,,,,,,,,,,,,,,,,,,

PacketCounter,SampleTimeFine,Quat_W,Quat_X,Quat_Y,Quat_Z,Acc_X,Acc_Y,Acc_Z,Gyr_X,Gyr_Y,Gyr_Z,
0, 3422455822, 0.37936655, 0.5919947, -0.4459455, 0.5538555, 0.0, 0.0, 0.0, 0.0, 0.0, 0.0, 
1, 3422472489, 0.37921596, 0.5921279, -0.44604933, 0.55373263, 9.869012832641602, -0.45195984840393066, -1.0084391832351685, 2.464447498321533, -2.514629602432251, 0.20757173001766205, 
2, 3422489156, 0.37888736, 0.5923932, -0.4463502, 0.5534314, 9.829816818237305, -0.4652180075645447, -1.0024244785308838, 2.6915171146392822, -2.5318284034729004, 0.23766665160655975, 
3, 3422505823, 0.37841693, 0.5927095, -0.44654945, 0.5532537, 9.799856185913086, -0.45696160197257996, -0.9827526211738586, 2.3960230350494385, -2.575676679611206, -0.050328951328992844, 
4, 3422522490, 0.3780398, 0.59298277, -0.44663018, 0.5531536, 9.817487716674805, -0.4471668004989624, -0.9718780517578125, 2.181055784225464, -2.7021141052246094, -0.1668795347213745, 
5, 3422539157, 0.37786546, 0.5931251, -0.44674316, 0.5530289, 9.859702110290527, -0.44383591413497925, -0.9967477917671204, 2.313960313796997, -2.7101824283599854, -0.10569081455469131, 
6, 3422555824, 0.37797403, 0.59307104, -0.44712493, 0.5527041, 9.875386238098145, -0.44982367753982544, -1.0078668594360352, 2.6451964378356934, -2.754390239715576, -0.06713090091943741, 
7, 3422572491, 0.37757027, 0.5934236, -0.44696537, 0.55273074, 9.837182998657227, -0.4440382421016693, -0.9941816926002502, 2.6373720169067383, -2.6212806701660156, 0.04724902659654617, 
8, 3422589158, 0.37741718, 0.59362805, -0.44698244, 0.5526021, 9.83858585357666, -0.4056786000728607, -0.963726818561554, 1.9953508377075195, -2.5411384105682373, -0.2720964848995209, 
9, 3422605825, 0.37733656, 0.5938274, -0.4469619, 0.5524593, 9.847283363342285, -0.378456711769104, -0.9419561624526978, 1.8169586658477783, -2.529343843460083, -0.41244131326675415, 
10, 3422622492, 0.3774509, 0.59392035, -0.44704044, 0.55221784, 9.847132682800293, -0.38715243339538574, -0.9990830421447754, 1.9253257513046265, -2.5397934913635254, -0.5693830847740173, 
11, 3422639159, 0.37742528, 0.5941353, -0.44697598, 0.5520564, 9.835819244384766, -0.41689449548721313, -0.9675414562225342, 1.7862234115600586, -2.4838688373565674, -0.5181705355644226, 
12, 3422655826, 0.377504, 0.5943015, -0.44698164, 0.55181867, 9.834729194641113, -0.44610849022865295, -0.9320715069770813, 1.1527059078216553, -2.5124523639678955, -0.8411338329315186, 
13, 3422672493, 0.3774671, 0.59451425, -0.446927, 0.55165905, 9.83924674987793, -0.4564308822154999, -0.9732258319854736, 1.3853974342346191, -2.6593539714813232, -0.7121995687484741, 
14, 3422689160, 0.37738717, 0.5947336, -0.4468496, 0.5515403, 9.844544410705566, -0.46546614170074463, -0.9445116519927979, 1.7417341470718384, -2.5323145389556885, -0.7402326464653015, 
15, 3422705827, 0.37726927, 0.59494627, -0.4467197, 0.5514967, 9.843642234802246, -0.44677481055259705, -0.9777610301971436, 1.8131420612335205, -2.1853654384613037, -0.6981637477874756, 
16, 3422722494, 0.37718368, 0.5951277, -0.4466541, 0.55141246, 9.844389915466309, -0.46237650513648987, -0.956264853477478, 2.0580894947052, -2.271437168121338, -0.7263250350952148, 
17, 3422739161, 0.3770503, 0.59533477, -0.4465868, 0.55133474, 9.837818145751953, -0.4925606846809387, -1.0035041570663452, 2.730243444442749, -2.4882864952087402, -0.7418846487998962, 
18, 3422755828, 0.37694633, 0.59548646, -0.4466317, 0.55120564, 9.828455924987793, -0.5039239525794983, -0.9800283908843994, 2.8208744525909424, -2.6290414333343506, -0.5769133567810059, 
19, 3422772495, 0.37669268, 0.5957311, -0.44658062, 0.5511559, 9.834549903869629, -0.49288055300712585, -0.9617878794670105, 3.051426649093628, -2.7739322185516357, -0.4522818326950073, 
20, 3422789162, 0.37635767, 0.59602296, -0.44646165, 0.55116564, 9.820956230163574, -0.47246238589286804, -0.9710955023765564, 3.3444101810455322, -2.7495875358581543, -0.4055770933628082, 
21, 3422805829, 0.3760956, 0.5962424, -0.44644153, 0.55112356, 9.84956169128418, -0.43649548292160034, -0.9722574353218079, 3.8831989765167236, -2.7677087783813477, -0.37626340985298157, 
22, 3422822496, 0.37576783, 0.59650046, -0.4463643, 0.5511304, 9.849024772644043, -0.3732300400733948, -0.9605762958526611, 3.891753911972046, -2.721566915512085, -0.2389921098947525, 
23, 3422839163, 0.3755948, 0.59666574, -0.446397, 0.5510431, 9.87235164642334, -0.3621307611465454, -0.9546020030975342, 3.036827802658081, -2.5953097343444824, -0.31842994689941406, 
24, 3422855830, 0.37541813, 0.59687465, -0.4463683, 0.5509603, 9.840771675109863, -0.34040921926498413, -0.993824303150177, 2.341890573501587, -2.5524332523345947, -0.4737708568572998, 
25, 3422872497, 0.37523225, 0.59712374, -0.44631, 0.55086434, 9.831930160522461, -0.3688262403011322, -0.9994451403617859, 1.8707194328308105, -2.647225856781006, -0.5559876561164856, 
26, 3422889164, 0.3750332, 0.5973979, -0.44621858, 0.5507768, 9.834331512451172, -0.4086802303791046, -0.9949120283126831, 1.6325600147247314, -2.606950521469116, -0.596583902835846, 
27, 3422905831, 0.3750828, 0.5974538, -0.44639575, 0.55053866, 9.833902359008789, -0.4293982982635498, -0.9932333827018738, 1.901147484779358, -2.4493424892425537, -0.5255342125892639, 
28, 3422922498, 0.37487057, 0.59770274, -0.44630915, 0.5504831, 9.838142395019531, -0.4613703489303589, -0.9901952147483826, 2.577117681503296, -2.4290058612823486, -0.4749106466770172, 
29, 3422939165, 0.3746888, 0.5979091, -0.4462487, 0.5504319, 9.818882942199707, -0.4530000686645508, -0.9697816967964172, 2.9214296340942383, -2.2388830184936523, -0.4479789435863495, 
30, 3422955832, 0.37450284, 0.5981383, -0.44616345, 0.55037856, 9.858025550842285, -0.4151017665863037, -0.9566218852996826, 2.5708298683166504, -2.261319398880005, -0.573212206363678, 
31, 3422972499, 0.37435696, 0.59833574, -0.4461009, 0.5503139, 9.844733238220215, -0.4022184908390045, -0.9970600605010986, 2.37302303314209, -2.1387760639190674, -0.5796154141426086, 
32, 3422989166, 0.37406546, 0.59868425, -0.44586426, 0.5503249, 9.849442481994629, -0.36067357659339905, -0.9687391519546509, 2.787449359893799, -2.3197550773620605, -0.8367028832435608, 
33, 3423005833, 0.3738089, 0.5989772, -0.44567633, 0.5503324, 9.840882301330566, -0.3747992515563965, -0.9678013324737549, 3.2211368083953857, -2.18107533454895, -0.6847684383392334, 
34, 3423022500, 0.37355027, 0.5992723, -0.44547975, 0.55034584, 9.851154327392578, -0.3628281354904175, -0.9788717031478882, 3.381587505340576, -2.1539127826690674, -0.6994701027870178, 
35, 3423039167, 0.37333244, 0.5995189, -0.44535884, 0.5503231, 9.850044250488281, -0.36165502667427063, -0.9710738062858582, 2.918753147125244, -2.1940736770629883, -0.4961307942867279, 
36, 3423055834, 0.37315217, 0.5997418, -0.4452809, 0.55026567, 9.865523338317871, -0.3586370348930359, -0.9254798889160156, 2.5985684394836426, -2.248692274093628, -0.4820566177368164, 
37, 3423072501, 0.3729404, 0.59995735, -0.44519806, 0.55024123, 9.878621101379395, -0.37488695979118347, -0.9698249697685242, 3.0086276531219482, -2.1942782402038574, -0.28435218334198, 
38, 3423089168, 0.37278607, 0.6001045, -0.44517982, 0.55020016, 9.841547966003418, -0.3687213957309723, -0.9700286388397217, 3.201734781265259, -2.030740976333618, -0.1689157485961914, 
39, 3423105835, 0.37262294, 0.60027474, -0.44512105, 0.55017245, 9.83073902130127, -0.35355618596076965, -0.9482411742210388, 2.885456085205078, -1.9582573175430298, -0.2621331512928009, 
40, 3423122502, 0.37242493, 0.6004821, -0.4450326, 0.5501519, 9.847749710083008, -0.33678263425827026, -0.9472054243087769, 2.971245765686035, -2.0923523902893066, -0.3056619465351105, 
41, 3423139169, 0.37230226, 0.6006526, -0.44500554, 0.55007064, 9.864273071289062, -0.3441038131713867, -0.9644505977630615, 2.5214035511016846, -2.1500132083892822, -0.41032183170318604, 
42, 3423155836, 0.3721425, 0.60085845, -0.44492045, 0.55002284, 9.846254348754883, -0.3492463231086731, -0.9438438415527344, 2.023793935775757, -2.0657284259796143, -0.39665108919143677, 
43, 3423172503, 0.37204015, 0.601017, -0.4449188, 0.5499202, 9.869680404663086, -0.36040183901786804, -0.9464012980461121, 1.9248775243759155, -2.1865177154541016, -0.34724417328834534, 
44, 3423189170, 0.37186658, 0.601197, -0.44487444, 0.54987663, 9.868968963623047, -0.35583099722862244, -0.9561528563499451, 2.6498706340789795, -2.1383657455444336, -0.17022199928760529, 
45, 3423205837, 0.37163383, 0.60142297, -0.44473147, 0.5499027, 9.84758472442627, -0.3586227595806122, -0.927096426486969, 3.2101871967315674, -1.9385998249053955, -0.26880529522895813, 
46, 3423222504, 0.37143007, 0.6016158, -0.44462207, 0.5499178, 9.844801902770996, -0.347342312335968, -0.9444384574890137, 3.0531551837921143, -1.8720577955245972, -0.18865033984184265, 
47, 3423239171, 0.3712502, 0.60181636, -0.4444911, 0.5499256, 9.844532012939453, -0.31218212842941284, -0.9653555154800415, 2.825906991958618, -1.7982163429260254, -0.3820902705192566, 
48, 3423255838, 0.37115854, 0.6019533, -0.4444547, 0.5498671, 9.845535278320312, -0.28914013504981995, -0.9509915709495544, 2.5668725967407227, -1.837583065032959, -0.3884293735027313, 
49, 3423272505, 0.3710287, 0.6021263, -0.44439945, 0.5498099, 9.851005554199219, -0.27160564064979553, -0.9399688839912415, 2.2657060623168945, -2.012134075164795, -0.3381516933441162, 
50, 3423289172, 0.37094802, 0.60225976, -0.4443906, 0.5497251, 9.872188568115234, -0.26497069001197815, -0.9270886182785034, 1.7739421129226685, -1.9508041143417358, -0.2740558981895447, 
51, 3423305839, 0.37082648, 0.60240537, -0.44435877, 0.54967326, 9.86695384979248, -0.2944982051849365, -0.9149320721626282, 1.6607081890106201, -1.9140371084213257, -0.09152697771787643, 
52, 3423322506, 0.3708947, 0.60240364, -0.4445132, 0.5495045, 9.842382431030273, -0.325397253036499, -0.906860888004303, 1.4860424995422363, -1.8315643072128296, -0.12522050738334656, 
53, 3423339173, 0.3708793, 0.60247284, -0.44456705, 0.5493953, 9.814127922058105, -0.3295401334762573, -0.8960018754005432, 1.0305333137512207, -1.7963210344314575, -0.10191293060779572, 
54, 3423355840, 0.3708275, 0.6025549, -0.444604, 0.54931045, 9.83485221862793, -0.32392212748527527, -0.8974151611328125, 1.072282075881958, -1.811791181564331, 0.02303222194314003, 
55, 3423372507, 0.37077177, 0.6026089, -0.4446873, 0.5492214, 9.813803672790527, -0.32237985730171204, -0.9127628207206726, 1.0461699962615967, -1.8707388639450073, 0.2788902819156647, 
56, 3423389174, 0.37079653, 0.60258865, -0.44479588, 0.549139, 9.841653823852539, -0.3575393259525299, -0.946183979511261, 0.5191630721092224, -1.3910001516342163, 0.31632325053215027, 
57, 3423405841, 0.3708353, 0.6025585, -0.444968, 0.54900646, 9.845077514648438, -0.3831552267074585, -0.9023467898368835, 0.037509799003601074, -1.68288254737854, 0.4242359697818756, 
58, 3423422508, 0.37090072, 0.60248256, -0.44523588, 0.5488284, 9.836909294128418, -0.4090408980846405, -0.917462170124054, -0.182477667927742, -1.8908318281173706, 0.6738252639770508, 
59, 3423439175, 0.37089062, 0.60245204, -0.44546273, 0.54868454, 9.84542179107666, -0.4339878559112549, -0.9046610593795776, 0.06598471850156784, -2.035684823989868, 0.7783507704734802, 
60, 3423455842, 0.37082994, 0.6024612, -0.44561115, 0.5485951, 9.846620559692383, -0.4417107105255127, -0.911128044128418, 0.7225791215896606, -1.9183273315429688, 0.6618001461029053, 
61, 3423472509, 0.37065318, 0.6025683, -0.44564733, 0.54856735, 9.859124183654785, -0.4195043742656708, -0.8852971196174622, 1.6901755332946777, -2.0917890071868896, 0.5240294337272644, 
62, 3423489176, 0.37043747, 0.6027177, -0.44563457, 0.5485594, 9.868435859680176, -0.374561071395874, -0.8689834475517273, 2.4992167949676514, -2.188758611679077, 0.3426531255245209, 
63, 3423505843, 0.37023455, 0.60287493, -0.44555974, 0.5485845, 9.858841896057129, -0.33624476194381714, -0.8472813963890076, 3.0911905765533447, -1.9104512929916382, 0.05946628376841545, 
64, 3423522510, 0.3700063, 0.6030885, -0.445403, 0.54863095, 9.82351016998291, -0.3186195194721222, -0.8518114686012268, 3.2323806285858154, -1.898464560508728, -0.23901772499084473, 
65, 3423539177, 0.36977953, 0.6033235, -0.4452532, 0.5486469, 9.849498748779297, -0.3268001675605774, -0.8397254943847656, 3.4895572662353516, -2.1473045349121094, -0.395011842250824, 
66, 3423555844, 0.36949396, 0.6035773, -0.44505194, 0.5487237, 9.874896049499512, -0.3282468020915985, -0.861175537109375, 4.059478759765625, -2.026041269302368, -0.2725319564342499, 
67, 3423572511, 0.36919987, 0.60384476, -0.44483298, 0.54880494, 9.848620414733887, -0.3249818682670593, -0.8288074135780334, 4.1664886474609375, -2.0502071380615234, -0.3334261476993561, 
68, 3423589178, 0.3689951, 0.60404915, -0.44471154, 0.54881614, 9.828254699707031, -0.32857081294059753, -0.8488718867301941, 3.197291612625122, -2.1010358333587646, -0.26518112421035767, 
69, 3423605845, 0.3688387, 0.60418636, -0.44469842, 0.5487806, 9.826339721679688, -0.3148181736469269, -0.9031848311424255, 2.5440263748168945, -2.193394660949707, 0.05791671574115753, 
70, 3423622512, 0.36868638, 0.60430115, -0.44475082, 0.5487143, 9.803939819335938, -0.2946552634239197, -0.8837655782699585, 2.0822930335998535, -2.395799160003662, 0.3155164420604706, 
71, 3423639179, 0.36858007, 0.6043703, -0.44488472, 0.54860115, 9.84992790222168, -0.3014887273311615, -0.8355594873428345, 1.5697320699691772, -2.504640579223633, 0.4762873947620392, 
72, 3423655846, 0.36843714, 0.6044451, -0.4450316, 0.5484954, 9.852396011352539, -0.3243252635002136, -0.835752010345459, 1.4976450204849243, -2.6452157497406006, 0.7029341459274292, 
73, 3423672513, 0.36825988, 0.6045379, -0.44514382, 0.5484212, 9.833520889282227, -0.3523910343647003, -0.8415773510932922, 1.777156114578247, -2.611060857772827, 0.7321581840515137, 
74, 3423689180, 0.36809924, 0.6046383, -0.44526768, 0.54831797, 9.846938133239746, -0.3652941584587097, -0.8052018880844116, 1.5730808973312378, -2.752058982849121, 0.6243223547935486, 
75, 3423705847, 0.3679254, 0.6047447, -0.44537064, 0.54823357, 9.863675117492676, -0.36558786034584045, -0.8298349380493164, 1.7418491840362549, -2.703484296798706, 0.6196416020393372, 
76, 3423722514, 0.36768055, 0.60488534, -0.4454289, 0.54819524, 9.839996337890625, -0.34883102774620056, -0.8371291756629944, 2.3965227603912354, -2.7603960037231445, 0.7175334095954895, 
77, 3423739181, 0.36745042, 0.605004, -0.44552958, 0.5481366, 9.847676277160645, -0.32109251618385315, -0.8048592209815979, 2.17110538482666, -2.844597816467285, 0.8404103517532349, 
78, 3423755848, 0.3672335, 0.60514635, -0.44562724, 0.5480455, 9.870920181274414, -0.3159816265106201, -0.8098782300949097, 2.208961009979248, -3.046631097793579, 0.6126238703727722, 
79, 3423772515, 0.3669741, 0.6053191, -0.44566736, 0.5479961, 9.834491729736328, -0.2981734871864319, -0.8158170580863953, 2.4700443744659424, -2.977041244506836, 0.5939265489578247, 
80, 3423789182, 0.3666752, 0.6054988, -0.445697, 0.54797316, 9.818973541259766, -0.3274790942668915, -0.8263546824455261, 2.741948366165161, -3.0050995349884033, 0.7554017305374146, 
81, 3423805849, 0.3663632, 0.6056567, -0.445778, 0.5479416, 9.826472282409668, -0.3323618769645691, -0.866386890411377, 2.8138177394866943, -3.158302068710327, 1.0290862321853638, 
82, 3423822516, 0.3661062, 0.60577875, -0.44592404, 0.5478597, 9.843421936035156, -0.3511829078197479, -0.867507815361023, 2.1606428623199463, -3.2466533184051514, 1.0712960958480835, 
83, 3423839183, 0.36579037, 0.60593456, -0.44604748, 0.5477976, 9.835453987121582, -0.36650410294532776, -0.8873973488807678, 2.405910015106201, -3.4190139770507812, 1.1766026020050049, 
84, 3423855850, 0.36545825, 0.606098, -0.44617468, 0.5477353, 9.826484680175781, -0.35108137130737305, -0.8914587497711182, 2.666160821914673, -3.5295584201812744, 1.2057756185531616, 
85, 3423872517, 0.36513785, 0.60625285, -0.44632253, 0.54765695, 9.852941513061523, -0.3606773614883423, -0.8861311078071594, 2.307755470275879, -3.585848093032837, 1.2582494020462036, 
86, 3423889184, 0.36479706, 0.606408, -0.4464742, 0.5475889, 9.851462364196777, -0.35998037457466125, -0.9029784798622131, 2.4311513900756836, -3.6333158016204834, 1.374845027923584, 
87, 3423905851, 0.36441192, 0.60659367, -0.44656146, 0.5475682, 9.836799621582031, -0.3707980513572693, -0.909869909286499, 3.1244101524353027, -3.540290117263794, 1.2949717044830322, 
88, 3423922518, 0.36399007, 0.6067799, -0.44665456, 0.5475668, 9.850284576416016, -0.3619781732559204, -0.9215128421783447, 3.3843533992767334, -3.608099937438965, 1.4964412450790405, 
89, 3423939185, 0.36359277, 0.60694903, -0.44674024, 0.54757327, 9.85180950164795, -0.36363789439201355, -0.918860912322998, 3.0851967334747314, -3.419320821762085, 1.477231740951538, 
90, 3423955852, 0.3632604, 0.60709405, -0.44687998, 0.54751915, 9.823729515075684, -0.3396575450897217, -0.8934565186500549, 2.352186918258667, -3.5304031372070312, 1.3870365619659424, 
91, 3423972519, 0.3629157, 0.6072384, -0.44705623, 0.5474438, 9.87186336517334, -0.35832369327545166, -0.9216288924217224, 2.2355856895446777, -3.7646193504333496, 1.533579707145691, 
92, 3423989186, 0.36254454, 0.6073818, -0.4472027, 0.5474111, 9.863001823425293, -0.38407379388809204, -0.9090096950531006, 2.6871376037597656, -3.6099441051483154, 1.6104307174682617, 
93, 3424005853, 0.36222076, 0.6075048, -0.44735375, 0.5473654, 9.834023475646973, -0.3695700466632843, -0.8712509870529175, 2.4750256538391113, -3.4748752117156982, 1.470534086227417, 
94, 3424022520, 0.3619413, 0.607609, -0.44754955, 0.5472745, 9.828950881958008, -0.3182222545146942, -0.8498021364212036, 2.093287467956543, -3.5960874557495117, 1.417855143547058, 
95, 3424039187, 0.36168787, 0.6076922, -0.44774643, 0.5471886, 9.87734603881836, -0.3192301094532013, -0.8623127937316895, 1.8133021593093872, -3.4346821308135986, 1.4281256198883057, 
96, 3424055854, 0.36147106, 0.6077526, -0.4479742, 0.5470784, 9.83508586883545, -0.3252561092376709, -0.9354435801506042, 1.5675742626190186, -3.444671392440796, 1.4158574342727661, 
97, 3424072521, 0.36134577, 0.6077618, -0.4482564, 0.5469197, 9.844478607177734, -0.36929723620414734, -0.9496384859085083, 0.7575404644012451, -3.3271028995513916, 1.3368998765945435, 
98, 3424089188, 0.36120358, 0.60781014, -0.44850627, 0.5467549, 9.860511779785156, -0.4036444425582886, -0.9362771511077881, 0.6632215976715088, -3.4682412147521973, 1.1858232021331787, 
99, 3424105855, 0.36106098, 0.60788155, -0.4487148, 0.5465987, 9.851787567138672, -0.4283027648925781, -0.9359367489814758, 0.8908161520957947, -3.434138298034668, 0.96865314245224, 
100, 3424122522, 0.36093357, 0.6079586, -0.44889554, 0.54644895, 9.851089477539062, -0.43727585673332214, -0.9162188172340393, 1.177178978919983, -3.3407411575317383, 0.7635850310325623, 
101, 3424139189, 0.36076, 0.60808736, -0.44898486, 0.5463467, 9.860302925109863, -0.43041542172431946, -0.9252646565437317, 1.734780192375183, -3.258089303970337, 0.5508843660354614, 
102, 3424155856, 0.36055914, 0.6082382, -0.44902933, 0.5462747, 9.854342460632324, -0.4199654757976532, -0.9409816861152649, 2.3472697734832764, -3.215482711791992, 0.44628217816352844, 
103, 3424172523, 0.36035204, 0.60840684, -0.44901285, 0.54623705, 9.81766128540039, -0.42098844051361084, -0.9139673709869385, 2.9381415843963623, -3.0342342853546143, 0.22172275185585022, 
104, 3424189190, 0.36009967, 0.6085715, -0.44900587, 0.5462257, 9.862414360046387, -0.3771529495716095, -0.8840851783752441, 3.051900625228882, -3.0872268676757812, 0.526872456073761, 
105, 3424205857, 0.35991108, 0.608712, -0.44902468, 0.54617834, 9.87501335144043, -0.3357287347316742, -0.9011070132255554, 2.5293376445770264, -3.037717819213867, 0.38424816727638245, 
106, 3424222524, 0.35973406, 0.6088506, -0.44905046, 0.54611933, 9.822137832641602, -0.34824812412261963, -0.9727393388748169, 2.5120365619659424, -3.086855888366699, 0.3423842191696167, 
107, 3424239191, 0.35957015, 0.6089776, -0.4491309, 0.5460193, 9.83113956451416, -0.36731454730033875, -0.9143421053886414, 1.897984504699707, -3.316371202468872, 0.49381932616233826, 
108, 3424255858, 0.35934737, 0.6091057, -0.44922045, 0.5459495, 9.820716857910156, -0.39339959621429443, -0.9467707872390747, 2.178584098815918, -3.4165546894073486, 0.8339174389839172, 
109, 3424272525, 0.3590948, 0.6092483, -0.44929013, 0.54589933, 9.81285285949707, -0.39996466040611267, -0.9167364239692688, 2.4658689498901367, -3.451323986053467, 0.8724517822265625, 
110, 3424289192, 0.35890445, 0.60936093, -0.4493902, 0.5458163, 9.844646453857422, -0.3800104856491089, -0.8884700536727905, 2.196218490600586, -3.3947837352752686, 0.740571916103363, 
111, 3424305859, 0.35871366, 0.60948676, -0.44948027, 0.545727, 9.844923973083496, -0.34497565031051636, -0.8982278108596802, 2.081601619720459, -3.462721586227417, 0.6733001470565796, 
112, 3424322526, 0.35854414, 0.609605, -0.44958666, 0.54561865, 9.865540504455566, -0.34772253036499023, -0.9237983226776123, 1.9247883558273315, -3.5162529945373535, 0.6369431614875793, 
113, 3424339193, 0.35838175, 0.60971063, -0.4496858, 0.5455257, 9.852398872375488, -0.3672555983066559, -0.9548317193984985, 2.008131980895996, -3.3895342350006104, 0.6539883017539978, 
114, 3424355860, 0.35819912, 0.6098483, -0.44974598, 0.5454421, 9.840458869934082, -0.38490206003189087, -0.9614838361740112, 2.1673402786254883, -3.4467649459838867, 0.525143563747406, 
115, 3424372527, 0.35799488, 0.6100116, -0.4497942, 0.54535383, 9.864617347717285, -0.4060670733451843, -0.9443943500518799, 2.309234380722046, -3.6175119876861572, 0.4769020676612854, 
116, 3424389194, 0.35776436, 0.6101894, -0.44979936, 0.54530215, 9.831313133239746, -0.40587982535362244, -0.985912561416626, 2.8109686374664307, -3.518404483795166, 0.4323040246963501, 
117, 3424405861, 0.35755503, 0.61035407, -0.44981545, 0.5452419, 9.819443702697754, -0.43805214762687683, -0.959751546382904, 2.7449963092803955, -3.4923300743103027, 0.40393149852752686, 
118, 3424422528, 0.3573889, 0.6104972, -0.44986138, 0.5451525, 9.838977813720703, -0.43820303678512573, -0.9362749457359314, 2.2860162258148193, -3.4915101528167725, 0.3668570816516876, 
119, 3424439195, 0.35713708, 0.61067873, -0.44986454, 0.5451114, 9.855198860168457, -0.41198107600212097, -0.9712961912155151, 2.8726887702941895, -3.605935573577881, 0.5385774970054626, 
120, 3424455862, 0.35682186, 0.61086774, -0.44982263, 0.5451409, 9.843820571899414, -0.42475426197052, -0.9914397597312927, 3.6964826583862305, -3.4507737159729004, 0.7175333499908447, 
121, 3424472529, 0.35654327, 0.6110377, -0.44977826, 0.54516923, 9.832432746887207, -0.389469176530838, -0.9499037861824036, 3.46829891204834, -3.2826266288757324, 0.635393500328064, 
122, 3424489196, 0.3562948, 0.6111874, -0.44979233, 0.5451521, 9.858717918395996, -0.3619900643825531, -0.9469106197357178, 2.976522445678711, -3.4712893962860107, 0.718686044216156, 
123, 3424505863, 0.3560187, 0.611348, -0.4498055, 0.54514176, 9.82483959197998, -0.3701704442501068, -1.0187638998031616, 3.1400399208068848, -3.5898053646087646, 0.8109236359596252, 
124, 3424522530, 0.35574633, 0.6114898, -0.44982976, 0.5451404, 9.842674255371094, -0.39050599932670593, -1.0112905502319336, 3.120453357696533, -3.5178794860839844, 0.9213977456092834, 
125, 3424539197, 0.35553697, 0.6116077, -0.44987938, 0.54510385, 9.850847244262695, -0.3900277614593506, -0.9652127623558044, 2.5534262657165527, -3.4587390422821045, 0.7927706837654114, 
126, 3424555864, 0.3553439, 0.6117186, -0.44995287, 0.54504466, 9.853710174560547, -0.37739863991737366, -0.9653083086013794, 2.38310170173645, -3.5616254806518555, 0.7934494018554688, 
127, 3424572531, 0.3551187, 0.6118416, -0.44998905, 0.54502344, 9.875458717346191, -0.36491671204566956, -1.0059062242507935, 2.8119866847991943, -3.477961540222168, 0.8181145787239075, 
128, 3424589198, 0.35488722, 0.6119507, -0.4499941, 0.5450474, 9.886483192443848, -0.3831966519355774, -0.9762521982192993, 3.1506378650665283, -3.2042901515960693, 0.8594022393226624, 
129, 3424605865, 0.35467213, 0.6120312, -0.44996142, 0.5451242, 9.8590669631958, -0.4091659486293793, -1.0324040651321411, 3.087578773498535, -2.7407126426696777, 0.8989098072052002, 
130, 3424622532, 0.35455993, 0.61197567, -0.44986415, 0.54533964, 9.825860977172852, -0.4123765826225281, -1.0139126777648926, 3.1316583156585693, -1.1967277526855469, 0.986325740814209, 
131, 3424639199, 0.35423547, 0.61208695, -0.44993144, 0.5453703, 9.777695655822754, -0.37964344024658203, -0.8976584672927856, 3.315032958984375, -3.6803531646728516, 1.5018328428268433, 
132, 3424655866, 0.35384998, 0.61223304, -0.44997597, 0.5454199, 9.83582592010498, -0.40376216173171997, -0.9885237216949463, 3.643451690673828, -3.881284475326538, 1.6061404943466187, 
133, 3424672533, 0.3535643, 0.612374, -0.45008826, 0.54535425, 9.83057689666748, -0.4308299720287323, -0.9899600744247437, 2.640957832336426, -4.225161075592041, 1.2525700330734253, 
134, 3424689200, 0.35328823, 0.61250824, -0.45014098, 0.54533863, 9.815505981445312, -0.4463717043399811, -1.0159004926681519, 2.9456334114074707, -3.8340933322906494, 1.1152089834213257, 
135, 3424705867, 0.3529955, 0.6126186, -0.45017767, 0.5453739, 9.853496551513672, -0.40822866559028625, -1.0106208324432373, 3.233705997467041, -3.565870523452759, 1.3021752834320068, 
136, 3424722534, 0.35265228, 0.6127412, -0.45021313, 0.54542905, 9.870142936706543, -0.3708094656467438, -0.9988560676574707, 3.457836151123047, -3.696092128753662, 1.5170340538024902, 
137, 3424739201, 0.3523362, 0.61277026, -0.45020097, 0.5456107, 9.853930473327637, -0.4028485417366028, -1.0809214115142822, 3.7919797897338867, -2.639299154281616, 1.803716778755188, 
138, 3424755868, 0.35204688, 0.6127937, -0.45029038, 0.54569733, 9.816353797912598, -0.4375218152999878, -1.031278371810913, 3.0845694541931152, -3.2033419609069824, 1.912724494934082, 
139, 3424772535, 0.3518415, 0.612799, -0.45044172, 0.54569894, 9.826542854309082, -0.43832001090049744, -0.9974886775016785, 2.08756947517395, -3.394847869873047, 1.729631781578064, 
140, 3424789202, 0.3516256, 0.61280036, -0.45059305, 0.54571164, 9.833674430847168, -0.4134868383407593, -1.0036810636520386, 2.168902635574341, -3.3882529735565186, 1.8117974996566772, 
141, 3424805869, 0.3513538, 0.6128198, -0.45069352, 0.54578197, 9.843815803527832, -0.42896053194999695, -1.032750129699707, 2.8224620819091797, -3.282869815826416, 1.8970880508422852, 
142, 3424822536, 0.35106918, 0.61282676, -0.4507717, 0.54589266, 9.840665817260742, -0.4310850203037262, -1.0352104902267456, 3.207350015640259, -3.080106258392334, 1.9698342084884644, 
143, 3424839203, 0.3508208, 0.6128263, -0.4508566, 0.54598284, 9.84071159362793, -0.44101300835609436, -1.0247068405151367, 2.7101054191589355, -3.045574188232422, 1.880561351776123, 
144, 3424855870, 0.35059333, 0.6128027, -0.45097667, 0.5460562, 9.857809066772461, -0.4442255198955536, -1.0274417400360107, 2.4900918006896973, -3.076385974884033, 1.9708075523376465, 
145, 3424872537, 0.35032085, 0.61280304, -0.45103192, 0.5461848, 9.855113983154297, -0.45131710171699524, -1.0872406959533691, 3.0101394653320312, -2.926302671432495, 1.9551777839660645, 
146, 3424889204, 0.35013226, 0.61275953, -0.4511266, 0.54627645, 9.83226203918457, -0.4542744755744934, -1.038143277168274, 2.3825507164001465, -2.773010015487671, 1.8444535732269287, 
147, 3424905871, 0.3500032, 0.6127405, -0.45120022, 0.54631966, 9.871515274047852, -0.4572293758392334, -1.010359287261963, 1.9482239484786987, -2.8388988971710205, 1.373397946357727, 
148, 3424922538, 0.3498492, 0.6127772, -0.45120925, 0.54636997, 9.853011131286621, -0.4560708701610565, -0.9887483716011047, 2.7236990928649902, -2.978846311569214, 1.0020776987075806, 
149, 3424939205, 0.3496405, 0.6128642, -0.45110917, 0.5464886, 9.898080825805664, -0.43352746963500977, -0.9801947474479675, 3.71059513092041, -2.807485342025757, 0.7615488767623901, 
150, 3424955872, 0.3493991, 0.6129542, -0.45095795, 0.5466666, 9.920083045959473, -0.4911780059337616, -0.9928120970726013, 4.112854957580566, -2.561128854751587, 0.8297809958457947, 
151, 3424972539, 0.3491337, 0.6130638, -0.45074573, 0.5468884, 9.832168579101562, -0.5856447219848633, -0.9905778169631958, 4.601891994476318, -2.396017074584961, 0.71739262342453, 
152, 3424989206, 0.34878686, 0.61319727, -0.45048553, 0.5471746, 9.845434188842773, -0.6144059896469116, -1.0041029453277588, 5.5700578689575195, -2.384075164794922, 0.8717795014381409, 
153, 3425005873, 0.3483076, 0.61336344, -0.4500978, 0.5476124, 9.825787544250488, -0.5564374923706055, -1.0034608840942383, 6.9817214012146, -1.9782482385635376, 1.1210486888885498, 
154, 3425022540, 0.34781453, 0.6135405, -0.44970247, 0.54805195, 9.808428764343262, -0.4653141498565674, -1.0214508771896362, 7.250911712646484, -2.0628726482391357, 1.091619849205017, 
155, 3425039207, 0.3474237, 0.61370564, -0.44935372, 0.54840094, 9.8069429397583, -0.38813498616218567, -1.0284991264343262, 6.284819602966309, -2.209319591522217, 0.7401558756828308, 
156, 3425055874, 0.34707284, 0.6138662, -0.44906127, 0.5486829, 9.828532218933105, -0.3465636670589447, -1.0064961910247803, 5.580405235290527, -2.492800712585449, 0.7127245664596558, 
157, 3425072541, 0.34680524, 0.61396366, -0.44884732, 0.5489178, 9.825005531311035, -0.3376939594745636, -1.001030445098877, 4.845410346984863, -2.4148101806640625, 0.7939680218696594, 
158, 3425089208, 0.3466401, 0.61399615, -0.4487046, 0.5491026, 9.831060409545898, -0.35392823815345764, -0.958429217338562, 3.8596608638763428, -2.2527265548706055, 0.8018503785133362, 
159, 3425105875, 0.3465599, 0.61399406, -0.44860438, 0.5492373, 9.847264289855957, -0.33908191323280334, -0.9519720673561096, 2.9830281734466553, -2.1840333938598633, 0.6817524433135986, 
160, 3425122542, 0.3465619, 0.61399263, -0.4485124, 0.54931295, 9.850489616394043, -0.34812721610069275, -0.9763597249984741, 2.465510129928589, -2.223156690597534, 0.27101436257362366, 
161, 3425139209, 0.34653512, 0.6140256, -0.44836843, 0.54941046, 9.860869407653809, -0.3514871299266815, -0.9753079414367676, 2.991454601287842, -2.2477707862854004, 0.11138322949409485, 
162, 3425155876, 0.3465237, 0.6140402, -0.44821984, 0.5495225, 9.849146842956543, -0.38571617007255554, -0.9736500382423401, 2.9939773082733154, -2.0771260261535645, 0.13205267488956451, 
163, 3425172543, 0.346561, 0.6140342, -0.44809344, 0.54960895, 9.841432571411133, -0.4017051160335541, -0.9737415313720703, 2.412755012512207, -2.0172884464263916, 0.08037266135215759, 
164, 3425189210, 0.3466362, 0.6140015, -0.44801864, 0.549659, 9.845381736755371, -0.41700124740600586, -0.9976449608802795, 2.0924232006073, -2.1063501834869385, 0.12855654954910278, 
165, 3425205877, 0.34668493, 0.6139748, -0.44791535, 0.5497423, 9.822286605834961, -0.3985026478767395, -0.9821274876594543, 2.227447032928467, -2.002445936203003, 0.20939664542675018, 
166, 3425222544, 0.34682664, 0.61391884, -0.44788802, 0.5497375, 9.829627990722656, -0.38307034969329834, -0.9458214044570923, 1.3308230638504028, -2.1812992095947266, 0.049394089728593826, 
167, 3425239211, 0.346997, 0.6138616, -0.44788104, 0.5496995, 9.837947845458984, -0.40083497762680054, -0.9571502208709717, 0.9321678876876831, -2.2885332107543945, -0.0232051070779562, 
168, 3425255878, 0.3471524, 0.61380786, -0.44784206, 0.5496933, 9.861726760864258, -0.4170683026313782, -0.9709076881408691, 1.3029627799987793, -2.1571013927459717, -0.040109485387802124, 
169, 3425272545, 0.34731025, 0.6137512, -0.4477951, 0.54969513, 9.844799041748047, -0.46777358651161194, -0.9905565977096558, 1.3882145881652832, -2.1039037704467773, -0.055003270506858826, 
170, 3425289212, 0.3474987, 0.61369795, -0.44773918, 0.54968107, 9.871456146240234, -0.4658990204334259, -0.9933846592903137, 1.2581024169921875, -2.082146167755127, -0.2524771988391876, 
171, 3425305879, 0.34765062, 0.61367285, -0.44764104, 0.54969287, 9.864445686340332, -0.4298678934574127, -0.9527285099029541, 1.567478060722351, -2.0937740802764893, -0.29021748900413513, 
172, 3425322546, 0.34778932, 0.61365473, -0.44749624, 0.5497433, 9.869627952575684, -0.39625781774520874, -0.9510087370872498, 2.230879068374634, -1.9206898212432861, -0.40459737181663513, 
173, 3425339213, 0.3479087, 0.6136649, -0.44732568, 0.5497951, 9.8449125289917, -0.3686528205871582, -0.9435914158821106, 2.3006479740142822, -2.02158522605896, -0.4885239005088806, 
174, 3425355880, 0.3480674, 0.613665, -0.4471629, 0.54982716, 9.854616165161133, -0.3534923493862152, -0.9319776892662048, 2.2009758949279785, -1.9907280206680298, -0.6375576853752136, 
175, 3425372547, 0.3482215, 0.6136754, -0.44705692, 0.5498039, 9.876954078674316, -0.39951178431510925, -0.9361330270767212, 1.8089739084243774, -2.4248311519622803, -0.5260336399078369, 
176, 3425389214, 0.348413, 0.6136794, -0.44699323, 0.54973006, 9.877787590026855, -0.41386649012565613, -0.9691301584243774, 1.2179031372070312, -2.6075007915496826, -0.5682048797607422, 
177, 3425405881, 0.34870052, 0.61367506, -0.44700652, 0.54954183, 9.800904273986816, -0.3925502896308899, -0.9837351441383362, 0.22532132267951965, -2.9645681381225586, -0.8603306412696838, 
178, 3425422548, 0.3490911, 0.61367136, -0.44708848, 0.54923093, 9.834619522094727, -0.3528853952884674, -0.99845951795578, -0.6393699049949646, -3.355558395385742, -1.282351016998291, 
179, 3425439215, 0.34939474, 0.61372757, -0.44709, 0.54897386, 9.859606742858887, -0.3502948582172394, -0.988895058631897, 0.18996299803256989, -3.4290411472320557, -1.3185673952102661, 
180, 3425455882, 0.3495575, 0.6138207, -0.446972, 0.54886234, 9.86525821685791, -0.3559768497943878, -0.9509050846099854, 1.6390271186828613, -3.1015827655792236, -1.0256733894348145, 
181, 3425472549, 0.34962955, 0.6138713, -0.44684744, 0.5488611, 9.79459285736084, -0.4203753173351288, -0.9946480989456177, 2.648693084716797, -2.773343563079834, -0.3649938404560089, 
182, 3425489216, 0.34978962, 0.6138208, -0.44691446, 0.54876125, 9.77892017364502, -0.491955041885376, -0.8733552098274231, 0.7877122759819031, -2.9941248893737793, 0.22296495735645294, 
183, 3425505883, 0.35005948, 0.6136434, -0.44717845, 0.5485723, 9.78496265411377, -0.592229425907135, -0.846673309803009, -0.9572489857673645, -3.0456955432891846, 0.8069216012954712, 
184, 3425522550, 0.350265, 0.6134312, -0.44739035, 0.5485057, 9.790446281433105, -0.6634901165962219, -0.9048524498939514, -0.21750305593013763, -2.4875693321228027, 1.2254846096038818, 
185, 3425539217, 0.35017335, 0.6133443, -0.4473836, 0.54866695, 9.80868148803711, -0.6587335467338562, -0.9721031188964844, 2.8822102546691895, -2.4032976627349854, 1.5731706619262695, 
186, 3425555884, 0.3499055, 0.6133359, -0.447229, 0.54897314, 9.874739646911621, -0.5681862831115723, -1.0393480062484741, 4.863851547241211, -2.2863690853118896, 1.706523060798645, 
187, 3425572551, 0.34960952, 0.6133711, -0.4469375, 0.54935974, 9.871973991394043, -0.46737557649612427, -0.9734959006309509, 5.682254314422607, -1.8658788204193115, 1.3174147605895996, 
188, 3425589218, 0.3493938, 0.6134116, -0.44669464, 0.54964936, 9.83071517944336, -0.3578875958919525, -0.9579847455024719, 5.060640811920166, -2.18636417388916, 0.945883572101593, 
189, 3425605885, 0.3492537, 0.6134271, -0.44652632, 0.5498576, 9.83595085144043, -0.3420807719230652, -0.9284034371376038, 4.0388994216918945, -2.3842992782592773, 0.8815060257911682, 
190, 3425622552, 0.34929037, 0.6133181, -0.44651705, 0.54996353, 9.833834648132324, -0.3375087380409241, -0.8964017629623413, 2.2736520767211914, -2.2075841426849365, 1.0019176006317139, 
191, 3425639219, 0.34934494, 0.61319405, -0.44653916, 0.55004925, 9.837484359741211, -0.44204023480415344, -0.9499011039733887, 1.9076788425445557, -2.2647008895874023, 1.0831164121627808, 
192, 3425655886, 0.349297, 0.61310905, -0.4465242, 0.5501866, 9.829652786254883, -0.5401061177253723, -0.9085084199905396, 2.7382538318634033, -2.4298322200775146, 1.3213976621627808, 
193, 3425672553, 0.34924707, 0.6130337, -0.4465247, 0.5503017, 9.83876895904541, -0.5868512392044067, -0.9192661046981812, 2.629124641418457, -2.6148900985717773, 1.3106340169906616, 
194, 3425689220, 0.34916833, 0.6129496, -0.44650906, 0.55045795, 9.833892822265625, -0.5531782507896423, -0.9363847970962524, 3.0132508277893066, -2.473956346511841, 1.4590338468551636, 
195, 3425705887, 0.349065, 0.61286914, -0.4464737, 0.55064166, 9.798328399658203, -0.5016217231750488, -0.9763287901878357, 3.259939670562744, -2.408989906311035, 1.5243719816207886, 
196, 3425722554, 0.34893745, 0.6127913, -0.44646743, 0.5508143, 9.825831413269043, -0.4675942659378052, -0.9819756746292114, 3.224606990814209, -2.616785764694214, 1.7043907642364502, 
197, 3425739221, 0.34883046, 0.61268246, -0.44652915, 0.55095315, 9.85411262512207, -0.4684012830257416, -0.9629364013671875, 2.6504404544830322, -2.744791030883789, 1.9373829364776611, 
198, 3425755888, 0.34873414, 0.61254954, -0.44660667, 0.5510989, 9.846480369567871, -0.48472824692726135, -0.9507739543914795, 2.5349655151367188, -2.6386778354644775, 2.05340838432312, 
199, 3425772555, 0.34865078, 0.6123988, -0.44668457, 0.5512561, 9.812444686889648, -0.5358052849769592, -0.8974701762199402, 2.450322389602661, -2.4914374351501465, 2.0930893421173096, 
200, 3425789222, 0.34859103, 0.6122485, -0.4467219, 0.55143046, 9.81672477722168, -0.5094021558761597, -0.914075493812561, 2.645933151245117, -2.266538619995117, 1.858368158340454, 
201, 3425805889, 0.34854788, 0.61212754, -0.44676793, 0.55155474, 9.833340644836426, -0.5042417645454407, -0.9708763957023621, 2.6122076511383057, -2.578700065612793, 1.6003777980804443, 
202, 3425822556, 0.34850842, 0.6120045, -0.4467847, 0.55170256, 9.854060173034668, -0.4632755517959595, -0.9872664213180542, 2.6437113285064697, -2.38703989982605, 1.5466423034667969, 
203, 3425839223, 0.34851497, 0.6118558, -0.44682217, 0.5518332, 9.871109962463379, -0.4586661756038666, -0.9650270938873291, 2.3453361988067627, -2.2818868160247803, 1.4870158433914185, 
204, 3425855890, 0.34851018, 0.61171407, -0.44688034, 0.55194634, 9.854854583740234, -0.4744599461555481, -1.0069555044174194, 2.2678704261779785, -2.4709341526031494, 1.5601656436920166, 
205, 3425872557, 0.34856665, 0.6115698, -0.4469381, 0.5520237, 9.831730842590332, -0.47283217310905457, -0.9687545895576477, 1.819833517074585, -2.421725273132324, 1.2622066736221313, 
206, 3425889224, 0.34860265, 0.6114375, -0.44697857, 0.5521148, 9.84438419342041, -0.453849196434021, -0.9321435689926147, 1.9768649339675903, -2.4305105209350586, 1.276472806930542, 
207, 3425905891, 0.34866863, 0.6113142, -0.4469646, 0.55222106, 9.854607582092285, -0.43166810274124146, -0.888885498046875, 2.0632951259613037, -2.1814146041870117, 0.9562117457389832, 
208, 3425922558, 0.3486741, 0.611255, -0.44688088, 0.5523507, 9.85309886932373, -0.4093293845653534, -0.9466539025306702, 2.8489136695861816, -2.3565542697906494, 0.750618577003479, 
209, 3425939225, 0.34873784, 0.6111927, -0.4467848, 0.55245703, 9.863554954528809, -0.4166105389595032, -0.9288525581359863, 2.670379877090454, -2.245189905166626, 0.4244920611381531, 
210, 3425955892, 0.34885132, 0.6111232, -0.44666964, 0.5525556, 9.826783180236816, -0.418666273355484, -0.8945353031158447, 2.392456293106079, -2.051954984664917, 0.17955780029296875, 
211, 3425972559, 0.34890777, 0.6110863, -0.4465392, 0.5526661, 9.849027633666992, -0.41329246759414673, -0.9496557116508484, 2.6355016231536865, -2.259181022644043, 0.2915813624858856, 
212, 3425989226, 0.349046, 0.6109845, -0.44648457, 0.5527354, 9.819411277770996, -0.46178892254829407, -0.9331142902374268, 2.1720662117004395, -2.1501991748809814, 0.34171825647354126, 
213, 3426005893, 0.34915212, 0.61090446, -0.44645184, 0.5527834, 9.845256805419922, -0.4964294135570526, -0.9275993704795837, 1.8281513452529907, -2.451570987701416, 0.49544569849967957, 
214, 3426022560, 0.3492935, 0.61079407, -0.44644326, 0.5528228, 9.82969856262207, -0.5239656567573547, -0.9047983288764954, 1.7974354028701782, -2.347512722015381, 0.49242979288101196, 
215, 3426039227, 0.3494241, 0.6107149, -0.446402, 0.5528613, 9.827016830444336, -0.5444716215133667, -0.9017230868339539, 1.9313961267471313, -2.42387056350708, 0.3138132095336914, 
216, 3426055894, 0.34947252, 0.6106918, -0.44629538, 0.5529423, 9.856449127197266, -0.5348289012908936, -0.8703073263168335, 2.7197422981262207, -2.5527536869049072, 0.29078736901283264, 
217, 3426072561, 0.34950227, 0.61063963, -0.4462054, 0.5530535, 9.844135284423828, -0.529927134513855, -0.876061737537384, 3.0167219638824463, -2.4367542266845703, 0.5567241311073303, 
218, 3426089228, 0.34951147, 0.6105899, -0.4461222, 0.55316967, 9.82934284210205, -0.5386859178543091, -0.8708212971687317, 2.8770554065704346, -2.496188163757324, 0.6980549693107605, 
219, 3426105895, 0.3494854, 0.6105679, -0.44604108, 0.55327576, 9.81959056854248, -0.5268825888633728, -0.8633801937103271, 2.989027500152588, -2.7596850395202637, 0.7407960891723633, 
220, 3426122562, 0.34950933, 0.61050904, -0.4460094, 0.5533513, 9.802724838256836, -0.527980625629425, -0.8673591017723083, 2.694648504257202, -2.7374026775360107, 0.757073163986206, 
221, 3426139229, 0.34957024, 0.6104256, -0.44600385, 0.55340946, 9.823139190673828, -0.5267575979232788, -0.8875332474708557, 2.2554354667663574, -2.668433666229248, 0.7699114680290222, 
222, 3426155896, 0.34961367, 0.6103425, -0.44601372, 0.55346566, 9.858948707580566, -0.5343758463859558, -0.8968653082847595, 2.2045044898986816, -2.768476724624634, 0.9029565453529358, 
223, 3426172563, 0.34961393, 0.6103124, -0.44596922, 0.5535345, 9.858842849731445, -0.5535202026367188, -0.9012470841407776, 2.6683249473571777, -2.9173126220703125, 0.7200435400009155, 
224, 3426189230, 0.34954977, 0.6103161, -0.44588834, 0.553636, 9.825045585632324, -0.5677629113197327, -0.9081796407699585, 3.195216178894043, -3.0183796882629395, 0.7941665053367615, 
225, 3426205897, 0.34949142, 0.6103091, -0.44579977, 0.5537518, 9.81690502166748, -0.5601449608802795, -0.8912538290023804, 3.3912112712860107, -2.8965532779693604, 0.7817509174346924, 
226, 3426222564, 0.34937704, 0.6103398, -0.44567037, 0.5538946, 9.832942962646484, -0.5465911030769348, -0.8972566723823547, 3.80216646194458, -2.9926834106445312, 0.7936093807220459, 
227, 3426239231, 0.34920353, 0.6104026, -0.44547734, 0.55409, 9.850857734680176, -0.5136404037475586, -0.9297362565994263, 4.317238807678223, -2.9119529724121094, 0.8094509840011597, 
228, 3426255898, 0.349089, 0.6104271, -0.44534442, 0.55424184, 9.829084396362305, -0.49428653717041016, -0.8987747430801392, 3.94020676612854, -2.9367969036102295, 0.8058267831802368, 
229, 3426272565, 0.34896284, 0.6104602, -0.44522542, 0.5543805, 9.815170288085938, -0.4744473397731781, -0.8921119570732117, 3.741208791732788, -3.084697723388672, 0.8767995834350586, 
230, 3426289232, 0.34887514, 0.6104765, -0.44516236, 0.5544684, 9.827425003051758, -0.48043137788772583, -0.9406596422195435, 3.270716428756714, -3.2606124877929688, 0.8832541108131409, 
231, 3426305899, 0.34883693, 0.610457, -0.44514397, 0.55452865, 9.822837829589844, -0.4986576735973358, -0.9548471570014954, 2.8221991062164307, -3.201683521270752, 0.9150648713111877, 
232, 3426322566, 0.34884337, 0.61042124, -0.44516164, 0.55454975, 9.839749336242676, -0.5066355466842651, -0.9198408722877502, 2.3464176654815674, -3.2552523612976074, 0.8518142700195312, 
233, 3426339233, 0.3488482, 0.6103991, -0.44515526, 0.5545763, 9.834071159362793, -0.502632737159729, -0.895087480545044, 2.3851375579833984, -3.226559638977051, 0.744183361530304, 
234, 3426355900, 0.34883544, 0.61037534, -0.44515482, 0.5546107, 9.846587181091309, -0.4816132187843323, -0.8880802392959595, 2.8023366928100586, -3.2802371978759766, 0.813510537147522, 
235, 3426372567, 0.34874365, 0.610369, -0.4451037, 0.5547164, 9.82712459564209, -0.4888020157814026, -0.9303948283195496, 3.368307590484619, -3.1574060916900635, 1.0525861978530884, 
236, 3426389234, 0.3486955, 0.61032784, -0.44508615, 0.5548063, 9.799468994140625, -0.47502362728118896, -0.9519094824790955, 2.98966121673584, -3.0420584678649902, 1.0879569053649902, 
237, 3426405901, 0.34875956, 0.6102524, -0.44513062, 0.55481315, 9.817437171936035, -0.4857423007488251, -0.9314693808555603, 1.9296799898147583, -3.063880443572998, 0.8309592008590698, 
238, 3426422568, 0.34879354, 0.6101952, -0.4451927, 0.55480486, 9.860053062438965, -0.5117670297622681, -0.9598916172981262, 1.8796840906143188, -3.3259246349334717, 0.9447308778762817, 
239, 3426439235, 0.34878042, 0.6101316, -0.44522306, 0.5548588, 9.832860946655273, -0.5588139891624451, -1.0061800479888916, 2.429255723953247, -3.111238479614258, 1.1521680355072021, 
240, 3426455902, 0.34879744, 0.61003774, -0.44530848, 0.55488276, 9.862977981567383, -0.5640765428543091, -0.9921993017196655, 2.0976741313934326, -3.1698153018951416, 1.2643007040023804, 
241, 3426472569, 0.34889305, 0.60991806, -0.44541323, 0.5548701, 9.83273696899414, -0.5275976657867432, -0.9101299047470093, 1.3126314878463745, -3.0161256790161133, 1.0639835596084595, 
242, 3426489236, 0.3489308, 0.6098368, -0.4454761, 0.5548852, 9.802838325500488, -0.5374398231506348, -0.9413489699363708, 1.824584722518921, -3.119915008544922, 1.0668714046478271, 
243, 3426505903, 0.34895185, 0.609741, -0.44556403, 0.55490667, 9.86813735961914, -0.535477876663208, -0.9415282011032104, 2.089766263961792, -3.169809103012085, 1.2515519857406616, 
244, 3426522570, 0.3489282, 0.6096198, -0.44562995, 0.5550017, 9.859474182128906, -0.5673374533653259, -0.9766937494277954, 2.239433765411377, -2.830216884613037, 1.6241400241851807, 
245, 3426539237, 0.34892532, 0.60946566, -0.4457455, 0.5550802, 9.804082870483398, -0.6044193506240845, -1.0001484155654907, 1.9895628690719604, -2.838630199432373, 1.7916277647018433, 
246, 3426555904, 0.3489013, 0.6093185, -0.44583887, 0.5551816, 9.795233726501465, -0.5821807980537415, -0.993206262588501, 2.0649027824401855, -2.7653398513793945, 1.8347212076187134, 
247, 3426572571, 0.34878656, 0.60921454, -0.4459318, 0.5552931, 9.782222747802734, -0.5702621936798096, -1.0002031326293945, 2.5767531394958496, -3.1629958152770996, 2.0700440406799316, 
248, 3426589238, 0.34869668, 0.60903716, -0.44611725, 0.5553951, 9.807190895080566, -0.5469526052474976, -0.9361696839332581, 2.176516056060791, -3.0838587284088135, 2.527768850326538, 
249, 3426605905, 0.34859344, 0.60884094, -0.44631052, 0.5555199, 9.813067436218262, -0.519420862197876, -0.9331704378128052, 1.9723507165908813, -2.9596498012542725, 2.7585325241088867, 
250, 3426622572, 0.34840396, 0.6086824, -0.4464774, 0.55567837, 9.848642349243164, -0.5031350255012512, -0.9615942239761353, 2.526315450668335, -3.1575722694396973, 2.9586830139160156, 
251, 3426639239, 0.3482286, 0.6084875, -0.44665325, 0.5558603, 9.854950904846191, -0.4619911313056946, -0.9236239194869995, 2.4755828380584717, -2.9027321338653564, 3.10428524017334, 
252, 3426655906, 0.34819353, 0.6082062, -0.4469271, 0.5559702, 9.857449531555176, -0.4189755618572235, -0.9295284748077393, 1.2001341581344604, -2.6874701976776123, 3.0595779418945312, 
253, 3426672573, 0.34825402, 0.6079108, -0.44726086, 0.5559869, 9.886030197143555, -0.37739598751068115, -0.945044755935669, 0.09452368319034576, -2.86319899559021, 2.793398141860962, 
254, 3426689240, 0.3483687, 0.60762864, -0.44760492, 0.55594647, 9.877224922180176, -0.3898879885673523, -0.9997693300247192, -0.038060471415519714, -3.03132700920105, 2.421149253845215, 
255, 3426705907, 0.3485317, 0.6073642, -0.44789922, 0.5558964, 9.861757278442383, -0.4281078279018402, -0.9670981168746948, 0.05520176887512207, -2.8755502700805664, 1.9462385177612305, 
256, 3426722574, 0.3487488, 0.60714006, -0.44810468, 0.5558394, 9.883755683898926, -0.44944220781326294, -0.9622735977172852, 0.001050120685249567, -2.659987688064575, 1.2657283544540405, 
257, 3426739241, 0.34902382, 0.6069623, -0.44825307, 0.5557413, 9.838593482971191, -0.49685367941856384, -0.9567827582359314, 0.14736264944076538, -2.706845998764038, 0.5448204874992371, 
258, 3426755908, 0.34926558, 0.6068302, -0.4483356, 0.5556673, 9.865355491638184, -0.5139066576957703, -0.9301661849021912, 0.5775919556617737, -2.713057279586792, 0.3360898494720459, 
259, 3426772575, 0.34941313, 0.60674405, -0.44833365, 0.55567, 9.869038581848145, -0.5410562753677368, -0.9895204901695251, 1.3636648654937744, -2.637019634246826, 0.4268292486667633, 
260, 3426789242, 0.34965512, 0.6065721, -0.4484001, 0.5556518, 9.838740348815918, -0.5729358196258545, -1.002748727798462, 1.2174419164657593, -2.3218424320220947, 0.4609709680080414, 
261, 3426805909, 0.34989, 0.6064362, -0.44843054, 0.55562776, 9.815522193908691, -0.5902279615402222, -1.017804741859436, 1.0052473545074463, -2.3831913471221924, 0.27372291684150696, 
262, 3426822576, 0.35012853, 0.60630137, -0.44848645, 0.5555796, 9.817673683166504, -0.5775638818740845, -1.0058106184005737, 0.7330098748207092, -2.5279541015625, 0.31419098377227783, 
263, 3426839243, 0.3503886, 0.60616946, -0.44857037, 0.5554918, 9.854632377624512, -0.5890368819236755, -0.9992238283157349, 0.5132529139518738, -2.7085111141204834, 0.23251210153102875, 
264, 3426855910, 0.35058883, 0.6060391, -0.44859108, 0.5554908, 9.822613716125488, -0.6017768383026123, -1.0177462100982666, 1.039344072341919, -2.364577054977417, 0.43204134702682495, 
265, 3426872577, 0.35076788, 0.60590786, -0.4486283, 0.5554911, 9.823861122131348, -0.6312736868858337, -1.0279351472854614, 1.139438509941101, -2.461252450942993, 0.5761640667915344, 
266, 3426889244, 0.35094908, 0.6057702, -0.448668, 0.5554947, 9.81678295135498, -0.6469836831092834, -0.9707884192466736, 1.1544538736343384, -2.4199326038360596, 0.59804368019104, 
267, 3426905911, 0.3511408, 0.60562253, -0.44871333, 0.55549794, 9.849924087524414, -0.6201758980751038, -0.9727267622947693, 1.3739869594573975, -2.3850674629211426, 0.5671612620353699, 
268, 3426922578, 0.35135823, 0.6054609, -0.4487216, 0.5555298, 9.864995956420898, -0.5984126329421997, -0.9559038877487183, 1.2193247079849243, -2.0225069522857666, 0.4570394456386566, 
269, 3426939245, 0.35159868, 0.60530674, -0.44870237, 0.55556136, 9.837061882019043, -0.5683614611625671, -0.9765636920928955, 1.260945200920105, -1.9143315553665161, 0.22707580029964447, 
270, 3426955912, 0.35173544, 0.60522234, -0.4486017, 0.555648, 9.843650817871094, -0.5915074348449707, -0.9982976913452148, 2.098480224609375, -2.0544838905334473, 0.235963374376297, 
271, 3426972579, 0.35192168, 0.60506463, -0.4485524, 0.55574167, 9.806387901306152, -0.6066102981567383, -0.9773551821708679, 2.2828214168548584, -1.7647600173950195, 0.40480875968933105, 
272, 3426989246, 0.35211152, 0.6048913, -0.44849703, 0.5558549, 9.825770378112793, -0.5940049886703491, -0.9764463901519775, 1.8188475370407104, -1.5593011379241943, 0.5252012014389038, 
273, 3427005913, 0.35224232, 0.6047283, -0.4484239, 0.5560083, 9.833740234375, -0.612248420715332, -0.9883643388748169, 2.238837957382202, -1.5658067464828491, 0.7468599081039429, 
274, 3427022580, 0.3523983, 0.60455203, -0.448384, 0.5561332, 9.805451393127441, -0.5904583930969238, -0.9764127731323242, 1.990356683731079, -1.6386237144470215, 0.7469751834869385, 
275, 3427039247, 0.35264474, 0.6043239, -0.44842717, 0.55619, 9.787511825561523, -0.5916651487350464, -0.9572385549545288, 0.903455913066864, -1.6388925313949585, 0.7465397119522095, 
276, 3427055914, 0.35290956, 0.6040761, -0.44850606, 0.55622774, 9.821159362792969, -0.6079370975494385, -0.9509566426277161, 0.582375168800354, -1.6686289310455322, 0.8392704725265503, 
277, 3427072581, 0.35318035, 0.6038468, -0.44853792, 0.55627906, 9.84930419921875, -0.5916110873222351, -0.9716365337371826, 0.7217146158218384, -1.5410200357437134, 0.607943058013916, 
278, 3427089248, 0.35339975, 0.603629, -0.44854456, 0.55637085, 9.864941596984863, -0.5833781957626343, -0.9437012672424316, 1.1419548988342285, -1.507915735244751, 0.7672924399375916, 
279, 3427105915, 0.35361752, 0.60339797, -0.44852218, 0.5565011, 9.84510326385498, -0.5926559567451477, -0.9607073664665222, 1.4934380054473877, -1.239007830619812, 0.7681505084037781, 
280, 3427122582, 0.35384604, 0.6031633, -0.44847783, 0.55664593, 9.826699256896973, -0.607900857925415, -0.9688335061073303, 1.5137873888015747, -1.070694088935852, 0.6891864538192749, 
281, 3427139249, 0.35408637, 0.60294795, -0.44841555, 0.5567767, 9.833191871643066, -0.607052206993103, -0.9279056787490845, 1.6038928031921387, -1.1235202550888062, 0.46639445424079895, 
282, 3427155916, 0.35429823, 0.60275036, -0.44830996, 0.5569408, 9.84220027923584, -0.593547523021698, -0.918458878993988, 1.7588623762130737, -1.014115571975708, 0.45605969429016113, 
283, 3427172583, 0.35449427, 0.6025491, -0.44817016, 0.5571464, 9.838345527648926, -0.5659720301628113, -0.9466977715492249, 2.4302992820739746, -0.8144518136978149, 0.44172945618629456, 
284, 3427189250, 0.3546994, 0.60235554, -0.44798875, 0.5573709, 9.844358444213867, -0.5605494379997253, -0.9262261390686035, 2.6447930335998535, -0.6341128349304199, 0.25698503851890564, 
285, 3427205917, 0.35488102, 0.6021747, -0.44780618, 0.5575974, 9.843100547790527, -0.5425460934638977, -0.8958747386932373, 2.6607370376586914, -0.731633186340332, 0.3244488835334778, 
286, 3427222584, 0.3550884, 0.60197836, -0.4475932, 0.5578482, 9.858683586120605, -0.5304089784622192, -0.9197900891304016, 3.080324172973633, -0.44086501002311707, 0.1621924191713333, 
287, 3427239251, 0.3553405, 0.60177517, -0.4474041, 0.5580586, 9.857172012329102, -0.5203031301498413, -0.9350380301475525, 2.5087125301361084, -0.48814594745635986, 0.03325808793306351, 
288, 3427255918, 0.35561314, 0.60156024, -0.44722363, 0.5582613, 9.851114273071289, -0.5100933909416199, -0.9108248949050903, 2.1010994911193848, -0.4125629961490631, 0.03971249610185623, 
289, 3427272585, 0.35582283, 0.6013877, -0.44700965, 0.55848503, 9.81864070892334, -0.5432761311531067, -0.9285882115364075, 2.391874313354492, -0.5776048302650452, 0.09747552871704102, 
290, 3427289252, 0.3560957, 0.60117567, -0.4468289, 0.55868393, 9.828693389892578, -0.5665112137794495, -0.9055605530738831, 2.1511659622192383, -0.4320991039276123, 0.0161680169403553, 
291, 3427305919, 0.3563745, 0.6009471, -0.4466519, 0.5588936, 9.855098724365234, -0.5681332945823669, -0.8750145435333252, 2.2765719890594482, -0.3225727677345276, 0.06668266654014587, 
292, 3427322586, 0.35659266, 0.60075694, -0.44639814, 0.55916137, 9.868304252624512, -0.5256673097610474, -0.867931067943573, 2.9094042778015137, -0.2125598043203354, 0.028103534132242203, 
293, 3427339253, 0.35672703, 0.6005793, -0.44614515, 0.5594684, 9.849342346191406, -0.5290970802307129, -0.8893270492553711, 3.265228509902954, -0.34470850229263306, 0.4295441806316376, 
294, 3427355920, 0.3568407, 0.60037214, -0.4459626, 0.5597639, 9.818469047546387, -0.5854105949401855, -0.8873612284660339, 2.795696496963501, -0.49974215030670166, 0.8849507570266724, 
295, 3427372587, 0.3569923, 0.60008967, -0.44588, 0.5600358, 9.805991172790527, -0.6353776454925537, -0.8637263178825378, 2.157850742340088, -0.4413580894470215, 1.306087613105774, 
296, 3427389254, 0.35715526, 0.59977615, -0.44584477, 0.5602957, 9.846463203430176, -0.6623883247375488, -0.8677436709403992, 2.0106160640716553, -0.46355143189430237, 1.498976707458496, 
297, 3427405921, 0.35717747, 0.59949714, -0.44569162, 0.5607019, 9.885327339172363, -0.6365658640861511, -0.9056093096733093, 3.428574323654175, -0.1204693540930748, 1.8234515190124512, 
298, 3427422588, 0.3571437, 0.5992464, -0.44544756, 0.5611851, 9.846475601196289, -0.5746420621871948, -0.8943884372711182, 4.257823944091797, 0.14943090081214905, 1.7708942890167236, 
299, 3427439255, 0.3571755, 0.59896934, -0.44521597, 0.56164426, 9.840411186218262, -0.49657249450683594, -0.8293260335922241, 4.1123175621032715, 0.3051176965236664, 1.557220220565796, 
300, 3427455922, 0.35719952, 0.598723, -0.44493288, 0.56211585, 9.887691497802734, -0.5114594101905823, -0.796614408493042, 4.4084649085998535, 0.3469560444355011, 1.3223774433135986, 
301, 3427472589, 0.3571979, 0.59849423, -0.44457605, 0.5626427, 9.893279075622559, -0.4502997398376465, -0.8268401026725769, 4.8177809715271, 0.6253020763397217, 1.2243318557739258, 
302, 3427489256, 0.35726163, 0.59823954, -0.44420642, 0.5631644, 9.86988353729248, -0.37476596236228943, -0.805496335029602, 4.613033294677734, 0.9328466653823853, 0.9827145934104919, 
303, 3427505923, 0.35753822, 0.597877, -0.4439829, 0.5635502, 9.855228424072266, -0.2958620488643646, -0.7795448899269104, 2.577380418777466, 1.0797802209854126, 0.7516558766365051, 
304, 3427522590, 0.35797575, 0.5974555, -0.4438349, 0.563836, 9.86795425415039, -0.2797161936759949, -0.7599266767501831, 1.158097505569458, 1.207786202430725, 0.3854007422924042, 
305, 3427539257, 0.35852826, 0.59699726, -0.44376326, 0.5640266, 9.87521743774414, -0.28223657608032227, -0.7710460424423218, 0.1356256604194641, 1.1165536642074585, 0.12905599176883698, 
306, 3427555924, 0.35915396, 0.5965144, -0.4437158, 0.5641767, 9.911470413208008, -0.3335185945034027, -0.7950335144996643, -1.0178487300872803, 1.2526980638504028, -0.013446668162941933, 
307, 3427572591, 0.35998288, 0.59592843, -0.4437999, 0.5642014, 9.866405487060547, -0.4304601550102234, -0.7738833427429199, -2.320965051651001, 1.3917300701141357, -0.3173605501651764, 
308, 3427589258, 0.36092865, 0.5953302, -0.44390327, 0.56414753, 9.839862823486328, -0.5146729350090027, -0.7322655320167542, -3.4117462635040283, 1.448065161705017, -0.8195232152938843, 
309, 3427605925, 0.3618962, 0.59478736, -0.44395673, 0.5640582, 9.868376731872559, -0.5161476135253906, -0.6882582306861877, -3.34366774559021, 1.2871789932250977, -1.3574539422988892, 
310, 3427622592, 0.36288294, 0.5942729, -0.44391823, 0.56399685, 9.850500106811523, -0.4926365613937378, -0.6371689438819885, -2.9469141960144043, 1.582903265953064, -1.822055697441101, 
311, 3427639259, 0.36398202, 0.5937435, -0.44382626, 0.5639186, 9.862147331237793, -0.4193863868713379, -0.622677206993103, -3.4215240478515625, 2.059203624725342, -2.4580509662628174, 
312, 3427655926, 0.3653809, 0.593165, -0.4438464, 0.56360674, 9.8742094039917, -0.3293232321739197, -0.6023147702217102, -5.712018013000488, 1.918615698814392, -3.6146445274353027, 
313, 3427672593, 0.36731163, 0.5923954, -0.4441373, 0.5629314, 9.845723152160645, -0.19234612584114075, -0.5314278602600098, -10.523628234863281, 2.1210525035858154, -4.897515296936035, 
314, 3427689260, 0.36982024, 0.5914454, -0.44471925, 0.5618275, 9.834776878356934, -0.03572900965809822, -0.46023687720298767, -15.746390342712402, 2.101818799972534, -6.474992752075195, 
315, 3427705927, 0.372752, 0.5903666, -0.44542056, 0.56046766, 9.913464546203613, 0.06523889303207397, -0.46380501985549927, -18.688915252685547, 2.5278360843658447, -7.904032230377197, 
316, 3427722594, 0.37581867, 0.5892881, -0.4458843, 0.55918443, 10.024563789367676, 0.13485127687454224, -0.5282262563705444, -18.2689266204834, 3.8687591552734375, -9.164942741394043, 
317, 3427739261, 0.37890893, 0.58832484, -0.4458335, 0.55815285, 10.056159019470215, 0.20992004871368408, -0.5330263376235962, -15.791851997375488, 5.8724045753479, -10.989924430847168, 
318, 3427755928, 0.3821277, 0.58749413, -0.4451848, 0.55735064, 10.046409606933594, 0.379809707403183, -0.41611164808273315, -12.688907623291016, 8.232887268066406, -13.716246604919434, 
319, 3427772595, 0.38545704, 0.58689946, -0.44381678, 0.5567754, 10.04535961151123, 0.617090106010437, -0.30575451254844666, -8.865056037902832, 10.467716217041016, -17.1651611328125, 
320, 3427789262, 0.38896552, 0.5865559, -0.44163367, 0.5564332, 10.024615287780762, 0.8469908237457275, -0.17740291357040405, -5.088115215301514, 13.155193328857422, -21.26007652282715, 
321, 3427805929, 0.39274538, 0.58644986, -0.43857813, 0.5563066, 9.887057304382324, 1.0895586013793945, -0.07598627358675003, -1.0886586904525757, 16.264802932739258, -25.954242706298828, 
322, 3427822596, 0.39682022, 0.5865887, -0.4346595, 0.55634415, 9.788956642150879, 1.3676447868347168, 0.009172873571515083, 2.0310006141662598, 19.21936798095703, -30.800899505615234, 
323, 3427839263, 0.40117434, 0.58696777, -0.4300084, 0.5564359, 9.698466300964355, 1.5392026901245117, 0.005418103188276291, 4.200380325317383, 21.358585357666016, -35.328678131103516, 
324, 3427855930, 0.4059506, 0.587509, -0.42477432, 0.5564209, 9.552481651306152, 1.6203659772872925, -0.025163991376757622, 5.221970081329346, 23.175880432128906, -40.032135009765625, 
325, 3427872597, 0.41131493, 0.588069, -0.41906488, 0.556219, 9.418928146362305, 1.5793856382369995, 0.07920540124177933, 4.081286907196045, 25.410306930541992, -44.71803665161133, 
326, 3427889264, 0.417354, 0.58854014, -0.41330004, 0.555535, 9.391960144042969, 1.3821958303451538, 0.19651123881340027, 0.3426375091075897, 25.932939529418945, -48.595584869384766, 
327, 3427905931, 0.42382532, 0.5889242, -0.40759036, 0.55444634, 9.589363098144531, 1.0350157022476196, 0.1789637804031372, -2.785470724105835, 25.731698989868164, -50.903961181640625, 
328, 3427922598, 0.4304041, 0.5892853, -0.40179682, 0.5532221, 9.785563468933105, 0.8389304876327515, 0.11550987511873245, -4.115087509155273, 25.791940689086914, -51.948341369628906, 
329, 3427939265, 0.43695465, 0.5896186, -0.39592436, 0.5519642, 9.999083518981934, 0.7164813876152039, 0.041173893958330154, -3.8702025413513184, 25.947021484375, -52.16728210449219, 
330, 3427955932, 0.44332355, 0.58999825, -0.39007446, 0.55064344, 10.373394966125488, 0.6146671772003174, 0.006550773978233337, -2.941941022872925, 25.004074096679688, -51.7064208984375, 
331, 3427972599, 0.4490672, 0.59059805, -0.38392302, 0.54966897, 10.654549598693848, 0.9213441014289856, 0.08705906569957733, 2.788395881652832, 24.904348373413086, -50.09593963623047, 
332, 3427989266, 0.45414686, 0.59167874, -0.3774124, 0.54884166, 10.514983177185059, 1.4465759992599487, 0.05067592114210129, 8.446142196655273, 23.043092727661133, -49.865291595458984, 
333, 3428005933, 0.45880672, 0.5932709, -0.37081674, 0.5477417, 10.398565292358398, 1.8741765022277832, 0.2414325773715973, 10.977791786193848, 19.177490234375, -50.795372009277344, 
334, 3428022600, 0.46317205, 0.5951941, -0.36403123, 0.5465317, 10.18118953704834, 2.0374701023101807, 0.575538694858551, 13.944478988647461, 17.397443771362305, -51.63518524169922, 
335, 3428039267, 0.46721956, 0.5975977, -0.35770085, 0.5446404, 10.188199043273926, 2.3077046871185303, 0.5187103748321533, 13.226786613464355, 10.564742088317871, -51.9391975402832, 
336, 3428055934, 0.47199327, 0.59950006, -0.35235712, 0.5419101, 10.557028770446777, 2.397800922393799, 0.5600610375404358, 3.1863343715667725, 7.6995673179626465, -52.0401496887207, 
337, 3428072601, 0.47762603, 0.60048103, -0.34787527, 0.53877544, 10.640120506286621, 2.047464609146118, 0.8577128052711487, -7.740077018737793, 8.7335844039917, -50.7698974609375, 
338, 3428089268, 0.48291257, 0.6012534, -0.34363532, 0.5359148, 10.237313270568848, 1.5031156539916992, 1.1167616844177246, -7.174932956695557, 9.047409057617188, -47.09282302856445, 
339, 3428105935, 0.4870819, 0.6024731, -0.339184, 0.5336027, 9.931340217590332, 1.2311866283416748, 1.4374836683273315, 1.0841608047485352, 7.7592854499816895, -43.10498809814453, 
340, 3428122602, 0.48992547, 0.6044098, -0.33444127, 0.5317999, 9.642155647277832, 1.412766933441162, 1.2602226734161377, 11.224786758422852, 5.124497413635254, -39.445648193359375, 
341, 3428139269, 0.49246, 0.6063306, -0.33008578, 0.52999043, 9.423670768737793, 1.8363946676254272, 0.8546267747879028, 11.098700523376465, 3.1625380516052246, -36.71828842163086, 
342, 3428155936, 0.49528277, 0.6077221, -0.3263052, 0.528104, 9.342144966125488, 2.142103910446167, 0.6033873558044434, 5.742168426513672, 3.471963882446289, -34.45432662963867, 
343, 3428172603, 0.4978335, 0.60911137, -0.32291692, 0.5261845, 9.219897270202637, 2.576456069946289, 0.5278865098953247, 4.930584907531738, 1.2883683443069458, -31.974830627441406, 
344, 3428189270, 0.50038165, 0.610411, -0.3202108, 0.52391016, 9.138774871826172, 2.9896929264068604, 0.5754572749137878, 1.6510124206542969, -2.109647750854492, -30.111356735229492, 
345, 3428205937, 0.5035393, 0.61113447, -0.31835708, 0.5211639, 9.09705924987793, 3.1508617401123047, 0.6457163691520691, -6.725954532623291, -3.5074141025543213, -29.070480346679688, 
346, 3428222604, 0.50754434, 0.61106116, -0.31733644, 0.5179773, 8.99913215637207, 3.0873124599456787, 0.7589612603187561, -16.988800048828125, -3.5090174674987793, -28.379528045654297, 
347, 3428239271, 0.5122319, 0.6103299, -0.3170749, 0.51437277, 8.924052238464355, 2.948646068572998, 0.7642287015914917, -25.76581382751465, -4.077485084533691, -27.650508880615234, 
348, 3428255938, 0.51727426, 0.6091307, -0.31723478, 0.51063627, 8.918167114257812, 2.8226728439331055, 0.7612646222114563, -30.778663635253906, -3.7100465297698975, -26.59438133239746, 
349, 3428272605, 0.5219731, 0.6079084, -0.31743973, 0.50717235, 8.85391902923584, 2.776576280593872, 0.7117996215820312, -28.94779396057129, -3.3764748573303223, -24.190340042114258, 
350, 3428289272, 0.52592754, 0.6070527, -0.31749415, 0.5040686, 8.667059898376465, 2.8334548473358154, 0.7009633183479309, -23.25023078918457, -4.232553005218506, -21.745121002197266, 
351, 3428305939, 0.52934736, 0.60649776, -0.3176459, 0.50105184, 8.556366920471191, 2.9240620136260986, 0.7620503902435303, -20.042404174804688, -6.411452770233154, -19.83974266052246, 
352, 3428322606, 0.5323159, 0.60611224, -0.317948, 0.49817348, 8.596284866333008, 3.0204596519470215, 0.879964292049408, -17.82514762878418, -7.969114780426025, -17.541885375976562, 
353, 3428339273, 0.5349886, 0.6056397, -0.3182981, 0.49565524, 8.71442985534668, 3.2374675273895264, 0.96141517162323, -16.16619110107422, -6.947969436645508, -14.823134422302246, 
354, 3428355940, 0.53752065, 0.60496867, -0.31871557, 0.49346226, 8.620266914367676, 3.4205782413482666, 0.9836204051971436, -15.594064712524414, -5.380781650543213, -12.42076301574707, 
355, 3428372607, 0.53992355, 0.6041515, -0.31922263, 0.49150845, 8.36363697052002, 3.5052249431610107, 0.9538345336914062, -15.769529342651367, -4.650094509124756, -10.436317443847656, 
356, 3428389274, 0.54230475, 0.60312015, -0.3199676, 0.48966575, 8.199749946594238, 3.5750768184661865, 0.9049292802810669, -16.966463088989258, -4.369993209838867, -8.4812593460083, 
357, 3428405941, 0.54467887, 0.6018406, -0.32092738, 0.48797402, 8.044656753540039, 3.518817186355591, 0.7753806710243225, -17.914262771606445, -3.599229335784912, -6.428617000579834, 
358, 3428422608, 0.5469445, 0.60047567, -0.32172987, 0.48659077, 7.632956504821777, 3.2901549339294434, 0.7522829174995422, -16.999347686767578, -1.837777018547058, -5.39617919921875, 
359, 3428439275, 0.5488677, 0.59947354, -0.3226891, 0.48502305, 7.35385274887085, 3.1756911277770996, 0.6389920115470886, -14.956894874572754, -5.089504241943359, -5.084151268005371, 
360, 3428455942, 0.5508111, 0.5984135, -0.32369137, 0.483459, 7.332418441772461, 3.10154390335083, 0.5548866391181946, -15.372578620910645, -4.982405185699463, -4.826513290405273, 
361, 3428472609, 0.55228513, 0.5977847, -0.32469845, 0.48187703, 7.087221622467041, 3.132352113723755, 0.4459725320339203, -11.976609230041504, -7.58541202545166, -4.28178071975708, 
362, 3428489276, 0.5533018, 0.5977445, -0.32559302, 0.48015392, 6.878675937652588, 2.9691896438598633, 0.5218027830123901, -7.856804370880127, -10.71572208404541, -5.0804619789123535, 
363, 3428505943, 0.5538176, 0.59863406, -0.32589036, 0.47824588, 7.120852470397949, 2.6835806369781494, 0.6361334919929504, -0.6854476928710938, -13.379562377929688, -8.667576789855957, 
364, 3428522610, 0.5546663, 0.5990692, -0.32538, 0.4770632, 7.3064961433410645, 2.4445013999938965, 0.7660622596740723, 0.4689622223377228, -5.078564643859863, -9.318069458007812, 
365, 3428539277, 0.55531675, 0.5994186, -0.32502323, 0.47610995, 7.323979377746582, 2.4476375579833984, 1.303620457649231, 1.0888279676437378, -4.83284854888916, -6.975889205932617, 
366, 3428555944, 0.5546451, 0.6009467, -0.32425362, 0.4754909, 7.342169761657715, 2.470527410507202, 1.6959407329559326, 13.057463645935059, -8.734618186950684, -5.7306809425354, 
367, 3428572611, 0.5525463, 0.6034593, -0.32205796, 0.47624397, 7.156494617462158, 2.6715176105499268, 1.6641918420791626, 30.40241241455078, -4.056040287017822, -3.934969425201416, 
368, 3428589278, 0.5494478, 0.60632527, -0.3195662, 0.47786453, 6.699545860290527, 2.9477241039276123, 1.791731834411621, 38.84576416015625, -2.694995403289795, 0.6211304664611816, 
369, 3428605945, 0.54433346, 0.6102366, -0.3176315, 0.48002392, 6.371698379516602, 3.1981143951416016, 1.8432916402816772, 50.612098693847656, -10.416120529174805, 9.313053131103516, 
370, 3428622612, 0.53740394, 0.61484194, -0.31629032, 0.48283237, 6.4506635665893555, 3.2346436977386475, 1.521864414215088, 60.28836441040039, -16.197303771972656, 18.716215133666992, 
371, 3428639279, 0.5300687, 0.61913025, -0.31582272, 0.4857582, 6.415038108825684, 3.2962799072265625, 0.9761666059494019, 58.252567291259766, -18.76399803161621, 24.889389038085938, 
372, 3428655946, 0.5227784, 0.6228324, -0.31677097, 0.48830205, 6.941887378692627, 3.413360357284546, 0.641391396522522, 50.31911087036133, -23.52703285217285, 30.654245376586914, 
373, 3428672613, 0.5154994, 0.62582666, -0.3188597, 0.4908462, 7.754374027252197, 3.5912861824035645, 0.7582617998123169, 44.01460266113281, -25.197608947753906, 37.049224853515625, 
374, 3428689280, 0.5080524, 0.62836605, -0.3214561, 0.4936648, 8.470383644104004, 3.961224317550659, 0.7880395650863647, 41.988563537597656, -24.679590225219727, 41.77455139160156, 
375, 3428705947, 0.5002114, 0.63079214, -0.32431647, 0.49669784, 8.848910331726074, 4.29420804977417, 0.7444834113121033, 43.025428771972656, -25.142210006713867, 45.25663757324219, 
376, 3428722614, 0.4913621, 0.6333654, -0.32701904, 0.50047004, 9.115102767944336, 4.547439098358154, 0.7974809408187866, 49.779632568359375, -24.26691246032715, 50.252437591552734, 
377, 3428739281, 0.48128852, 0.63575107, -0.32902426, 0.50589055, 9.945314407348633, 4.690036296844482, 0.789941668510437, 60.64705276489258, -16.852832794189453, 57.44484329223633, 
378, 3428755948, 0.46844712, 0.6392259, -0.33069757, 0.5124325, 11.491888046264648, 5.469372272491455, 0.7582418918609619, 80.21403503417969, -20.892780303955078, 66.89302062988281, 
379, 3428772615, 0.45054802, 0.6459778, -0.33140144, 0.5195115, 14.573258399963379, 7.341370105743408, -1.4887629747390747, 117.5553970336914, -38.516944885253906, 74.7776870727539, 
380, 3428789282, 0.43308315, 0.65445703, -0.33164698, 0.52357924, 14.6195707321167, 7.029716968536377, -2.6894371509552, 115.6608657836914, -55.65616989135742, 57.99595642089844, 
381, 3428805949, 0.42688656, 0.65811634, -0.33639932, 0.5210433, 14.680435180664062, 4.104851245880127, 1.0350524187088013, 19.26067352294922, -55.714298248291016, 29.09406280517578, 
382, 3428822616, 0.42966315, 0.65653735, -0.3408454, 0.51785374, 11.462581634521484, 0.4251742362976074, 2.0199949741363525, -37.041385650634766, -18.297592163085938, 5.741447925567627, 
383, 3428839283, 0.42876253, 0.6582174, -0.34455284, 0.51399994, 10.032685279846191, -1.0444244146347046, -1.8866642713546753, -9.855390548706055, -39.42926788330078, 5.840607166290283, 
384, 3428855950, 0.4254829, 0.65928924, -0.3480093, 0.51302224, 11.562621116638184, -1.9534868001937866, -2.096738576889038, 6.81874418258667, -29.1391544342041, 22.93333625793457, 
385, 3428872617, 0.4185331, 0.66074127, -0.3498639, 0.51560307, 14.558126449584961, 1.6243884563446045, 0.04919084534049034, 38.55403518676758, -18.458663940429688, 38.0245361328125, 
386, 3428889284, 0.41638684, 0.6596782, -0.3532766, 0.51637447, 18.07805061340332, 6.431277751922607, -2.433332681655884, -0.306143194437027, -10.723899841308594, 28.86729621887207, 
387, 3428905951, 0.42072132, 0.657879, -0.35562226, 0.5135385, 11.961628913879395, 5.364147663116455, -3.2739880084991455, -36.81059646606445, -5.675534248352051, -7.4641547203063965, 
388, 3428922618, 0.43031397, 0.6529833, -0.3601545, 0.5086566, 9.805887222290039, -0.16226941347122192, -1.4730864763259888, -82.29144287109375, 2.573749303817749, -14.434662818908691, 
389, 3428939285, 0.43566325, 0.6484423, -0.36453453, 0.5067886, 9.905795097351074, -2.9263246059417725, -2.189230442047119, -54.23945617675781, 4.805825233459473, 7.70322847366333, 
390, 3428955952, 0.43481538, 0.6462063, -0.36842847, 0.5075566, 9.218414306640625, -2.5114595890045166, -2.984023332595825, -11.34583854675293, -5.518505573272705, 29.117660522460938, 
391, 3428972619, 0.43308073, 0.6446592, -0.37276852, 0.50783795, 9.039734840393066, -0.9187168478965759, -2.4212207794189453, -8.324341773986816, -13.6521635055542, 30.910297393798828, 
392, 3428989286, 0.43178278, 0.6434476, -0.37703487, 0.5073302, 9.729687690734863, -0.6103097200393677, -1.2982014417648315, -11.124917030334473, -16.969913482666016, 25.790681838989258, 
393, 3429005953, 0.42921877, 0.64306766, -0.38020283, 0.5076229, 10.587858200073242, -0.9707908630371094, -1.0035450458526611, 2.8741064071655273, -16.34477424621582, 25.504501342773438, 
394, 3429022620, 0.42486116, 0.6433384, -0.3821363, 0.5094908, 10.383090019226074, -0.09093736857175827, -0.863092839717865, 21.124073028564453, -12.707716941833496, 29.188413619995117, 
395, 3429039287, 0.42007595, 0.64361453, -0.38361397, 0.51199317, 9.907753944396973, 1.238284945487976, -0.9647044539451599, 26.305280685424805, -9.720987319946289, 30.465587615966797, 
396, 3429055954, 0.41579518, 0.6435486, -0.38492233, 0.514582, 9.512299537658691, 2.2110252380371094, -0.5854107141494751, 23.922935485839844, -6.3226542472839355, 29.083293914794922, 
397, 3429072621, 0.41152388, 0.6433908, -0.3861454, 0.5172894, 8.855947494506836, 2.8321189880371094, -0.32725393772125244, 24.225683212280273, -5.22074031829834, 29.273386001586914, 
398, 3429089288, 0.40695193, 0.64354444, -0.38705203, 0.5200303, 8.775217056274414, 3.1094279289245605, -0.5262877345085144, 27.700410842895508, -6.0983662605285645, 28.238243103027344, 
399, 3429105955, 0.40289456, 0.6437533, -0.38747, 0.52261335, 9.022868156433105, 3.386172294616699, -0.6848183870315552, 26.837966918945312, -4.279587745666504, 23.7004451751709, 
400, 3429122622, 0.40003738, 0.64356935, -0.3879767, 0.52465475, 8.916298866271973, 4.060876369476318, -0.671540379524231, 18.801692962646484, -2.314849853515625, 19.357580184936523, 
401, 3429139289, 0.3986484, 0.64298177, -0.38897276, 0.525694, 8.642149925231934, 4.361205577850342, -0.6458432078361511, 6.767879962921143, -2.732346296310425, 14.607588768005371, 
402, 3429155956, 0.3979764, 0.6424802, -0.39017674, 0.5259243, 8.623583793640137, 3.825225353240967, -0.6002731323242188, 0.8973607420921326, -5.281904697418213, 10.560614585876465, 
403, 3429172623, 0.39769852, 0.6420456, -0.39133576, 0.5258039, 8.384565353393555, 3.148489236831665, -0.010410202667117119, -1.5087933540344238, -5.906059741973877, 7.86342716217041, 
404, 3429189290, 0.3970641, 0.6420648, -0.39134872, 0.5262502, 7.9007110595703125, 2.474513530731201, 0.08580611646175385, 7.131620407104492, -2.8804943561553955, 4.4406609535217285, 
405, 3429205957, 0.3969218, 0.6422117, -0.389724, 0.5273827, 7.3014678955078125, 2.6086623668670654, 0.3422473073005676, 13.06835651397705, 5.464966297149658, -3.005267858505249, 
406, 3429222624, 0.3972851, 0.6427879, -0.3871486, 0.52830327, 6.943420886993408, 1.9923052787780762, 1.258357286453247, 14.959214210510254, 6.907940864562988, -10.736308097839355, 
407, 3429239291, 0.39711565, 0.64317894, -0.3826788, 0.53120357, 6.750998497009277, 1.2700085639953613, 0.3018188774585724, 29.055381774902344, 20.062028884887695, -11.256270408630371, 
408, 3429255958, 0.39666215, 0.6435441, -0.3784319, 0.5341344, 6.529336929321289, 2.67885160446167, -0.4066976308822632, 28.21521759033203, 18.844322204589844, -8.89133358001709, 
409, 3429272625, 0.3963829, 0.6428781, -0.37406632, 0.53820336, 7.388093948364258, 2.4857892990112305, -0.5486611723899841, 28.029691696166992, 28.44818115234375, -4.2300639152526855, 
410, 3429289292, 0.39711666, 0.6411716, -0.36953238, 0.5428106, 6.655198097229004, 4.211589813232422, -0.6106677055358887, 24.061649322509766, 37.83763122558594, -4.700367450714111, 
411, 3429305959, 0.39993915, 0.63871604, -0.36588636, 0.54609305, 5.68854284286499, 2.8367886543273926, 0.20578083395957947, 6.352188587188721, 37.70061111450195, -10.23806095123291, 
412, 3429322626, 0.4027815, 0.63675135, -0.3609527, 0.549571, 5.639584541320801, 2.0615789890289307, -0.7152300477027893, 11.3828763961792, 40.19562530517578, -16.4641056060791, 
413, 3429339293, 0.40590948, 0.6348119, -0.3555498, 0.55302423, 7.059460163116455, 2.3287148475646973, -0.5095054507255554, 11.907919883728027, 42.01633834838867, -19.705747604370117, 
414, 3429355960, 0.40926093, 0.6323817, -0.34935966, 0.55726725, 8.6748628616333, 3.3138978481292725, -1.1154961585998535, 14.47962760925293, 50.08464431762695, -20.564035415649414, 
415, 3429372627, 0.41355285, 0.62941957, -0.3424638, 0.56171495, 10.06568431854248, 4.835771083831787, 0.09323906898498535, 12.079314231872559, 57.27989196777344, -25.344070434570312, 
416, 3429389294, 0.42077935, 0.625404, -0.33488905, 0.5653883, 11.374695777893066, 5.495126247406006, 0.49327993392944336, -2.824352979660034, 66.83687591552734, -39.274444580078125, 
417, 3429405961, 0.43215057, 0.62075514, -0.32523006, 0.5675689, 11.825143814086914, 7.697500705718994, 0.9247530698776245, -17.82425308227539, 78.44569396972656, -67.14530944824219, 
418, 3429422628, 0.4481126, 0.61646855, -0.31282753, 0.56683373, 13.671744346618652, 7.927375316619873, 2.1191632747650146, -32.165748596191406, 82.98857879638672, -106.14825439453125, 
419, 3429439295, 0.46863094, 0.61161536, -0.29973546, 0.562557, 16.116186141967773, 6.580604076385498, 2.076270818710327, -58.159976959228516, 82.0750732421875, -136.44131469726562, 
420, 3429455962, 0.49180242, 0.6057769, -0.28741047, 0.5554818, 16.8243465423584, 2.9421842098236084, 0.8067259788513184, -81.22628021240234, 77.07733154296875, -150.43869018554688, 
421, 3429472629, 0.5138756, 0.6003119, -0.2755339, 0.5473928, 15.687981605529785, -0.8047298789024353, -0.644555389881134, -79.10061645507812, 67.73615264892578, -148.5975341796875, 
422, 3429489296, 0.5322101, 0.59707725, -0.2638958, 0.5390829, 15.016322135925293, -1.7441364526748657, -1.1626927852630615, -57.0917854309082, 50.53886413574219, -138.6740264892578, 
423, 3429505963, 0.5464965, 0.5970357, -0.25218424, 0.5303707, 15.489357948303223, 0.29194360971450806, -1.2666535377502441, -29.23405647277832, 30.035022735595703, -131.3800811767578, 
424, 3429522630, 0.5575032, 0.59954005, -0.24126817, 0.52108693, 16.134347915649414, 2.0080080032348633, -0.002761412411928177, -10.089820861816406, 9.80201530456543, -122.83201599121094, 
425, 3429539297, 0.5671243, 0.60272956, -0.2317184, 0.5112667, 15.528831481933594, 3.430995225906372, 1.0280342102050781, -7.528695583343506, -2.341815233230591, -115.5260009765625, 
426, 3429555964, 0.5766017, 0.6054073, -0.22392645, 0.5008687, 13.6527681350708, 4.244950771331787, 1.4919811487197876, -16.015771865844727, -9.983205795288086, -109.2531509399414, 
427, 3429572631, 0.5848269, 0.6080347, -0.2181257, 0.4906044, 11.480792045593262, 3.7831101417541504, 1.9623428583145142, -17.641374588012695, -19.049970626831055, -96.10224151611328, 
428, 3429589298, 0.59355813, 0.6079245, -0.21608153, 0.4810672, 9.111449241638184, 2.849956750869751, 2.2611641883850098, -42.32931900024414, -21.114145278930664, -75.12831115722656, 
429, 3429605965, 0.6017195, 0.60634774, -0.21729034, 0.4722934, 7.035547733306885, 1.2643324136734009, 0.9862809181213379, -55.53729248046875, -27.20195198059082, -54.405792236328125, 
430, 3429622632, 0.60820806, 0.60406846, -0.22085753, 0.4651949, 5.903631210327148, 0.09107200056314468, 0.6008428335189819, -56.61335372924805, -30.1839656829834, -31.222288131713867, 
431, 3429639299, 0.6124501, 0.6016168, -0.22579098, 0.46041355, 5.127015113830566, -0.5061179399490356, 0.6144794821739197, -48.847862243652344, -29.122577667236328, -8.480411529541016, 
432, 3429655966, 0.6145402, 0.59916663, -0.2320546, 0.45770127, 4.829893112182617, 0.1777406930923462, 0.9299891591072083, -40.93325424194336, -29.50235366821289, 12.476761817932129, 
433, 3429672633, 0.61481094, 0.596787, -0.23936637, 0.4566801, 4.657623291015625, 0.3813772201538086, 0.7569409012794495, -33.736385345458984, -30.087379455566406, 29.5009765625, 
434, 3429689300, 0.61218387, 0.5958209, -0.24685995, 0.45748085, 4.670163631439209, -1.8123935461044312, -0.16161203384399414, -13.443319320678711, -32.582942962646484, 44.675689697265625, 
435, 3429705967, 0.6048176, 0.59852546, -0.2549952, 0.45928282, 4.913732051849365, -3.9852988719940186, -0.207196906208992, 21.09664535522461, -50.75516128540039, 60.11909866333008, 
436, 3429722634, 0.59319144, 0.60427266, -0.26363644, 0.4620328, 5.410226345062256, -3.2107677459716797, 0.9923927783966064, 51.34333038330078, -66.01913452148438, 74.15663146972656, 
437, 3429739301, 0.5806562, 0.6095389, -0.2713125, 0.46657297, 5.267886161804199, -1.1685607433319092, 1.7982240915298462, 59.471378326416016, -54.76881790161133, 81.1124038696289, 
438, 3429755968, 0.5640952, 0.61748385, -0.2766208, 0.47327712, 4.797600269317627, 0.41559165716171265, 0.04260766878724098, 98.67428588867188, -52.376712799072266, 87.69195556640625, 
439, 3429772635, 0.5455489, 0.6259421, -0.2828429, 0.48018, 5.567996501922607, 2.2785093784332275, -0.10896440595388412, 106.48153686523438, -60.525428771972656, 97.80720520019531, 
440, 3429789302, 0.53003985, 0.6303932, -0.29360428, 0.48524103, 7.027507305145264, 5.030747890472412, 1.4897775650024414, 59.78847122192383, -66.3405990600586, 108.20148468017578, 
441, 3429805969, 0.51944953, 0.6297449, -0.30686998, 0.48931012, 8.62618637084961, 6.333415985107422, 2.2131903171539307, 9.51441764831543, -52.844547271728516, 109.35916137695312, 
442, 3429822636, 0.51129246, 0.6271146, -0.3177839, 0.49428818, 9.610603332519531, 5.80388879776001, 1.7506135702133179, 1.7242530584335327, -28.739561080932617, 98.46665954589844, 
443, 3429839303, 0.50167733, 0.6268621, -0.324135, 0.50030035, 9.544194221496582, 5.8164215087890625, 1.0040873289108276, 34.131568908691406, -19.534494400024414, 82.22911834716797, 
444, 3429855970, 0.49093485, 0.62973064, -0.3292717, 0.50398654, 8.94716739654541, 6.65759801864624, -0.05742953345179558, 48.74311447143555, -38.63419723510742, 65.94440460205078, 
445, 3429872637, 0.48281634, 0.6327907, -0.33558667, 0.50383115, 8.522191047668457, 6.742904186248779, 0.5676243901252747, 25.239696502685547, -53.96379089355469, 48.622169494628906, 
446, 3429889304, 0.47852606, 0.6339133, -0.34205875, 0.502158, 8.400609016418457, 4.400201797485352, 0.9830637574195862, -1.8946962356567383, -45.553287506103516, 35.54765319824219, 
447, 3429905971, 0.4752006, 0.63413954, -0.34847292, 0.50061786, 8.993834495544434, 1.501484751701355, 1.9958653450012207, -8.533032417297363, -39.43641662597656, 34.5425910949707, 
448, 3429922638, 0.46387708, 0.6387533, -0.3482952, 0.50547284, 10.978410720825195, 0.574342668056488, 3.100090503692627, 78.68787384033203, -24.318286895751953, 43.7002067565918, 
449, 3429939305, 0.44595268, 0.64611214, -0.3451919, 0.5143035, 12.027176856994629, 3.1892507076263428, 0.09821563959121704, 136.1304168701172, -22.931907653808594, 59.88115692138672, 
450, 3429955972, 0.4352379, 0.65054035, -0.34700018, 0.51667804, 13.408486366271973, 5.076056003570557, -1.4288243055343628, 62.41318893432617, -39.20625686645508, 43.38235855102539, 
451, 3429972639, 0.43360788, 0.65300655, -0.3482185, 0.51411134, 13.765887260437012, 2.932424545288086, -1.8516290187835693, 6.214437484741211, -30.885744094848633, -1.5947802066802979, 
452, 3429989306, 0.433305, 0.65590787, -0.34998703, 0.5094516, 12.003323554992676, 0.08448677510023117, -1.686292290687561, -5.402853012084961, -40.266998291015625, -11.100497245788574, 
453, 3430005973, 0.42701864, 0.65972185, -0.35040602, 0.5095466, 13.052804946899414, -1.2661420106887817, -0.7828691005706787, 40.46131896972656, -32.3871955871582, 15.697654724121094, 
454, 3430022640, 0.4218569, 0.6624486, -0.34934986, 0.51103175, 19.28629493713379, 8.386651039123535, 1.1261390447616577, 40.67723083496094, -15.238561630249023, 11.705323219299316, 
455, 3430039307, 0.42617354, 0.6622184, -0.34504008, 0.51067626, 19.798568725585938, 14.278936386108398, -0.6001532673835754, -4.038543701171875, 18.919485092163086, -34.57815933227539, 
456, 3430055974, 0.4375782, 0.6590177, -0.34221038, 0.50706327, 10.247123718261719, 1.4919763803482056, -0.09984146803617477, -57.906951904296875, 26.971765518188477, -55.065765380859375, 
457, 3430072641, 0.4470964, 0.6555835, -0.3395194, 0.50501657, 10.270362854003906, -6.493800640106201, -2.6800155639648438, -46.853118896484375, 30.013935089111328, -42.623863220214844, 
458, 3430089308, 0.4457801, 0.6556417, -0.3352976, 0.5089102, 10.784745216369629, -5.683507442474365, -4.764779090881348, 31.882312774658203, 24.110567092895508, -1.9446167945861816, 
459, 3430105975, 0.43935072, 0.6558, -0.33445773, 0.5148159, 10.29408073425293, -3.1534886360168457, -3.95585560798645, 48.012184143066406, 10.743757247924805, 36.996334075927734, 
460, 3430122642, 0.4309844, 0.65659255, -0.33540073, 0.52023566, 10.328405380249023, 1.6201108694076538, -3.0198538303375244, 51.20825958251953, -3.4800848960876465, 48.87909698486328, 
461, 3430139309, 0.4265383, 0.657084, -0.3372437, 0.52208495, 12.244362831115723, 3.4310131072998047, -1.2874915599822998, 21.150991439819336, -12.111589431762695, 29.026870727539062, 
462, 3430155976, 0.42352214, 0.6574572, -0.33893678, 0.5229732, 11.937606811523438, 2.430608034133911, -1.4258564710617065, 12.650816917419434, -12.268668174743652, 20.687807083129883, 
463, 3430172643, 0.4197516, 0.6577574, -0.3414504, 0.52399945, 9.814452171325684, 2.2618091106414795, -1.2933012247085571, 13.214625358581543, -15.521282196044922, 27.68202781677246, 
464, 3430189310, 0.41671243, 0.6570924, -0.34476417, 0.52508867, 9.11135482788086, 3.055925130844116, -1.1529492139816284, 4.382574558258057, -12.342911720275879, 31.119226455688477, 
465, 3430205977, 0.41408294, 0.6557455, -0.34905332, 0.526018, 8.508172035217285, 2.801048994064331, -0.7223008871078491, -3.325786828994751, -12.420440673828125, 35.226219177246094, 
466, 3430222644, 0.41171852, 0.6536618, -0.35349742, 0.52749765, 7.88914680480957, 2.858524799346924, -0.18007256090641022, -5.859461784362793, -7.079811096191406, 38.32007598876953, 
467, 3430239311, 0.40944776, 0.6516309, -0.3571196, 0.5293349, 7.643708229064941, 3.299952983856201, 0.24572519958019257, -2.281832695007324, -3.1165668964385986, 35.19416046142578, 
468, 3430255978, 0.40772998, 0.6501802, -0.35952374, 0.5308151, 8.30042839050293, 3.2305121421813965, 0.26278218626976013, 0.43331021070480347, -2.0542328357696533, 25.327707290649414, 
469, 3430272645, 0.40660068, 0.64908797, -0.3606272, 0.53226775, 8.47958755493164, 2.633409261703491, 0.14648525416851044, 3.4890167713165283, 1.6006799936294556, 16.433137893676758, 
470, 3430289312, 0.4054683, 0.64824617, -0.3609915, 0.5339077, 7.584753513336182, 2.5301122665405273, -0.3511945903301239, 7.3749847412109375, 3.5662829875946045, 13.069844245910645, 
471, 3430305979, 0.40380347, 0.64803815, -0.36060253, 0.5356821, 6.532625675201416, 2.3553712368011475, -0.07943680882453918, 14.615517616271973, 2.615187406539917, 10.492369651794434, 
472, 3430322646, 0.4018394, 0.64848906, -0.35893086, 0.5377322, 6.461651802062988, 2.1197054386138916, -0.03391211852431297, 23.18828773498535, 4.230419635772705, 5.035121440887451, 
473, 3430339313, 0.39910153, 0.64949566, -0.35506737, 0.5411106, 6.684237957000732, 3.257770538330078, -0.14090201258659363, 39.55805587768555, 12.240050315856934, 0.4447031617164612, 
474, 3430355980, 0.397931, 0.6497971, -0.3508341, 0.54436237, 6.888634204864502, 4.604104995727539, -0.23168572783470154, 31.694677352905273, 19.137744903564453, -5.624487400054932, 
475, 3430372647, 0.3985112, 0.6492403, -0.34602252, 0.5476719, 6.916004657745361, 4.066435813903809, -0.0214791651815176, 23.83350372314453, 28.410799026489258, -12.471589088439941, 
476, 3430389314, 0.3999134, 0.64823794, -0.3409364, 0.5510166, 6.273090839385986, 3.3397271633148193, -0.7750569581985474, 20.06623077392578, 32.950443267822266, -15.588495254516602, 
477, 3430405981, 0.40195182, 0.64685756, -0.3364935, 0.5538795, 6.333840847015381, 4.220006942749023, -1.4688677787780762, 12.62557601928711, 31.968000411987305, -15.531126022338867, 
478, 3430422648, 0.40438384, 0.64511615, -0.33234432, 0.5566384, 7.240002632141113, 4.622795581817627, -0.15323607623577118, 8.517481803894043, 32.999141693115234, -15.127388954162598, 
479, 3430439315, 0.40921497, 0.64191425, -0.32850957, 0.55908024, 7.957850933074951, 4.551685810089111, -0.032143473625183105, -8.11237907409668, 41.79030990600586, -20.407825469970703, 
480, 3430455982, 0.41542572, 0.6384362, -0.32302538, 0.561672, 8.92077922821045, 5.350914478302002, -0.5207690000534058, -8.298834800720215, 51.267601013183594, -31.897930145263672, 
481, 3430472649, 0.4230882, 0.6348296, -0.31558558, 0.5642638, 10.083242416381836, 5.672749996185303, 1.0388545989990234, -7.489255428314209, 60.581844329833984, -45.74824142456055, 
482, 3430489316, 0.43369243, 0.63079417, -0.30688366, 0.5655369, 11.690269470214844, 6.7944722175598145, 0.520804226398468, -19.541784286499023, 66.52912139892578, -65.5235824584961, 
483, 3430505983, 0.44818968, 0.62624276, -0.2966236, 0.564766, 13.161553382873535, 7.747682094573975, 1.6703704595565796, -36.22203826904297, 72.5258560180664, -92.36702728271484, 
484, 3430522650, 0.4669844, 0.6205956, -0.2859026, 0.56129014, 14.587926864624023, 6.749418258666992, 1.5769152641296387, -61.830833435058594, 75.29793548583984, -117.08202362060547, 
485, 3430539317, 0.4890946, 0.6137153, -0.27564466, 0.5551218, 14.8834810256958, 3.557267665863037, 0.6822624206542969, -87.02049255371094, 73.58076477050781, -134.09661865234375, 
486, 3430555984, 0.5111562, 0.6069932, -0.26618564, 0.5471965, 15.015861511230469, 0.5908551216125488, -0.35862892866134644, -92.65839385986328, 62.781925201416016, -136.7764892578125, 
487, 3430572651, 0.52983993, 0.6021961, -0.25724176, 0.5389401, 15.17049503326416, -0.39674127101898193, -1.0569708347320557, -74.33203125, 46.18419647216797, -126.67941284179688, 
488, 3430589318, 0.5448828, 0.60037667, -0.24772544, 0.530361, 15.095809936523438, 0.7384935617446899, -0.9957173466682434, -46.8501091003418, 29.50474739074707, -122.09127044677734, 
489, 3430605985, 0.55635166, 0.6020905, -0.23738182, 0.52116203, 15.669548034667969, 2.4591312408447266, -0.07987665385007858, -16.893917083740234, 11.123601913452148, -120.89507293701172, 
490, 3430622652, 0.56536436, 0.60586464, -0.22732271, 0.51148385, 15.225358009338379, 2.7259278297424316, 1.0171416997909546, -0.6443309187889099, -3.2958836555480957, -116.17725372314453, 
491, 3430639319, 0.57331216, 0.60928065, -0.22011109, 0.50163877, 13.406720161437988, 1.9765064716339111, 1.4378962516784668, -7.870208740234375, -15.43725872039795, -100.72563171386719, 
492, 3430655986, 0.58076537, 0.61105084, -0.21649665, 0.49239993, 11.23649787902832, 2.190535068511963, 1.5915766954421997, -23.760557174682617, -22.129945755004883, -79.13963317871094, 
493, 3430672653, 0.58734876, 0.6115829, -0.21533673, 0.48437375, 9.733510971069336, 3.0593154430389404, 1.7895498275756836, -31.536157608032227, -23.92584991455078, -59.253536224365234, 
494, 3430689320, 0.5943255, 0.61004037, -0.21667081, 0.47716004, 8.348057746887207, 2.7278201580047607, 1.7947231531143188, -48.721073150634766, -23.114229202270508, -43.77055358886719, 
495, 3430705987, 0.60156345, 0.6067547, -0.2204118, 0.47051996, 7.35438346862793, 1.3154929876327515, 1.2563129663467407, -64.043212890625, -24.470134735107422, -29.635343551635742, 
496, 3430722654, 0.6078905, 0.60257304, -0.22621965, 0.4649727, 6.596189975738525, -0.159369096159935, 0.7696047425270081, -68.82465362548828, -26.862092971801758, -12.214386940002441, 
497, 3430739321, 0.6121426, 0.5985934, -0.23357314, 0.4608806, 5.959140777587891, -0.5698325634002686, 0.9056509733200073, -62.19623565673828, -31.22545051574707, 6.512965679168701, 
498, 3430755988, 0.61377, 0.59554154, -0.24180724, 0.45841682, 5.7104997634887695, -0.5702865123748779, 1.215230107307434, -47.61518859863281, -35.35441970825195, 23.76821517944336, 
499, 3430772655, 0.6119572, 0.59438515, -0.25020105, 0.45783636, 5.550769329071045, -1.5284507274627686, 0.9089233875274658, -22.823747634887695, -39.97142028808594, 40.01969528198242, 
500, 3430789322, 0.60585344, 0.596408, -0.25895068, 0.458458, 5.852082252502441, -2.932729482650757, 0.5743430852890015, 9.277427673339844, -53.83468246459961, 54.54027557373047, 
501, 3430805989, 0.59592104, 0.60122263, -0.26677582, 0.4606955, 6.343687057495117, -3.1606826782226562, 0.6459825038909912, 42.10505294799805, -59.10639572143555, 64.46627807617188, 
502, 3430822656, 0.58333534, 0.6073613, -0.27326408, 0.4649289, 6.8023271560668945, -1.1044551134109497, 1.1519547700881958, 66.21321105957031, -54.51241683959961, 73.00404357910156, 
503, 3430839323, 0.57088405, 0.6122452, -0.27934232, 0.47033513, 6.801447868347168, 0.9030278921127319, 1.492362380027771, 64.1800308227539, -43.694664001464844, 77.8777847290039, 
504, 3430855990, 0.55709535, 0.6177927, -0.28486538, 0.47626537, 6.708770275115967, 2.141871929168701, 0.6879481673240662, 75.44757843017578, -43.95388412475586, 80.6353530883789, 
505, 3430872657, 0.5417084, 0.6238635, -0.2908486, 0.48244554, 7.165319919586182, 3.406100273132324, 0.5416489243507385, 83.55499267578125, -49.39888000488281, 87.75715637207031, 
506, 3430889324, 0.5258488, 0.629331, -0.29946616, 0.4875916, 7.609088897705078, 5.10333251953125, 1.095126986503601, 71.91240692138672, -62.79780578613281, 97.98405456542969, 
507, 3430905991, 0.5122403, 0.632328, -0.3089378, 0.49226904, 8.124103546142578, 5.799465179443359, 1.8914068937301636, 49.72601318359375, -54.9190559387207, 97.55091857910156, 
508, 3430922658, 0.5014595, 0.633295, -0.31627923, 0.49743667, 8.254549026489258, 5.956664085388184, 1.6646331548690796, 38.647911071777344, -32.40985870361328, 84.78992462158203, 
509, 3430939325, 0.49245813, 0.6337762, -0.3221413, 0.5020335, 8.48938274383545, 5.8644185066223145, 1.2736483812332153, 32.780174255371094, -24.351661682128906, 71.4059829711914, 
510, 3430955992, 0.4855881, 0.63383305, -0.32819572, 0.504725, 8.584521293640137, 5.4444427490234375, 0.9912900924682617, 17.413352966308594, -27.087852478027344, 59.407039642333984, 
511, 3430972659, 0.4797841, 0.6345686, -0.3338819, 0.5056211, 8.657026290893555, 5.195578575134277, 0.4379236698150635, 11.853270530700684, -33.72483825683594, 46.6424560546875, 
512, 3430989326, 0.47452873, 0.6357303, -0.33794978, 0.5064183, 8.769363403320312, 5.126214504241943, 1.3524036407470703, 16.398574829101562, -29.0220890045166, 36.39759063720703, 
513, 3431005993, 0.4694217, 0.63691896, -0.33945566, 0.5086725, 8.026083946228027, 4.245327949523926, 1.937657117843628, 28.30571937561035, -14.037747383117676, 29.40082359313965, 
514, 3431022660, 0.46274102, 0.6392288, -0.3387063, 0.51238215, 7.530580520629883, 2.585263252258301, 2.7675201892852783, 50.012115478515625, -8.024199485778809, 27.150226593017578, 
515, 3431039327, 0.45162633, 0.6442086, -0.3361567, 0.51771396, 8.7015380859375, 0.9880164265632629, 2.939476490020752, 88.11978149414062, -14.939356803894043, 33.819461822509766, 
516, 3431055994, 0.43203762, 0.6535479, -0.32906973, 0.5271925, 12.465563774108887, 1.511980652809143, -0.5094985961914062, 164.9088897705078, -17.636756896972656, 46.69642639160156, 
517, 3431072661, 0.41446403, 0.66190046, -0.32455355, 0.53364074, 13.642818450927734, 4.389048099517822, -2.912435293197632, 136.74908447265625, -30.758743286132812, 44.174869537353516, 
518, 3431089328, 0.41277578, 0.66374993, -0.32416773, 0.5328859, 11.818800926208496, 4.35968017578125, -1.8426347970962524, 14.688255310058594, -15.972867012023926, -1.301313042640686, 
519, 3431105995, 0.40956467, 0.6711536, -0.31748185, 0.5301083, 11.8267240524292, 2.6755287647247314, -2.9543488025665283, 55.98820495605469, -31.05251693725586, -42.56412887573242, 
520, 3431122662, 0.40987638, 0.67409784, -0.3154489, 0.5273381, 10.472599983215332, 0.6520255208015442, -3.3467488288879395, 10.2210054397583, -20.151796340942383, -24.171419143676758, 
521, 3431139329, 0.40565807, 0.67784196, -0.31450796, 0.5263617, 10.117512702941895, 1.1345003843307495, -2.2475714683532715, 33.41610336303711, -27.603986740112305, 0.6096182465553284, 
522, 3431155996, 0.40420705, 0.6803958, -0.31628403, 0.5231089, 20.04206085205078, 8.54542350769043, -0.3446075916290283, 2.41532039642334, -35.485076904296875, -0.5266250371932983, 
523, 3431172663, 0.41050315, 0.67804956, -0.31582105, 0.52152944, 23.532855987548828, 11.13403606414795, -1.5964267253875732, -35.735557556152344, 13.010370254516602, -23.510427474975586, 
524, 3431189330, 0.42242777, 0.6734705, -0.31862298, 0.51620895, 9.013317108154297, 0.6581346392631531, -0.9403480887413025, -88.08613586425781, 6.569807052612305, -34.119815826416016, 
525, 3431205997, 0.43060577, 0.6698985, -0.3208002, 0.51273966, 9.800135612487793, -4.389122009277344, -2.5226829051971436, -61.5321044921875, 5.178715705871582, -20.573091506958008, 
526, 3431222664, 0.42926943, 0.66869026, -0.32266024, 0.51426786, 11.868794441223145, -4.8746337890625, -3.660238742828369, 1.4083609580993652, -0.16119374334812164, 20.99863052368164, 
527, 3431239331, 0.42346996, 0.6678371, -0.32577232, 0.5182077, 10.75154972076416, -2.0221798419952393, -3.764202356338501, 23.873483657836914, -3.8929283618927, 48.77001953125, 
528, 3431255998, 0.417691, 0.6672683, -0.32957143, 0.52121985, 10.29032039642334, 1.8677239418029785, -2.0237302780151367, 20.052902221679688, -11.088053703308105, 48.46030044555664, 
529, 3431272665, 0.41484547, 0.6665294, -0.33418515, 0.5215, 11.640616416931152, 1.7944281101226807, -1.12576425075531, -3.009021520614624, -18.69123649597168, 34.21947479248047, 
530, 3431289332, 0.41156507, 0.6661926, -0.33847493, 0.5217627, 11.295495986938477, 0.28412318229675293, -1.2343430519104004, 1.2488754987716675, -20.288272857666016, 33.31389236450195, 
531, 3431305999, 0.40674892, 0.66621155, -0.34256378, 0.5228456, 9.881845474243164, 1.3345215320587158, -1.2228002548217773, 11.912273406982422, -20.81245231628418, 39.3718147277832, 
532, 3431322666, 0.40237513, 0.6656121, -0.34701923, 0.5240542, 9.434419631958008, 2.686455249786377, -0.7385092973709106, 7.128591537475586, -17.995609283447266, 41.26343536376953, 
533, 3431339333, 0.39807403, 0.66458493, -0.35123682, 0.5258298, 8.69497299194336, 2.6964282989501953, -0.3328897953033447, 7.820925235748291, -13.03240966796875, 42.51702880859375, 
534, 3431356000, 0.3933852, 0.66372997, -0.35469395, 0.52811253, 8.217385292053223, 2.6709811687469482, 0.0483609214425087, 14.035563468933105, -10.200911521911621, 41.43442916870117, 
535, 3431372667, 0.38889802, 0.66297126, -0.35703853, 0.5308024, 8.308965682983398, 3.045900344848633, 0.04702545702457428, 18.41607093811035, -5.205223083496094, 36.50992202758789, 
536, 3431389334, 0.3851394, 0.6624364, -0.358372, 0.53330594, 8.727901458740234, 3.377028703689575, 0.3124385178089142, 18.925024032592773, -2.3923892974853516, 28.220781326293945, 
537, 3431406001, 0.38248327, 0.6616592, -0.35873508, 0.5359319, 8.11400318145752, 3.460988759994507, 0.44952404499053955, 17.119094848632812, 4.322967529296875, 20.710975646972656, 
538, 3431422668, 0.38094214, 0.6606074, -0.35867316, 0.53836286, 6.763147830963135, 3.349107503890991, -0.159391850233078, 12.436861038208008, 8.298444747924805, 14.862899780273438, 
539, 3431439335, 0.37993044, 0.6598102, -0.35785192, 0.5405973, 6.510834217071533, 3.064147710800171, -0.3725244402885437, 13.007932662963867, 9.750811576843262, 8.347516059875488, 
540, 3431456002, 0.37891522, 0.6594727, -0.3561185, 0.5428616, 7.344808578491211, 2.701472282409668, -0.19728116691112518, 17.701993942260742, 10.54909896850586, 3.1990504264831543, 
541, 3431472669, 0.37767497, 0.6593561, -0.3530714, 0.5458498, 7.658898830413818, 2.318140745162964, 0.3439890444278717, 25.9951114654541, 15.872673034667969, -0.5505274534225464, 
542, 3431489336, 0.37628233, 0.6592634, -0.3484404, 0.5498844, 7.671669960021973, 3.054690361022949, -0.24775905907154083, 35.28713607788086, 24.2565975189209, -4.485184669494629, 
543, 3431506003, 0.3767407, 0.65841436, -0.3440309, 0.55335313, 6.896902084350586, 3.99204683303833, 0.40842071175575256, 22.694135665893555, 28.408010482788086, -10.09255599975586, 
544, 3431522670, 0.37834507, 0.6569674, -0.3392902, 0.5568942, 6.671332836151123, 2.891589879989624, -0.4166966378688812, 17.402997970581055, 34.568885803222656, -14.310752868652344, 
545, 3431539337, 0.37913677, 0.65586257, -0.33339322, 0.56120306, 6.084810256958008, 2.559506893157959, -1.0329041481018066, 28.17522621154785, 37.83951950073242, -15.193205833435059, 
546, 3431556004, 0.3806946, 0.65455705, -0.32864848, 0.5644617, 6.608913898468018, 2.8971197605133057, -1.222482442855835, 17.350055694580078, 32.64209747314453, -15.208608627319336, 
547, 3431572671, 0.38284445, 0.65276045, -0.32448176, 0.5674906, 7.8147873878479, 3.9038546085357666, -0.9746370911598206, 10.636129379272461, 33.35045623779297, -14.368270874023438, 
548, 3431589338, 0.38606265, 0.65036994, -0.3211931, 0.5699208, 8.678903579711914, 4.361386299133301, -0.7797443866729736, -0.48714298009872437, 33.061031341552734, -14.813800811767578, 
549, 3431606005, 0.39038414, 0.64739645, -0.31723174, 0.57257515, 9.110810279846191, 4.393496990203857, 0.015613451600074768, -3.8470618724823, 40.57730484008789, -20.223798751831055, 
550, 3431622672, 0.396355, 0.6436222, -0.31175008, 0.5757301, 9.41523265838623, 4.287945747375488, 0.14372417330741882, -6.237678527832031, 53.63400650024414, -30.360464096069336, 
551, 3431639339, 0.4039032, 0.6396241, -0.3041161, 0.5790136, 10.204755783081055, 5.843786239624023, 1.0345425605773926, -5.0574727058410645, 64.33348846435547, -45.264949798583984, 
552, 3431656006, 0.41456944, 0.6354299, -0.2940089, 0.5813087, 11.947806358337402, 7.609741687774658, 2.242124319076538, -11.51633071899414, 74.14495849609375, -70.84333038330078, 
553, 3431672673, 0.4295769, 0.63060534, -0.28178507, 0.58171964, 12.60873794555664, 7.33253812789917, 2.4189040660858154, -27.60567283630371, 83.22442626953125, -101.48086547851562, 
554, 3431689340, 0.44915777, 0.6249852, -0.2690801, 0.57900506, 13.518315315246582, 5.466851711273193, 1.5631730556488037, -53.85701370239258, 83.12586212158203, -129.501953125, 
555, 3431706007, 0.47081378, 0.6189624, -0.25709072, 0.57369345, 15.466727256774902, 2.6014230251312256, -0.18933260440826416, -71.7382583618164, 75.17913055419922, -141.95257568359375, 
556, 3431722674, 0.4907135, 0.61353844, -0.24671082, 0.56736666, 16.28084373474121, 0.169986754655838, -2.2824254035949707, -70.47061157226562, 60.197471618652344, -132.54771423339844, 
557, 3431739341, 0.50828373, 0.60949326, -0.2377555, 0.56003374, 16.1671142578125, 0.4447394907474518, -1.894482970237732, -62.864959716796875, 41.95700454711914, -123.20360565185547, 
558, 3431756008, 0.5217062, 0.60943234, -0.22838777, 0.5515922, 17.432415008544922, 2.796473979949951, -0.8247658014297485, -32.30805206298828, 16.546802520751953, -119.46947479248047, 
559, 3431772675, 0.5313911, 0.6133036, -0.21834166, 0.5420419, 16.461624145507812, 3.380131244659424, -0.32254424691200256, -1.20795476436615, -6.2509989738464355, -118.27265167236328, 
560, 3431789342, 0.5405661, 0.61741173, -0.20984523, 0.53156006, 14.317794799804688, 2.1401379108428955, 1.3402966260910034, -5.762140274047852, -17.575742721557617, -113.68991088867188, 
561, 3431806009, 0.54878646, 0.6200451, -0.20463409, 0.5220177, 12.379891395568848, 2.033296585083008, 1.776113748550415, -17.576231002807617, -21.6710262298584, -90.65371704101562, 
562, 3431822676, 0.55576736, 0.6215775, -0.2017709, 0.5138604, 10.52965259552002, 3.498426675796509, 1.7750523090362549, -23.33470344543457, -22.574913024902344, -69.51802062988281, 
563, 3431839343, 0.5636795, 0.62045527, -0.20097563, 0.5068625, 9.025070190429688, 3.5534818172454834, 1.876476526260376, -42.399070739746094, -14.531064987182617, -55.79399108886719, 
564, 3431856010, 0.57360137, 0.615794, -0.2030583, 0.50054646, 7.957335948944092, 2.5762109756469727, 1.8153105974197388, -73.97938537597656, -7.74969482421875, -43.02969741821289, 
565, 3431872677, 0.58390987, 0.6090534, -0.20756724, 0.49499404, 7.1934404373168945, 1.6742323637008667, 1.4633489847183228, -90.92192077636719, -6.31321382522583, -28.17647933959961, 
566, 3431889344, 0.5925984, 0.60215366, -0.21445008, 0.4901524, 6.558788776397705, 0.5841445922851562, 1.4748178720474243, -92.01300048828125, -14.713811874389648, -9.691082000732422, 
567, 3431906011, 0.5988674, 0.59596854, -0.22315799, 0.48618922, 6.120888710021973, -0.17286451160907745, 1.7417575120925903, -84.2454605102539, -24.626388549804688, 8.461496353149414, 
568, 3431922678, 0.60153836, 0.5922589, -0.23224415, 0.48316038, 5.7894439697265625, -1.228580355644226, 0.791483461856842, -59.07524108886719, -36.12841033935547, 22.053857803344727, 
569, 3431939345, 0.5986047, 0.5932905, -0.23947152, 0.48200855, 5.455692768096924, -2.9309134483337402, -0.9191167950630188, -7.37085485458374, -45.44728088378906, 33.265045166015625, 
570, 3431956012, 0.5899227, 0.59919935, -0.24446541, 0.48289546, 4.851592063903809, -4.120267868041992, -1.4975093603134155, 46.843406677246094, -53.57575607299805, 43.495338439941406, 
571, 3431972679, 0.57676035, 0.6080008, -0.24825002, 0.48585436, 4.882413387298584, -3.753697395324707, -0.7694995999336243, 84.43756103515625, -57.290374755859375, 56.855445861816406, 
572, 3431989346, 0.56109154, 0.61696064, -0.2521155, 0.49089062, 5.346950054168701, -0.9364052414894104, 0.40327879786491394, 98.73681640625, -53.758209228515625, 73.47020721435547, 
573, 3432006013, 0.5458236, 0.6235525, -0.2576822, 0.49684903, 5.999407768249512, 1.5867477655410767, 1.2623404264450073, 83.67233276367188, -47.75624084472656, 86.96155548095703, 
574, 3432022680, 0.53258103, 0.6272326, -0.26522866, 0.5025839, 6.593321800231934, 3.253080129623413, 1.5503039360046387, 57.01121520996094, -42.583187103271484, 92.84574127197266, 
575, 3432039347, 0.52126163, 0.6288098, -0.27520937, 0.5070941, 7.193594455718994, 3.7914962768554688, 1.1319639682769775, 29.51753044128418, -46.269447326660156, 96.03893280029297, 
576, 3432056014, 0.5100401, 0.6298479, -0.28725415, 0.510525, 7.309049606323242, 2.966869592666626, -0.2835276126861572, 19.100008010864258, -55.94333267211914, 101.79972076416016, 
577, 3432072681, 0.49988493, 0.62944376, -0.30061686, 0.51336646, 7.23693323135376, 2.1414847373962402, 0.22637110948562622, 3.3768749237060547, -56.012123107910156, 104.54470825195312, 
578, 3432089348, 0.49202862, 0.6266142, -0.3142569, 0.51624143, 7.925538539886475, 1.9907538890838623, 1.2862290143966675, -15.974079132080078, -43.53916931152344, 102.76008605957031, 
579, 3432106015, 0.48416913, 0.62386763, -0.32657972, 0.5193411, 9.32491397857666, 3.104851007461548, 2.115447759628296, -9.995293617248535, -38.33756637573242, 97.6496353149414, 
580, 3432122682, 0.47543573, 0.62291515, -0.33648357, 0.52222276, 10.100627899169922, 5.176112651824951, 2.156508684158325, 7.345846176147461, -39.69707489013672, 85.6657485961914, 
581, 3432139349, 0.46656555, 0.624794, -0.3434047, 0.5234715, 9.047589302062988, 6.180106163024902, 1.1439565420150757, 23.802040100097656, -47.481632232666016, 61.54185485839844, 
582, 3432156016, 0.45672816, 0.62997586, -0.34727883, 0.52338076, 7.223032474517822, 6.416909694671631, 0.799684464931488, 46.87104415893555, -57.58979415893555, 39.85000991821289, 
583, 3432172683, 0.44712973, 0.6355174, -0.3503178, 0.5229439, 6.364145278930664, 5.874732971191406, 1.7974077463150024, 49.31956481933594, -57.18824005126953, 33.46102523803711, 
584, 3432189350, 0.43880087, 0.639403, -0.35359102, 0.5230593, 6.8856120109558105, 4.706387996673584, 2.6777422428131104, 38.846858978271484, -46.53508758544922, 35.6873893737793, 
585, 3432206017, 0.42917037, 0.643094, -0.35343137, 0.52662057, 11.037935256958008, 4.76707124710083, 3.322812080383301, 64.10476684570312, -23.569175720214844, 36.257083892822266, 
586, 3432222684, 0.41561145, 0.64871323, -0.34630018, 0.5352705, 14.596964836120605, 4.90546989440918, 0.4961203336715698, 125.89192962646484, 2.999417781829834, 29.890602111816406, 
587, 3432239351, 0.40465513, 0.65779173, -0.3420853, 0.5352963, 15.305578231811523, 1.756636381149292, -3.7098031044006348, 92.14517974853516, -50.39094543457031, 0.5689249634742737, 
588, 3432256018, 0.40335077, 0.6601403, -0.33630583, 0.5370489, 14.544864654541016, 1.3228163719177246, 2.9368205070495605, 40.0786247253418, 9.293388366699219, -21.466358184814453, 
589, 3432272685, 0.40544528, 0.6639727, -0.33239675, 0.5331668, 10.928679466247559, 7.006018161773682, -5.377152919769287, 8.617108345031738, -19.14105987548828, -44.56348419189453, 
590, 3432289352, 0.40812388, 0.6695273, -0.32733947, 0.5272733, 14.596685409545898, 2.9136600494384766, -1.6727614402770996, 10.473926544189453, -30.043916702270508, -61.452762603759766, 
591, 3432306019, 0.41524154, 0.66863394, -0.32640293, 0.523416, 13.936073303222656, 0.3145143389701843, 0.6539921760559082, -38.25686264038086, 1.1517894268035889, -38.37493896484375, 
592, 3432322686, 0.41745013, 0.669897, -0.3221456, 0.5226812, 17.649045944213867, 4.328135967254639, -0.8911156058311462, 9.195963859558105, 6.1728835105896, -31.89363670349121, 
593, 3432339353, 0.4268611, 0.66641855, -0.3196385, 0.52106357, 14.119038581848145, -1.1471232175827026, -2.8442554473876953, -45.89688491821289, 30.061561584472656, -41.73600387573242, 
594, 3432356020, 0.4306891, 0.66494006, -0.31668586, 0.521605, 11.364524841308594, -4.529851913452148, -4.612215995788574, -8.007621765136719, 21.857833862304688, -21.893543243408203, 
595, 3432372687, 0.42792413, 0.66578895, -0.3155666, 0.52347296, 11.593177795410156, -3.03587007522583, -4.5118489265441895, 25.47332763671875, -0.15171080827713013, 8.903726577758789, 
596, 3432389354, 0.42168912, 0.6673347, -0.31662783, 0.5259179, 12.318120956420898, -1.3698978424072266, -2.9395174980163574, 35.753173828125, -14.048137664794922, 31.63416862487793, 
597, 3432406021, 0.41448584, 0.66820973, -0.31963032, 0.52870965, 11.78756046295166, 1.4349855184555054, -2.5737059116363525, 32.71511459350586, -17.663349151611328, 46.376548767089844, 
598, 3432422688, 0.40953112, 0.66782844, -0.32438436, 0.5301549, 12.26550579071045, 2.7169764041900635, -1.2940640449523926, 9.363783836364746, -19.327844619750977, 45.17705535888672, 
599, 3432439355, 0.4061995, 0.66646993, -0.32962075, 0.53119683, 11.032689094543457, 1.9849979877471924, -1.3739633560180664, -3.3943989276885986, -15.343297958374023, 42.50896072387695, 
600, 3432456022, 0.40188265, 0.6654826, -0.3344357, 0.5327065, 9.180349349975586, 1.407232403755188, -1.6587661504745483, 4.455780506134033, -15.626470565795898, 44.68269348144531, 
601, 3432472689, 0.39722508, 0.66477835, -0.33908737, 0.53413653, 9.07504653930664, 2.276689291000366, -1.5952049493789673, 7.559502124786377, -17.329652786254883, 44.25910568237305, 
602, 3432489356, 0.3928687, 0.6637344, -0.34402815, 0.53549576, 9.131202697753906, 2.6783270835876465, -0.9316748380661011, 4.287069320678711, -16.476104736328125, 45.04288101196289, 
603, 3432506023, 0.3885557, 0.66226625, -0.34900123, 0.5372395, 8.133378982543945, 2.35699725151062, -0.27096059918403625, 3.7336392402648926, -13.148941993713379, 47.085227966308594, 
604, 3432522690, 0.38457173, 0.6607797, -0.35387537, 0.5387458, 7.622568130493164, 2.895012140274048, -0.35284149646759033, 1.7434953451156616, -13.120545387268066, 44.8787727355957, 
605, 3432539357, 0.38178006, 0.6591545, -0.35826826, 0.53981787, 7.9845991134643555, 2.9107460975646973, 0.00427287258207798, -2.817706823348999, -10.410735130310059, 37.40497970581055, 
606, 3432556024, 0.38027367, 0.6571926, -0.36186716, 0.5408714, 7.89992618560791, 2.308375835418701, 0.3039585053920746, -7.110301971435547, -4.002945423126221, 29.914958953857422, 
607, 3432572691, 0.37931383, 0.6552207, -0.36456686, 0.5421236, 7.190605640411377, 2.281374454498291, -0.08419135957956314, -5.479374885559082, 0.6246631145477295, 24.332378387451172, 
608, 3432589358, 0.3778356, 0.65398955, -0.36583528, 0.54378545, 7.452703475952148, 2.48154616355896, -0.534986138343811, 5.290637493133545, 2.1324331760406494, 19.02204704284668, 
609, 3432606025, 0.37610283, 0.653356, -0.36612347, 0.5455513, 8.05038070678711, 2.4315967559814453, -0.2253936231136322, 11.146602630615234, 2.2865827083587646, 14.471927642822266, 
610, 3432622692, 0.37434548, 0.6527407, -0.36565003, 0.5478095, 8.044313430786133, 2.260512590408325, -0.29101404547691345, 15.872015953063965, 6.317747116088867, 12.316391944885254, 
611, 3432639359, 0.3720671, 0.65255255, -0.36393183, 0.5507222, 7.353376865386963, 2.60390043258667, -0.4092177152633667, 25.460134506225586, 9.540861129760742, 9.348368644714355, 
612, 3432656026, 0.3702564, 0.65225095, -0.36123195, 0.55406713, 6.942445755004883, 2.6204683780670166, 0.3335909843444824, 27.334211349487305, 15.60900592803955, 4.663942813873291, 
613, 3432672693, 0.37056342, 0.6508206, -0.35857695, 0.5572593, 6.550858497619629, 2.616241931915283, -0.3208198547363281, 14.869301795959473, 24.339893341064453, -0.8329144716262817, 
614, 3432689360, 0.3701666, 0.6496098, -0.35470518, 0.5613984, 6.078599452972412, 2.3731801509857178, -1.087181806564331, 24.833999633789062, 29.1250057220459, -1.592311143875122, 
615, 3432706027, 0.3695932, 0.64824826, -0.3514795, 0.5653648, 5.78144645690918, 2.678419828414917, -1.9570307731628418, 23.498458862304688, 26.826765060424805, 1.774219036102295, 
616, 3432722694, 0.36962393, 0.6464778, -0.34943447, 0.5686302, 6.664031028747559, 3.5489578247070312, -1.8939759731292725, 13.206216812133789, 23.776771545410156, 3.9523508548736572, 
617, 3432739361, 0.3705069, 0.64439774, -0.34795067, 0.57131994, 7.847014904022217, 4.584343433380127, -1.3334733247756958, 4.259291648864746, 23.097444534301758, 2.5092620849609375, 
618, 3432756028, 0.3735139, 0.64136314, -0.34728998, 0.57317585, 8.51634407043457, 4.69053840637207, -1.6803852319717407, -11.166521072387695, 26.08016586303711, -2.153540849685669, 
619, 3432772695, 0.37812322, 0.6377066, -0.34632647, 0.57481396, 8.781516075134277, 4.475286960601807, -0.6188045144081116, -20.272951126098633, 32.22770690917969, -8.73482894897461, 
620, 3432789362, 0.3837381, 0.6337192, -0.34402916, 0.5768786, 8.939777374267578, 3.9107654094696045, -1.7059561014175415, -19.106159210205078, 41.2632942199707, -16.638240814208984, 
621, 3432806029, 0.38983166, 0.63051975, -0.34022853, 0.5785506, 10.19481372833252, 4.2113165855407715, -1.807322382926941, -14.051409721374512, 41.53701400756836, -27.960790634155273, 
622, 3432822696, 0.39842084, 0.6274084, -0.3357739, 0.57868433, 12.71269416809082, 5.648311614990234, -0.6507745981216431, -25.209035873413086, 42.11668395996094, -45.044677734375, 
623, 3432839363, 0.41058844, 0.62385595, -0.33079827, 0.5768825, 13.962268829345703, 6.333005905151367, 0.1391070932149887, -44.87615966796875, 45.218788146972656, -65.74760437011719, 
624, 3432856030, 0.42752022, 0.61963195, -0.32602942, 0.5718282, 14.921953201293945, 4.935607433319092, 1.3998167514801025, -74.98027801513672, 44.184513092041016, -91.38761901855469, 
625, 3432872697, 0.44782588, 0.6143967, -0.32139584, 0.5645118, 16.093448638916016, 1.8231399059295654, 0.7652183175086975, -97.35073852539062, 45.71189880371094, -108.44385528564453, 
626, 3432889364, 0.4677238, 0.6095196, -0.3157394, 0.55680245, 16.377944946289062, -1.5975966453552246, -1.2579052448272705, -92.80814361572266, 44.800392150878906, -113.20023345947266, 
627, 3432906031, 0.48394778, 0.60705924, -0.30930755, 0.5491835, 19.182809829711914, -1.695137619972229, -1.0315109491348267, -64.2522964477539, 30.714698791503906, -107.34909057617188, 
628, 3432922698, 0.4976878, 0.6061314, -0.30223098, 0.54181916, 18.61305809020996, -0.20527593791484833, -0.001637633889913559, -47.16746139526367, 22.713905334472656, -103.16273498535156, 
629, 3432939365, 0.5107776, 0.60635805, -0.2953632, 0.5331014, 16.5494384765625, -0.2712973356246948, 0.5781877636909485, -42.10866928100586, 11.100052833557129, -106.8692626953125, 
630, 3432956032, 0.52262235, 0.6069758, -0.28966656, 0.52396524, 15.128674507141113, -0.29233652353286743, 0.721592128276825, -42.66978454589844, 0.9296771287918091, -99.8200912475586, 
631, 3432972699, 0.53230983, 0.60811687, -0.28603154, 0.51480705, 13.593260765075684, 0.08834898471832275, 0.0077692437916994095, -37.99783706665039, -12.430007934570312, -84.55390167236328, 
632, 3432989366, 0.5404075, 0.6088824, -0.28387865, 0.50659156, 13.089387893676758, 0.7413697242736816, 0.09813468158245087, -36.205074310302734, -15.682717323303223, -68.59014129638672, 
633, 3433006033, 0.54875803, 0.6078082, -0.28342354, 0.49910432, 12.060928344726562, 1.062145709991455, 0.5245898962020874, -50.855690002441406, -12.64881420135498, -56.219451904296875, 
634, 3433022700, 0.55912226, 0.60299844, -0.28697926, 0.491343, 10.340591430664062, -0.13873369991779327, 0.9673863053321838, -87.00359344482422, -11.987404823303223, -40.12870407104492, 
635, 3433039367, 0.57133704, 0.59410876, -0.29395005, 0.48394433, 9.205958366394043, -1.778638243675232, 1.6749240159988403, -120.44580078125, -5.947225570678711, -22.779348373413086, 
636, 3433056034, 0.582037, 0.5843906, -0.30173346, 0.47820246, 8.972054481506348, -2.6253206729888916, 2.044482946395874, -117.66938018798828, -2.9233851432800293, -6.339108467102051, 
637, 3433072701, 0.58844405, 0.57760125, -0.30822945, 0.47445238, 8.015361785888672, -3.1669423580169678, 1.0972211360931396, -79.98027038574219, -8.19763469696045, 4.462711334228516, 
638, 3433089368, 0.5886536, 0.5766287, -0.31260365, 0.47250956, 6.93358850479126, -2.8577864170074463, 0.16819052398204803, -21.040279388427734, -24.525630950927734, 11.183631896972656, 
639, 3433106035, 0.5836379, 0.5806364, -0.31510207, 0.47216418, 6.516830921173096, -0.9625095725059509, 0.7313277125358582, 29.346908569335938, -38.00722122192383, 16.432634353637695, 
640, 3433122702, 0.576182, 0.58660585, -0.31687537, 0.47275567, 7.273708820343018, 1.2982088327407837, 1.708380103111267, 51.346343994140625, -43.01551818847656, 20.938318252563477, 
641, 3433139369, 0.5693856, 0.5915019, -0.3181309, 0.47404468, 8.53648853302002, 3.253866195678711, 2.707508087158203, 47.61520767211914, -33.244449615478516, 21.79357147216797, 
642, 3433156036, 0.5656117, 0.59282035, -0.3195821, 0.4759356, 9.2188138961792, 4.054690837860107, 2.5756173133850098, 22.066194534301758, -13.291190147399902, 22.922521591186523, 
643, 3433172703, 0.5659914, 0.5895658, -0.32290277, 0.47728366, 8.799310684204102, 3.656643867492676, 1.2317757606506348, -19.979156494140625, 1.2940542697906494, 24.892513275146484, 
644, 3433189370, 0.5687522, 0.5842549, -0.32784206, 0.47716522, 8.198230743408203, 2.301997184753418, -0.12448972463607788, -46.20307540893555, 1.0840611457824707, 22.502573013305664, 
645, 3433206037, 0.57063764, 0.5801642, -0.33253136, 0.47666055, 8.239041328430176, 1.156376600265503, -0.5451462864875793, -37.95235824584961, -5.44954776763916, 20.1053524017334, 
646, 3433222704, 0.5711529, 0.5774379, -0.33698064, 0.47622904, 8.561173439025879, 0.5725445747375488, -0.06385435909032822, -26.122892379760742, -11.78686237335205, 20.793128967285156, 
