sep=,
DeviceTag:,Pelvis - 7,,,,,,,,,,,,,,,,,
FirmwareVersion:,3.0.0,,,,,,,,,,,,,,,,,
AppVersion:,2023.6.1,,,,,,,,,,,,,,,,,
StartTime:,2024-05-23 12:04:51.000 +0200,,,,,,,,,,,,,,,,,
 2024,,,,,,,,,,,,,,,,,,,

PacketCounter,SampleTimeFine,Quat_W,Quat_X,Quat_Y,Quat_Z,Acc_X,Acc_Y,Acc_Z,Gyr_X,Gyr_Y,Gyr_Z,
0, 3426098590, 0.20601563, -0.5288281, -0.18922506, -0.801307, 0.0, 0.0, 0.0, 0.0, 0.0, 0.0, 
1, 3426115257, 0.20579037, -0.52926874, -0.18909545, -0.8011043, 9.160755157470703, 0.8421902656555176, 3.638535976409912, 2.3029725551605225, -2.8815183639526367, 1.8888531923294067, 
2, 3426131924, 0.2061238, -0.5297735, -0.18935613, -0.80062324, 9.24258804321289, 0.8099347949028015, 3.6407620906829834, 2.020285129547119, -3.863100051879883, 1.953423023223877, 
3, 3426148591, 0.2062171, -0.53032535, -0.18915717, -0.80028075, 9.248007774353027, 0.8408289551734924, 3.5889248847961426, 2.640228033065796, -2.1270196437835693, 1.9678819179534912, 
4, 3426165258, 0.20574433, -0.5311771, -0.1889024, -0.7998978, 9.190710067749023, 0.8132071495056152, 3.5973072052001953, 3.1381001472473145, -3.012937545776367, 1.944689393043518, 
5, 3426181925, 0.20571062, -0.5319211, -0.18892203, -0.7994069, 9.204256057739258, 0.8578630089759827, 3.5987634658813477, 3.0850563049316406, -3.947096824645996, 2.008413791656494, 
6, 3426198592, 0.20546229, -0.53253007, -0.18889111, -0.79907286, 9.290751457214355, 0.824211597442627, 3.5731420516967773, 3.0761044025421143, -3.4463939666748047, 1.9693926572799683, 
7, 3426215259, 0.20565626, -0.53290385, -0.18919523, -0.7987016, 9.191455841064453, 0.8361417651176453, 3.535964012145996, 4.327067852020264, -2.272141218185425, 1.7472538948059082, 
8, 3426231926, 0.20555086, -0.533716, -0.18942627, -0.7981314, 9.287391662597656, 0.8456947207450867, 3.604901075363159, 3.8248538970947266, -5.697135925292969, 1.9024027585983276, 
9, 3426248593, 0.20547533, -0.53408474, -0.18943153, -0.7979028, 9.317057609558105, 0.819724977016449, 3.5522453784942627, 3.4721601009368896, -2.0691988468170166, 2.126814603805542, 
10, 3426265260, 0.2055846, -0.53442204, -0.18957596, -0.7976147, 9.270893096923828, 0.8032644391059875, 3.5243406295776367, 4.566558837890625, -2.0961434841156006, 2.34354305267334, 
11, 3426281927, 0.20581847, -0.53480923, -0.18982871, -0.79723454, 9.238035202026367, 0.841878354549408, 3.5588090419769287, 5.129770755767822, -2.748192071914673, 2.4720168113708496, 
12, 3426298594, 0.20588541, -0.53532, -0.18997228, -0.7968403, 9.285768508911133, 0.8433325886726379, 3.6088058948516846, 4.712231636047363, -3.7006516456604004, 2.6107349395751953, 
13, 3426315261, 0.20618775, -0.53557205, -0.19020833, -0.79653627, 9.277023315429688, 0.8599081635475159, 3.6113784313201904, 4.469742774963379, -2.242724895477295, 2.4357614517211914, 
14, 3426331928, 0.20617203, -0.5358851, -0.19028774, -0.796311, 9.191102981567383, 0.8953422904014587, 3.6309778690338135, 4.561308860778809, -2.5170114040374756, 2.2110354900360107, 
15, 3426348595, 0.20618245, -0.536224, -0.19048558, -0.7960327, 9.20765495300293, 0.8702148199081421, 3.6459662914276123, 4.329026222229004, -3.370798110961914, 1.8172659873962402, 
16, 3426365262, 0.20615408, -0.53648853, -0.19061671, -0.7958302, 9.261388778686523, 0.8553411960601807, 3.6233022212982178, 3.9400856494903564, -2.8589282035827637, 1.7320528030395508, 
17, 3426381929, 0.20628925, -0.5366973, -0.19080645, -0.7956092, 9.257266998291016, 0.8508495092391968, 3.6096689701080322, 4.188899517059326, -2.6433334350585938, 2.0534794330596924, 
18, 3426398596, 0.20650345, -0.5369115, -0.19109797, -0.7953391, 9.246722221374512, 0.9032528400421143, 3.599090576171875, 4.544403553009033, -2.9808189868927, 1.9547677040100098, 
19, 3426415263, 0.20667244, -0.5371019, -0.19137412, -0.7951001, 9.251363754272461, 0.9022266268730164, 3.6029727458953857, 4.117831230163574, -2.8064990043640137, 1.694344401359558, 
20, 3426431930, 0.20666224, -0.5373409, -0.19150002, -0.79491097, 9.19503402709961, 0.9067836999893188, 3.5845913887023926, 3.5159008502960205, -2.8365302085876465, 1.6829787492752075, 
21, 3426448597, 0.20668715, -0.5376308, -0.19168326, -0.7946642, 9.222341537475586, 0.8881720304489136, 3.5732502937316895, 3.273463249206543, -3.4393882751464844, 1.5916435718536377, 
22, 3426465264, 0.2065444, -0.5378807, -0.19178137, -0.7945085, 9.219947814941406, 0.8592653274536133, 3.555565595626831, 3.667219638824463, -2.838066339492798, 1.3794550895690918, 
23, 3426481931, 0.20661522, -0.5382062, -0.19205616, -0.79420334, 9.248455047607422, 0.8318970799446106, 3.5642669200897217, 3.72593092918396, -3.908370018005371, 1.5000333786010742, 
24, 3426498598, 0.20673929, -0.53842473, -0.19228908, -0.7939666, 9.332085609436035, 0.8248329162597656, 3.5176427364349365, 3.9106688499450684, -2.9110629558563232, 1.6994221210479736, 
25, 3426515265, 0.20684418, -0.5386051, -0.19250004, -0.7937658, 9.305923461914062, 0.8320247530937195, 3.5053486824035645, 4.270079135894775, -2.4422478675842285, 1.7092958688735962, 
26, 3426531932, 0.20712735, -0.53888065, -0.1928863, -0.79341084, 9.298284530639648, 0.8860259056091309, 3.52854323387146, 4.6136474609375, -3.6038990020751953, 1.83454167842865, 
27, 3426548599, 0.20737758, -0.53911346, -0.19317839, -0.7931165, 9.299383163452148, 0.937090277671814, 3.5582449436187744, 4.267735481262207, -3.000591993331909, 1.9780241250991821, 
28, 3426565266, 0.20737013, -0.5394479, -0.19325402, -0.7928723, 9.278258323669434, 0.9423484206199646, 3.5729823112487793, 3.6509945392608643, -3.2451934814453125, 2.1103010177612305, 
29, 3426581933, 0.2074398, -0.539744, -0.19336314, -0.792626, 9.3111572265625, 0.933249831199646, 3.5583667755126953, 3.227642059326172, -3.087841510772705, 2.0411977767944336, 
30, 3426598600, 0.20755872, -0.5398989, -0.19349232, -0.79245794, 9.300158500671387, 0.9360913038253784, 3.600367307662964, 3.195164680480957, -2.0259006023406982, 1.7999004125595093, 
31, 3426615267, 0.20756021, -0.54001343, -0.19351454, -0.7923739, 9.219548225402832, 0.9208379983901978, 3.5536365509033203, 2.8557844161987305, -1.4570295810699463, 1.6669065952301025, 
32, 3426631934, 0.20750165, -0.54023784, -0.19354868, -0.79222804, 9.2125244140625, 0.8649518489837646, 3.5086116790771484, 2.176913022994995, -2.432405948638916, 1.3741470575332642, 
33, 3426648601, 0.2075885, -0.54038644, -0.19368955, -0.7920695, 9.257160186767578, 0.8133352994918823, 3.4988222122192383, 2.727701425552368, -2.077068567276001, 1.4113878011703491, 
34, 3426665268, 0.20767681, -0.5406767, -0.19385809, -0.79180694, 9.270241737365723, 0.9130018353462219, 3.5467281341552734, 3.1377031803131104, -3.226444721221924, 1.720898151397705, 
35, 3426681935, 0.20766668, -0.54094636, -0.19385184, -0.791627, 9.353728294372559, 0.9310614466667175, 3.530982494354248, 2.6846909523010254, -2.607654333114624, 2.0367281436920166, 
36, 3426698602, 0.20773123, -0.54104805, -0.19387718, -0.7915341, 9.285624504089355, 0.9173993468284607, 3.529404878616333, 2.742236375808716, -1.344538688659668, 1.7966156005859375, 
37, 3426715269, 0.20781238, -0.5412449, -0.19397348, -0.7913546, 9.354700088500977, 0.8949655294418335, 3.5040197372436523, 2.876293182373047, -2.286919355392456, 1.7704521417617798, 
38, 3426731936, 0.20785946, -0.54136795, -0.19404559, -0.79124045, 9.257784843444824, 0.8763383030891418, 3.5002894401550293, 2.8736491203308105, -1.6114357709884644, 1.5609468221664429, 
39, 3426748603, 0.20795405, -0.5416033, -0.1942194, -0.791012, 9.263250350952148, 0.877784252166748, 3.492331027984619, 3.446413278579712, -2.735206365585327, 1.6869999170303345, 
40, 3426765270, 0.20811062, -0.54177517, -0.19438623, -0.790812, 9.258617401123047, 0.9424699544906616, 3.5429978370666504, 2.905703544616699, -2.2515103816986084, 1.6310235261917114, 
41, 3426781937, 0.20809025, -0.54195386, -0.19441739, -0.7906874, 9.29464054107666, 1.021108865737915, 3.519015312194824, 2.5889639854431152, -1.9552479982376099, 1.514485478401184, 
42, 3426798604, 0.20803963, -0.54211295, -0.19445379, -0.79058254, 9.275904655456543, 1.0197166204452515, 3.5396246910095215, 2.275374412536621, -1.8381977081298828, 1.2255101203918457, 
43, 3426815271, 0.20798129, -0.5422968, -0.19453362, -0.7904521, 9.279914855957031, 1.0017225742340088, 3.5377888679504395, 2.2848126888275146, -2.163696765899658, 1.04891037940979, 
44, 3426831938, 0.20791094, -0.54252446, -0.19459023, -0.79030067, 9.312642097473145, 0.9436091184616089, 3.5150516033172607, 1.9785747528076172, -2.475287914276123, 1.1418333053588867, 
45, 3426848605, 0.20780227, -0.5427532, -0.19455914, -0.79017955, 9.292010307312012, 0.9486040472984314, 3.5171010494232178, 1.4362258911132812, -2.279850482940674, 1.2613550424575806, 
46, 3426865272, 0.20770787, -0.54287076, -0.1944976, -0.7901389, 9.285922050476074, 0.9412885904312134, 3.511176824569702, 1.413507342338562, -1.3108323812484741, 1.2033807039260864, 
47, 3426881939, 0.20762679, -0.5429391, -0.19443795, -0.7901279, 9.197025299072266, 0.9733791351318359, 3.4960970878601074, 1.4244180917739868, -0.9231328368186951, 1.131869912147522, 
48, 3426898606, 0.20748681, -0.543265, -0.1943935, -0.7899516, 9.238566398620605, 0.9644941091537476, 3.5596840381622314, 1.0655715465545654, -3.049665689468384, 1.3164862394332886, 
49, 3426915273, 0.20736538, -0.54347056, -0.19429429, -0.7898665, 9.263287544250488, 0.9599781036376953, 3.577122688293457, 0.8177430629730225, -1.9723955392837524, 1.3098527193069458, 
50, 3426931940, 0.20721139, -0.54364395, -0.19424544, -0.7897997, 9.282054901123047, 0.9300980567932129, 3.5379490852355957, 1.018405795097351, -1.857087254524231, 0.888216495513916, 
51, 3426948607, 0.20706405, -0.5437466, -0.19419192, -0.7897807, 9.304247856140137, 0.9206700325012207, 3.5439951419830322, 1.245039463043213, -1.267457127571106, 0.8417292237281799, 
52, 3426965274, 0.2069903, -0.54381895, -0.19412868, -0.7897658, 9.268362998962402, 0.8915085196495056, 3.497586965560913, 1.5928090810775757, -0.9726167321205139, 1.2573338747024536, 
53, 3426981941, 0.20695227, -0.5439597, -0.19411187, -0.78968316, 9.224021911621094, 0.9088620543479919, 3.502295970916748, 2.059664487838745, -1.6065438985824585, 1.4846209287643433, 
54, 3426998608, 0.20695645, -0.5441516, -0.19412592, -0.78954613, 9.254463195800781, 0.912115216255188, 3.5280745029449463, 2.2384731769561768, -2.0895609855651855, 1.6863914728164673, 
55, 3427015275, 0.20707895, -0.54420024, -0.19421238, -0.78945935, 9.246456146240234, 0.9061834216117859, 3.5275471210479736, 2.967045783996582, -1.0963516235351562, 1.703020453453064, 
56, 3427031942, 0.20718257, -0.54439414, -0.19437295, -0.78925896, 9.249876022338867, 0.9050092101097107, 3.5263710021972656, 3.4237592220306396, -2.429006338119507, 1.7369959354400635, 
57, 3427048609, 0.20733874, -0.544618, -0.19457954, -0.7890127, 9.267631530761719, 0.9765517711639404, 3.5316314697265625, 3.8099539279937744, -2.7719156742095947, 1.9213368892669678, 
58, 3427065276, 0.20754121, -0.54480904, -0.19476983, -0.78878057, 9.326277732849121, 1.0496082305908203, 3.541792631149292, 3.862305164337158, -2.4656128883361816, 2.1541175842285156, 
59, 3427081943, 0.20767401, -0.54495466, -0.19482857, -0.7886303, 9.300775527954102, 1.078780174255371, 3.5757997035980225, 2.9873690605163574, -1.810958743095398, 2.1600661277770996, 
60, 3427098610, 0.20774283, -0.54504347, -0.19475468, -0.7885692, 9.277141571044922, 1.0625933408737183, 3.5373032093048096, 1.829367995262146, -1.089423418045044, 2.0712287425994873, 
61, 3427115277, 0.20775405, -0.5450902, -0.19463848, -0.78856254, 9.204639434814453, 1.0004740953445435, 3.4804744720458984, 1.4812721014022827, -0.6720708012580872, 1.839568018913269, 
62, 3427131944, 0.20775807, -0.5452164, -0.19466938, -0.7884665, 9.185478210449219, 0.9987045526504517, 3.481355905532837, 2.236680269241333, -1.6610795259475708, 1.4849474430084229, 
63, 3427148611, 0.20774609, -0.54548156, -0.19478507, -0.78825784, 9.23311996459961, 1.0158827304840088, 3.519970655441284, 2.493062973022461, -2.9906795024871826, 1.401693344116211, 
64, 3427165278, 0.20771976, -0.54569995, -0.19482867, -0.78810275, 9.30693531036377, 1.0245376825332642, 3.504328489303589, 2.154911756515503, -2.4499316215515137, 1.5033246278762817, 
65, 3427181945, 0.20768017, -0.5459568, -0.19477756, -0.78794795, 9.344554901123047, 1.0085428953170776, 3.5391368865966797, 1.615220069885254, -2.534555673599243, 1.8729990720748901, 
66, 3427198612, 0.20776798, -0.5459968, -0.19465062, -0.7879285, 9.3349027633667, 0.9759145379066467, 3.538564682006836, 1.7308167219161987, -0.5861146450042725, 2.343472719192505, 
67, 3427215279, 0.20790058, -0.54599935, -0.19454327, -0.78791827, 9.230563163757324, 1.0038832426071167, 3.472130060195923, 1.9304611682891846, -0.3340665102005005, 2.4124667644500732, 
68, 3427231946, 0.20795675, -0.54605013, -0.19455452, -0.78786546, 9.164793968200684, 1.059652328491211, 3.4989359378814697, 2.3982133865356445, -1.0187835693359375, 1.7298625707626343, 
69, 3427248613, 0.20790558, -0.5462575, -0.19461745, -0.78771955, 9.183425903320312, 1.0256931781768799, 3.575739860534668, 2.0803468227386475, -2.4499828815460205, 1.2784773111343384, 
70, 3427265280, 0.20784922, -0.54643863, -0.19462983, -0.7876057, 9.271653175354004, 0.9420219659805298, 3.5207135677337646, 1.839478611946106, -2.1330575942993164, 1.3897452354431152, 
71, 3427281947, 0.20789643, -0.5465298, -0.1946457, -0.7875261, 9.332220077514648, 0.934653639793396, 3.4934322834014893, 2.2355854511260986, -1.3996700048446655, 1.7331539392471313, 
72, 3427298614, 0.2080169, -0.5466557, -0.19471048, -0.78739107, 9.372090339660645, 0.9923315048217773, 3.5349979400634766, 2.94600510597229, -1.7577614784240723, 2.120046854019165, 
73, 3427315281, 0.20815724, -0.5467138, -0.19466464, -0.7873248, 9.282447814941406, 1.0569957494735718, 3.552391767501831, 2.4350249767303467, -0.9523763060569763, 2.4623923301696777, 
74, 3427331948, 0.20827359, -0.54669195, -0.19446322, -0.7873592, 9.213027954101562, 0.9490694403648376, 3.5046889781951904, 1.4144678115844727, 0.03311081975698471, 2.6560564041137695, 
75, 3427348615, 0.20840177, -0.54680794, -0.19433746, -0.7872757, 9.16823673248291, 0.9170229434967041, 3.4983224868774414, 1.7098972797393799, -1.2684433460235596, 2.750605344772339, 
76, 3427365282, 0.20854957, -0.5469938, -0.19436152, -0.7871013, 9.220890998840332, 0.9175733923912048, 3.51948618888855, 2.7760517597198486, -2.1725590229034424, 2.5706889629364014, 
77, 3427381949, 0.20873863, -0.5470378, -0.19445644, -0.7869972, 9.241713523864746, 0.8972579836845398, 3.530820369720459, 3.361647605895996, -1.2024778127670288, 2.21455717086792, 
78, 3427398616, 0.20890003, -0.5471265, -0.19458632, -0.78686064, 9.23371696472168, 0.9395824670791626, 3.5265614986419678, 3.393125534057617, -1.6664389371871948, 2.0255868434906006, 
79, 3427415283, 0.20903657, -0.547308, -0.19464624, -0.7866833, 9.304634094238281, 0.9782698154449463, 3.547114849090576, 2.886544704437256, -2.261934280395508, 2.355273485183716, 
80, 3427431950, 0.2092233, -0.5473796, -0.19461745, -0.7865909, 9.287091255187988, 0.9544517397880554, 3.5770161151885986, 2.537360906600952, -1.1709295511245728, 2.6609551906585693, 
81, 3427448617, 0.20940253, -0.54749596, -0.19459803, -0.78646713, 9.274587631225586, 0.9638732075691223, 3.5790090560913086, 2.654090404510498, -1.5607609748840332, 2.7351930141448975, 
82, 3427465284, 0.20958936, -0.54759204, -0.19455472, -0.7863613, 9.268678665161133, 0.9848776459693909, 3.570295572280884, 2.4447646141052246, -1.3618403673171997, 2.779228448867798, 
83, 3427481951, 0.20977321, -0.54760313, -0.19447829, -0.78632325, 9.277678489685059, 0.9740127921104431, 3.552239179611206, 2.2758164405822754, -0.6188860535621643, 2.6808173656463623, 
84, 3427498618, 0.20994434, -0.5475997, -0.19442016, -0.7862944, 9.224788665771484, 0.9519451856613159, 3.5809600353240967, 2.416391611099243, -0.5546877980232239, 2.5458767414093018, 
85, 3427515285, 0.21009046, -0.5476438, -0.19439542, -0.7862308, 9.21843433380127, 0.9538470506668091, 3.5800158977508545, 2.417787790298462, -1.044786810874939, 2.3827879428863525, 
86, 3427531952, 0.21019578, -0.5476786, -0.19434103, -0.7861919, 9.224462509155273, 0.983897864818573, 3.591470956802368, 2.180280923843384, -0.9227806329727173, 2.2660834789276123, 
87, 3427548619, 0.2102563, -0.54782057, -0.19427724, -0.78609234, 9.219477653503418, 0.9895474314689636, 3.600780725479126, 1.9543896913528442, -1.7877984046936035, 2.3218936920166016, 
88, 3427565286, 0.21032596, -0.5479639, -0.19419532, -0.78599405, 9.238825798034668, 0.9735522270202637, 3.646033525466919, 1.6828566789627075, -1.7849361896514893, 2.3787667751312256, 
89, 3427581953, 0.21036172, -0.5480847, -0.19408497, -0.7859276, 9.255107879638672, 0.9565384984016418, 3.619906425476074, 1.4865676164627075, -1.561836838722229, 2.2670633792877197, 
90, 3427598620, 0.21043351, -0.548141, -0.19396408, -0.7858991, 9.224332809448242, 0.9321749210357666, 3.624101161956787, 1.5332210063934326, -1.0308727025985718, 2.3421084880828857, 
91, 3427615287, 0.21048172, -0.54823416, -0.19387361, -0.78584343, 9.205586433410645, 0.9179758429527283, 3.6027910709381104, 1.5621187686920166, -1.4290351867675781, 2.1837775707244873, 
92, 3427631954, 0.21055138, -0.54833376, -0.19380166, -0.785773, 9.200227737426758, 0.9164938926696777, 3.5931265354156494, 1.7687745094299316, -1.5354300737380981, 2.268772602081299, 
93, 3427648621, 0.21063776, -0.54844886, -0.19378838, -0.7856729, 9.219659805297852, 0.9021526575088501, 3.5935559272766113, 2.1761319637298584, -1.809287667274475, 2.2096846103668213, 
94, 3427665288, 0.21074498, -0.54853827, -0.19377382, -0.7855851, 9.274273872375488, 0.9095820784568787, 3.576070547103882, 2.2854340076446533, -1.6107251644134521, 2.284294366836548, 
95, 3427681955, 0.21086845, -0.5485907, -0.19372635, -0.7855273, 9.253291130065918, 0.9371455311775208, 3.5852572917938232, 2.21069598197937, -1.2408392429351807, 2.418530225753784, 
96, 3427698622, 0.21100993, -0.5487175, -0.19370563, -0.78540576, 9.221039772033691, 0.9336047172546387, 3.601924419403076, 2.314030647277832, -1.919486403465271, 2.5828874111175537, 
97, 3427715289, 0.21113747, -0.54889786, -0.19370279, -0.785246, 9.23256778717041, 0.9305164813995361, 3.583818197250366, 2.4553871154785156, -2.4048337936401367, 2.61564564704895, 
98, 3427731956, 0.21124732, -0.5490707, -0.19369718, -0.78509706, 9.28095817565918, 0.9489383101463318, 3.558344841003418, 2.3664979934692383, -2.359755516052246, 2.5116066932678223, 
99, 3427748623, 0.21140866, -0.5491737, -0.19368899, -0.7849837, 9.314752578735352, 0.9514270424842834, 3.6010072231292725, 2.4318878650665283, -1.8030126094818115, 2.60410737991333, 
100, 3427765290, 0.21154425, -0.54920095, -0.19364478, -0.784939, 9.281960487365723, 0.9875409007072449, 3.5529720783233643, 2.2041585445404053, -1.1288670301437378, 2.4258618354797363, 
101, 3427781957, 0.21164368, -0.54920805, -0.1935616, -0.7849277, 9.177680969238281, 0.9813162088394165, 3.5320420265197754, 1.9085687398910522, -0.8924745917320251, 2.3370308876037598, 
102, 3427798624, 0.21170688, -0.54933155, -0.19350089, -0.7848391, 9.160416603088379, 0.9371302723884583, 3.5662763118743896, 1.8722244501113892, -1.904835820198059, 2.352283477783203, 
103, 3427815291, 0.21176346, -0.5494986, -0.1934856, -0.78471065, 9.20918083190918, 0.8873903155326843, 3.574305772781372, 2.038111448287964, -2.3858745098114014, 2.2550384998321533, 
104, 3427831958, 0.21182643, -0.5496687, -0.19350924, -0.7845688, 9.25283432006836, 0.8560308814048767, 3.5824074745178223, 2.3568100929260254, -2.5120935440063477, 2.194169521331787, 
105, 3427848625, 0.21195088, -0.54981834, -0.19356032, -0.7844178, 9.276004791259766, 0.8918898105621338, 3.5760278701782227, 2.755990505218506, -2.41206955909729, 2.4028427600860596, 
106, 3427865292, 0.21211603, -0.5499372, -0.19357516, -0.7842861, 9.270275115966797, 0.920097827911377, 3.5737483501434326, 2.6206722259521484, -2.091917037963867, 2.656722068786621, 
107, 3427881959, 0.21227393, -0.55000794, -0.19356024, -0.78419733, 9.247407913208008, 0.930656909942627, 3.5428543090820312, 2.5197713375091553, -1.6454497575759888, 2.63716721534729, 
108, 3427898626, 0.21239153, -0.5501513, -0.19360365, -0.7840543, 9.256315231323242, 0.9117844104766846, 3.561485528945923, 2.7071597576141357, -2.3914384841918945, 2.4032909870147705, 
109, 3427915293, 0.21255697, -0.55024076, -0.19369642, -0.78392386, 9.260695457458496, 0.906312882900238, 3.5638628005981445, 3.127880573272705, -2.083810806274414, 2.362700939178467, 
110, 3427931960, 0.21274942, -0.5503293, -0.19377841, -0.7837891, 9.228774070739746, 0.9040738940238953, 3.5460712909698486, 3.234058380126953, -2.0556883811950684, 2.57966685295105, 
111, 3427948627, 0.21293044, -0.5505059, -0.19388138, -0.7835907, 9.257019996643066, 0.906568706035614, 3.5630125999450684, 3.233635902404785, -2.8330469131469727, 2.6476938724517822, 
112, 3427965294, 0.2131182, -0.5506546, -0.19397058, -0.78341293, 9.298583984375, 0.8771290183067322, 3.5727641582489014, 3.224977970123291, -2.5905323028564453, 2.685779571533203, 
113, 3427981961, 0.2133876, -0.5507025, -0.19401734, -0.78329426, 9.287824630737305, 0.8942142724990845, 3.5993502140045166, 3.269404172897339, -1.6761722564697266, 3.034996747970581, 
114, 3427998628, 0.21366353, -0.55072105, -0.1940515, -0.7831975, 9.279192924499512, 0.9164915680885315, 3.552100896835327, 3.268321990966797, -1.4244375228881836, 3.0631508827209473, 
115, 3428015295, 0.2139, -0.5507665, -0.19408894, -0.7830916, 9.260641098022461, 0.9153386354446411, 3.560356378555298, 3.151041269302368, -1.6739757061004639, 2.9113450050354004, 
116, 3428031962, 0.21414155, -0.55079335, -0.1941415, -0.7829937, 9.261377334594727, 0.9279714822769165, 3.578556537628174, 3.212460517883301, -1.5802973508834839, 2.835876941680908, 
117, 3428048629, 0.21438046, -0.55081964, -0.19417106, -0.78290254, 9.215655326843262, 0.9255600571632385, 3.580676555633545, 3.1429860591888428, -1.5332340002059937, 2.9324238300323486, 
118, 3428065296, 0.21457942, -0.55093163, -0.19420013, -0.7827623, 9.247830390930176, 0.920874297618866, 3.5754220485687256, 2.8690452575683594, -2.2565367221832275, 2.8970530033111572, 
119, 3428081963, 0.21474847, -0.5510132, -0.19419754, -0.7826588, 9.302127838134766, 0.891809344291687, 3.592186689376831, 2.6800873279571533, -1.9568934440612793, 2.804398536682129, 
120, 3428098630, 0.21494853, -0.55100805, -0.1942148, -0.78260326, 9.305582046508789, 0.8669986128807068, 3.5971319675445557, 2.897141933441162, -1.3202002048492432, 2.694314956665039, 
121, 3428115297, 0.2151685, -0.5509666, -0.19422181, -0.7825702, 9.296451568603516, 0.8768348097801208, 3.5521507263183594, 2.943885087966919, -1.0153706073760986, 2.764993190765381, 
122, 3428131964, 0.21538919, -0.55092293, -0.19421437, -0.78254217, 9.244417190551758, 0.905523419380188, 3.5202858448028564, 2.9229469299316406, -0.9731736779212952, 2.841050386428833, 
123, 3428148631, 0.21560487, -0.55095357, -0.19422735, -0.782458, 9.253735542297363, 0.9270333647727966, 3.5617668628692627, 2.9622111320495605, -1.637131690979004, 2.92338228225708, 
124, 3428165298, 0.21581168, -0.5509376, -0.1942334, -0.7824107, 9.297256469726562, 0.8841108679771423, 3.609123468399048, 2.7697060108184814, -1.2761719226837158, 2.7500994205474854, 
125, 3428181965, 0.2160424, -0.5508337, -0.19418038, -0.7824334, 9.275317192077637, 0.8710557222366333, 3.582021474838257, 2.733963966369629, -0.4262274205684662, 2.941516637802124, 
126, 3428198632, 0.21629345, -0.5507736, -0.19415139, -0.78241354, 9.233920097351074, 0.8802402019500732, 3.5706233978271484, 2.913034677505493, -0.8493107557296753, 3.083538770675659, 
127, 3428215299, 0.2165005, -0.5507549, -0.1941218, -0.7823767, 9.240527153015137, 0.8978185057640076, 3.59401273727417, 2.6568052768707275, -1.2149959802627563, 2.922229766845703, 
128, 3428231966, 0.21665521, -0.550693, -0.19408944, -0.7823856, 9.248747825622559, 0.8930233120918274, 3.577021598815918, 2.5386667251586914, -0.8875377178192139, 2.567314863204956, 
129, 3428248633, 0.21677302, -0.5506589, -0.19406529, -0.78238297, 9.257576942443848, 0.8788318634033203, 3.5954253673553467, 2.478957414627075, -1.1540955305099487, 2.422366142272949, 
130, 3428265300, 0.21693699, -0.55058885, -0.19403325, -0.7823947, 9.27123737335205, 0.8620632886886597, 3.605130434036255, 2.468116521835327, -0.8635770678520203, 2.580364465713501, 
131, 3428281967, 0.21709934, -0.5504752, -0.19394538, -0.78245145, 9.231271743774414, 0.8619744777679443, 3.588334560394287, 2.3271186351776123, -0.3836718499660492, 2.720273733139038, 
132, 3428298634, 0.21722886, -0.5504077, -0.1938447, -0.78248775, 9.210946083068848, 0.85483318567276, 3.558769464492798, 2.0238707065582275, -0.7562149167060852, 2.6695923805236816, 
133, 3428315301, 0.21732736, -0.55038774, -0.19382118, -0.78248036, 9.237895965576172, 0.8277840614318848, 3.587068557739258, 2.4026124477386475, -1.3423423767089844, 2.378472328186035, 
134, 3428331968, 0.21746635, -0.5503333, -0.19382744, -0.7824788, 9.273540496826172, 0.8315570950508118, 3.6431093215942383, 2.820406436920166, -1.1387087106704712, 2.455656051635742, 
135, 3428348635, 0.21765077, -0.5502635, -0.19378115, -0.78248787, 9.268552780151367, 0.8392525911331177, 3.634396553039551, 2.554201126098633, -0.9069522023200989, 2.8131072521209717, 
136, 3428365302, 0.21782178, -0.5502219, -0.19367827, -0.7824952, 9.25606918334961, 0.8702406287193298, 3.656318187713623, 2.2586820125579834, -1.009812831878662, 3.036027431488037, 
137, 3428381969, 0.21796393, -0.5501438, -0.19354208, -0.782544, 9.24583911895752, 0.8743307590484619, 3.667310953140259, 1.8679978847503662, -0.6715201139450073, 2.871260166168213, 
138, 3428398636, 0.21809225, -0.55002964, -0.19342786, -0.78261673, 9.179903030395508, 0.8383195400238037, 3.654905080795288, 2.1967244148254395, -0.4449630081653595, 2.720862627029419, 
139, 3428415303, 0.21821535, -0.5499339, -0.19337907, -0.78266174, 9.158123016357422, 0.8251330852508545, 3.6150379180908203, 2.5302786827087402, -0.774316668510437, 2.516857385635376, 
140, 3428431970, 0.21835732, -0.54987526, -0.19343123, -0.78265053, 9.160932540893555, 0.8130171298980713, 3.6113080978393555, 3.0200066566467285, -1.3393843173980713, 2.327951431274414, 
141, 3428448637, 0.21854866, -0.5498506, -0.19359073, -0.78257495, 9.210838317871094, 0.8133849501609802, 3.6110501289367676, 3.6565017700195312, -1.8902431726455688, 2.2805233001708984, 
142, 3428465304, 0.21876656, -0.54981196, -0.19378686, -0.7824927, 9.294900894165039, 0.8061455488204956, 3.605151653289795, 3.9446375370025635, -1.8776670694351196, 2.2691187858581543, 
143, 3428481971, 0.21902432, -0.54971594, -0.193954, -0.7824468, 9.31613826751709, 0.810392439365387, 3.5983309745788574, 4.24625301361084, -1.3313162326812744, 2.5589780807495117, 
144, 3428498638, 0.21935333, -0.549619, -0.19410075, -0.782386, 9.29688835144043, 0.8441595435142517, 3.607301950454712, 4.3753790855407715, -1.2724965810775757, 3.029162883758545, 
145, 3428515305, 0.21970242, -0.5494653, -0.19422728, -0.7823647, 9.297003746032715, 0.8503323197364807, 3.592258930206299, 4.350381374359131, -0.7744192481040955, 3.0762648582458496, 
146, 3428531972, 0.22005162, -0.549241, -0.19435091, -0.78239346, 9.260440826416016, 0.8565384149551392, 3.649448871612549, 4.50693941116333, -0.20554836094379425, 2.973212480545044, 
147, 3428548639, 0.22045669, -0.5489554, -0.19452275, -0.78243715, 9.20005989074707, 0.8714388608932495, 3.6580543518066406, 4.930022716522217, 0.15837614238262177, 2.956512451171875, 
148, 3428565306, 0.22079489, -0.5487497, -0.19467022, -0.78244936, 9.1821928024292, 0.8739433884620667, 3.6334197521209717, 4.68326997756958, -0.4447581470012665, 2.9275062084198, 
149, 3428581973, 0.22108305, -0.5486388, -0.19479033, -0.7824161, 9.199524879455566, 0.9034988880157471, 3.6360297203063965, 4.175850868225098, -1.1744194030761719, 2.9379501342773438, 
150, 3428598640, 0.22133666, -0.54851204, -0.19485924, -0.7824158, 9.207996368408203, 0.9158236980438232, 3.6601648330688477, 3.699345827102661, -0.9517233967781067, 2.868558883666992, 
151, 3428615307, 0.2215561, -0.5483868, -0.19493373, -0.782423, 9.209647178649902, 0.9018652439117432, 3.6689705848693848, 3.6503093242645264, -0.9984023571014404, 2.689333915710449, 
152, 3428631974, 0.22172327, -0.5483425, -0.19498384, -0.7823942, 9.217802047729492, 0.9064787030220032, 3.6602394580841064, 3.1962411403656006, -1.6225390434265137, 2.656939744949341, 
153, 3428648641, 0.22184645, -0.54831743, -0.19498949, -0.78237563, 9.278103828430176, 0.9160940647125244, 3.644369602203369, 2.7079343795776367, -1.6960729360580444, 2.5958149433135986, 
154, 3428665308, 0.22193743, -0.54816234, -0.19489403, -0.782482, 9.248820304870605, 0.9059767723083496, 3.6296370029449463, 2.284294366836548, -0.41544443368911743, 2.522902488708496, 
155, 3428681975, 0.22202073, -0.5479173, -0.19481234, -0.78265053, 9.19126033782959, 0.8981582522392273, 3.585491895675659, 2.2901597023010254, 0.25218263268470764, 2.1946628093719482, 
156, 3428698642, 0.22203748, -0.5477929, -0.1948114, -0.7827329, 9.171923637390137, 0.8999437093734741, 3.5908477306365967, 2.4429776668548584, -0.9423872232437134, 1.8490062952041626, 
157, 3428715309, 0.22199924, -0.5477711, -0.19480681, -0.7827602, 9.1701021194458, 0.872270941734314, 3.631687641143799, 2.1599574089050293, -1.779231071472168, 1.8087562322616577, 
158, 3428731976, 0.22195947, -0.5477732, -0.19485143, -0.7827588, 9.173399925231934, 0.8605324029922485, 3.6250927448272705, 2.4746224880218506, -2.1026041507720947, 1.7175365686416626, 
159, 3428748643, 0.22189891, -0.54780877, -0.19489397, -0.7827406, 9.214505195617676, 0.8602777719497681, 3.6453661918640137, 2.3185126781463623, -2.3861238956451416, 1.678566575050354, 
160, 3428765310, 0.22187471, -0.5477661, -0.19494466, -0.7827647, 9.276249885559082, 0.8432230949401855, 3.6253490447998047, 2.563242197036743, -1.781343936920166, 1.6803853511810303, 
161, 3428781977, 0.22187771, -0.547689, -0.19497913, -0.78280914, 9.23703384399414, 0.8749929070472717, 3.6337718963623047, 2.5927605628967285, -1.4704184532165527, 1.813519835472107, 
162, 3428798644, 0.22188412, -0.5476157, -0.19501638, -0.7828495, 9.192277908325195, 0.8609952926635742, 3.6167750358581543, 2.526474952697754, -1.52334725856781, 1.808487057685852, 
163, 3428815311, 0.2218105, -0.5476267, -0.19508883, -0.7828447, 9.212228775024414, 0.8766565322875977, 3.6088531017303467, 2.5889124870300293, -2.301941394805908, 1.5167264938354492, 
164, 3428831978, 0.22169599, -0.5475673, -0.19516852, -0.7828986, 9.220147132873535, 0.8755173087120056, 3.624530792236328, 2.4133689403533936, -1.7853585481643677, 1.0635929107666016, 
165, 3428848645, 0.22158784, -0.5474891, -0.19530313, -0.78295046, 9.166400909423828, 0.8406658172607422, 3.5948398113250732, 2.8249332904815674, -1.7724117040634155, 0.895362377166748, 
166, 3428865312, 0.22149175, -0.5475488, -0.1955775, -0.7828673, 9.131874084472656, 0.8562589883804321, 3.552013874053955, 3.48146390914917, -3.235640048980713, 0.7920408248901367, 
167, 3428881979, 0.22135586, -0.547727, -0.19588411, -0.78270453, 9.15865707397461, 0.9081507921218872, 3.5774645805358887, 3.39249849319458, -4.286259651184082, 0.7279193997383118, 
168, 3428898646, 0.22118008, -0.54781693, -0.19607633, -0.78264296, 9.159649848937988, 0.9261751770973206, 3.616727590560913, 2.6351370811462402, -3.317004680633545, 0.6815667748451233, 
169, 3428915313, 0.22093578, -0.54791933, -0.19623421, -0.7826008, 9.168240547180176, 0.911008894443512, 3.588291645050049, 2.237039089202881, -3.3567047119140625, 0.4690326154232025, 
170, 3428931980, 0.22069038, -0.54804116, -0.19648078, -0.78252286, 9.214896202087402, 0.8906023502349854, 3.5268397331237793, 2.7530643939971924, -3.739057779312134, 0.22439929842948914, 
171, 3428948647, 0.22045745, -0.5482305, -0.19686802, -0.7823585, 9.339980125427246, 0.8715344071388245, 3.5488834381103516, 3.776106357574463, -4.614377975463867, 0.05849941819906235, 
172, 3428965314, 0.2203283, -0.54832965, -0.19731587, -0.78221256, 9.472116470336914, 0.8903630971908569, 3.5791733264923096, 4.379426002502441, -4.030689716339111, 0.16322974860668182, 
173, 3428981981, 0.2202734, -0.54819465, -0.19760472, -0.7822499, 9.420044898986816, 0.9271531701087952, 3.5823867321014404, 4.147708415985107, -1.7248811721801758, 0.6515743136405945, 
174, 3428998648, 0.22040835, -0.5479275, -0.19782487, -0.7823433, 9.285476684570312, 0.9936180710792542, 3.5985212326049805, 4.441652774810791, -0.4580639600753784, 1.6149708032608032, 
175, 3429015315, 0.2204962, -0.54780364, -0.19787683, -0.7823921, 9.123865127563477, 1.0731244087219238, 3.551957607269287, 3.2813515663146973, -1.208317518234253, 2.2956085205078125, 
176, 3429031982, 0.22048707, -0.54788774, -0.19790018, -0.7823299, 9.14816665649414, 1.033738374710083, 3.633880138397217, 2.6614480018615723, -2.83640193939209, 2.3691043853759766, 
177, 3429048649, 0.22048636, -0.54785156, -0.19793728, -0.78234595, 9.223999977111816, 0.9588356614112854, 3.673903465270996, 2.807741403579712, -1.91962730884552, 2.081390857696533, 
178, 3429065316, 0.22051641, -0.54779303, -0.1980838, -0.7823416, 9.275172233581543, 0.928612232208252, 3.6673710346221924, 3.5047519207000732, -2.0192346572875977, 1.82008957862854, 
179, 3429081983, 0.22054179, -0.5476674, -0.19824843, -0.78238064, 9.338964462280273, 0.9079859852790833, 3.7005302906036377, 3.81143856048584, -1.5256397724151611, 1.6380090713500977, 
180, 3429098650, 0.22064662, -0.5474025, -0.19834393, -0.7825121, 9.349952697753906, 0.905448853969574, 3.662874698638916, 3.8158376216888428, -0.22741515934467316, 1.9974640607833862, 
181, 3429115317, 0.22080429, -0.547068, -0.1983764, -0.7826935, 9.285318374633789, 0.9287269115447998, 3.6368396282196045, 3.772289991378784, 0.4972193241119385, 2.373823404312134, 
182, 3429131984, 0.22100754, -0.5468059, -0.19844128, -0.7828027, 9.183469772338867, 0.9655899405479431, 3.629549264907837, 4.120724678039551, -0.1583441197872162, 2.71698260307312, 
183, 3429148651, 0.2211763, -0.5466184, -0.19846635, -0.78287965, 9.169203758239746, 0.9943962693214417, 3.6485071182250977, 3.808262825012207, -0.6695608496665955, 2.8750131130218506, 
184, 3429165318, 0.22130674, -0.54646856, -0.19848174, -0.7829434, 9.196086883544922, 0.9982181191444397, 3.6273930072784424, 3.428567409515381, -0.9809983968734741, 2.737767457962036, 
185, 3429181985, 0.22144184, -0.54630446, -0.19858432, -0.7829938, 9.23884105682373, 0.9694584012031555, 3.659186601638794, 3.787548780441284, -1.1013846397399902, 2.3878018856048584, 
186, 3429198652, 0.22153348, -0.546057, -0.19868203, -0.7831158, 9.28831958770752, 0.9332534670829773, 3.6605818271636963, 3.7908527851104736, -0.43335410952568054, 2.0141124725341797, 
187, 3429215319, 0.22166765, -0.54573566, -0.19878401, -0.7832758, 9.297584533691406, 0.9289681911468506, 3.6753878593444824, 3.9633474349975586, 0.14629971981048584, 2.0490286350250244, 
188, 3429231986, 0.22186147, -0.5453217, -0.19885926, -0.7834903, 9.25976848602295, 0.9378056526184082, 3.673741102218628, 4.2413225173950195, 0.9738333225250244, 2.313467264175415, 
189, 3429248653, 0.2220341, -0.5450137, -0.19892344, -0.7836393, 9.233559608459473, 0.9495494365692139, 3.7224514484405518, 3.9591987133026123, 0.13249452412128448, 2.467578887939453, 
190, 3429265320, 0.22221975, -0.5446331, -0.19893675, -0.7838478, 9.236039161682129, 0.9509676098823547, 3.742295980453491, 3.8979592323303223, 0.8419279456138611, 2.591224431991577, 
191, 3429281987, 0.2224467, -0.544213, -0.19890295, -0.78408384, 9.181469917297363, 0.9636784195899963, 3.7578439712524414, 3.6328930854797363, 1.2617201805114746, 2.836440324783325, 
192, 3429298654, 0.2226421, -0.54386014, -0.1988247, -0.784293, 9.15064525604248, 0.992348849773407, 3.7448277473449707, 3.3674042224884033, 0.8229233026504517, 3.028369188308716, 
193, 3429315321, 0.22277449, -0.54356414, -0.19869354, -0.7844938, 9.16566276550293, 0.9847450852394104, 3.7603251934051514, 2.9344983100891113, 0.4807375967502594, 3.044440984725952, 
194, 3429331988, 0.22289002, -0.5432231, -0.19858655, -0.78472424, 9.20019817352295, 0.9913243651390076, 3.7667529582977295, 2.96278715133667, 0.7582895159721375, 2.74072527885437, 
195, 3429348655, 0.2229693, -0.5428277, -0.19845574, -0.7850085, 9.215507507324219, 0.945937991142273, 3.7660460472106934, 2.6089866161346436, 1.2212775945663452, 2.4513790607452393, 
196, 3429365322, 0.2230573, -0.5423074, -0.1982337, -0.78539914, 9.246806144714355, 0.9267101287841797, 3.743126392364502, 2.285702705383301, 2.440966844558716, 2.544621467590332, 
197, 3429381989, 0.22318238, -0.54176164, -0.19787838, -0.7858296, 9.214624404907227, 0.9132410883903503, 3.7365782260894775, 1.6672459840774536, 2.973045825958252, 3.144113063812256, 
198, 3429398656, 0.22330385, -0.54123175, -0.1972937, -0.7863071, 9.184867858886719, 0.9590139985084534, 3.8174936771392822, 0.5146744251251221, 3.415402889251709, 4.002254009246826, 
199, 3429415323, 0.22344115, -0.5404699, -0.19648941, -0.78699327, 9.114415168762207, 0.9781581163406372, 3.8395943641662598, -0.8104307055473328, 5.771309852600098, 4.181452751159668, 
200, 3429431990, 0.22350013, -0.5397402, -0.19583164, -0.78764105, 8.9686918258667, 0.9331848621368408, 3.681637763977051, -0.1789623349905014, 5.121988773345947, 3.3724241256713867, 
201, 3429448657, 0.22344773, -0.53940904, -0.19555444, -0.7879516, 9.001879692077637, 0.9058402180671692, 3.694520950317383, 1.494360089302063, 0.9841936826705933, 2.4878127574920654, 
202, 3429465324, 0.22338627, -0.5392404, -0.19546688, -0.78810614, 9.085437774658203, 0.9097207188606262, 3.7652907371520996, 2.4007296562194824, -0.785010039806366, 2.1818947792053223, 
203, 3429481991, 0.22329588, -0.539183, -0.19540444, -0.7881865, 9.153143882751465, 0.9432855844497681, 3.7661736011505127, 2.2777886390686035, -1.751031517982483, 2.168025493621826, 
204, 3429498658, 0.22319329, -0.5390244, -0.19523145, -0.7883668, 9.156253814697266, 0.9496948719024658, 3.793304920196533, 1.84421706199646, -0.6695609092712402, 2.2982919216156006, 
205, 3429515325, 0.22311531, -0.5388952, -0.19509327, -0.7885114, 9.154752731323242, 0.9514649510383606, 3.821652889251709, 1.9963175058364868, -0.995206892490387, 2.35326886177063, 
206, 3429531992, 0.22308443, -0.53873885, -0.1950016, -0.7886497, 9.167485237121582, 0.9322487711906433, 3.798333168029785, 2.5084307193756104, -0.8833115696907043, 2.4292619228363037, 
207, 3429548659, 0.22304545, -0.5386195, -0.19492932, -0.7887601, 9.18761157989502, 0.9489068388938904, 3.8117880821228027, 2.5239906311035156, -1.2340518236160278, 2.3940701484680176, 
208, 3429565326, 0.22300194, -0.5385132, -0.19485904, -0.7888624, 9.212949752807617, 0.9577347040176392, 3.809657335281372, 2.528639554977417, -1.3473753929138184, 2.405301809310913, 
209, 3429581993, 0.2229749, -0.5382832, -0.19477558, -0.78904754, 9.16969108581543, 0.9852954745292664, 3.816697120666504, 2.6853761672973633, -0.3238917887210846, 2.2886996269226074, 
210, 3429598660, 0.22291397, -0.5380776, -0.1946979, -0.78922415, 9.10273265838623, 1.0105582475662231, 3.818479299545288, 2.6240592002868652, -0.5415100455284119, 2.1586124897003174, 
211, 3429615327, 0.22284395, -0.5379702, -0.19463602, -0.78933245, 9.100119590759277, 0.9407963156700134, 3.8220224380493164, 2.544109582901001, -1.372834324836731, 2.2683377265930176, 
212, 3429631994, 0.22279717, -0.5379534, -0.19463688, -0.7893568, 9.132294654846191, 0.9590407609939575, 3.8105838298797607, 3.089609146118164, -2.234804391860962, 2.469602346420288, 
213, 3429648661, 0.22278786, -0.53791416, -0.19467925, -0.7893757, 9.171041488647461, 0.9420318007469177, 3.87516713142395, 3.559537649154663, -2.145031452178955, 2.5265259742736816, 
214, 3429665328, 0.22282042, -0.53780824, -0.1947008, -0.7894334, 9.184311866760254, 0.9530107975006104, 3.860240936279297, 3.3468120098114014, -1.5798490047454834, 2.572629451751709, 
215, 3429681995, 0.2228599, -0.53760207, -0.1946932, -0.78956455, 9.178144454956055, 0.9595032334327698, 3.8413755893707275, 3.47231388092041, -0.7003729343414307, 2.551677942276001, 
216, 3429698662, 0.2228815, -0.5374402, -0.19471443, -0.7896635, 9.14616870880127, 0.9693810343742371, 3.856419324874878, 3.6572184562683105, -1.1221565008163452, 2.5058505535125732, 
217, 3429715329, 0.22289535, -0.53726536, -0.19472495, -0.7897758, 9.125663757324219, 0.9593461155891418, 3.8320693969726562, 3.501614809036255, -1.0046133995056152, 2.4438486099243164, 
218, 3429731996, 0.22289413, -0.53708684, -0.1947359, -0.78989476, 9.096641540527344, 0.9663764238357544, 3.8219854831695557, 3.516892433166504, -0.9795001745223999, 2.378241539001465, 
219, 3429748663, 0.22292529, -0.53700346, -0.1948163, -0.789923, 9.093107223510742, 0.9565901756286621, 3.858257293701172, 3.7193992137908936, -1.9176419973373413, 2.4680137634277344, 
220, 3429765330, 0.22291051, -0.5369057, -0.19479896, -0.78999805, 9.120231628417969, 0.9873542785644531, 3.8731234073638916, 3.1593453884124756, -1.568841814994812, 2.55964994430542, 
221, 3429781997, 0.2228793, -0.5367858, -0.1947389, -0.7901029, 9.125750541687012, 0.9719012975692749, 3.8083510398864746, 2.9047744274139404, -1.2965083122253418, 2.5750749111175537, 
222, 3429798664, 0.22284941, -0.5367301, -0.19471888, -0.79015404, 9.112998962402344, 0.9770671129226685, 3.837282419204712, 3.1421985626220703, -1.901832938194275, 2.622119903564453, 
223, 3429815331, 0.22277363, -0.5367286, -0.19471289, -0.79017794, 9.143908500671387, 0.9638333916664124, 3.8573412895202637, 2.944896936416626, -2.386636257171631, 2.4176979064941406, 
224, 3429831998, 0.22269478, -0.5366396, -0.19468121, -0.7902685, 9.12181568145752, 0.9605612754821777, 3.841909170150757, 2.782461643218994, -1.6376314163208008, 2.2592453956604004, 
225, 3429848665, 0.2225735, -0.53655744, -0.19464746, -0.79036677, 9.121113777160645, 0.9581773281097412, 3.831328868865967, 2.7801434993743896, -1.6882550716400146, 2.1055822372436523, 
226, 3429865332, 0.22241955, -0.53654015, -0.19462843, -0.79042655, 9.11778450012207, 0.9526237845420837, 3.8051929473876953, 2.5680322647094727, -2.260071277618408, 1.9768396615982056, 
227, 3429881999, 0.22223836, -0.5365718, -0.19458029, -0.7904679, 9.099539756774902, 0.9297404289245605, 3.8519856929779053, 2.346687078475952, -2.580345392227173, 2.064089298248291, 
228, 3429898666, 0.22205943, -0.53663105, -0.19456144, -0.7904827, 9.118070602416992, 0.9266105890274048, 3.876202344894409, 2.4136128425598145, -2.8806025981903076, 2.010545492172241, 
229, 3429915333, 0.22188674, -0.53671217, -0.19453308, -0.79048306, 9.13715934753418, 0.9291009306907654, 3.8528783321380615, 2.5310726165771484, -3.0228683948516846, 2.190782308578491, 
230, 3429932000, 0.22169593, -0.53679127, -0.19442444, -0.7905095, 9.154009819030762, 0.938166618347168, 3.85068678855896, 1.8093583583831787, -2.832848310470581, 2.2767772674560547, 
231, 3429948667, 0.22145744, -0.5368368, -0.19421655, -0.7905965, 9.163768768310547, 0.9499658942222595, 3.881761074066162, 1.1676956415176392, -2.3343734741210938, 2.284614324569702, 
232, 3429965334, 0.22117534, -0.5367777, -0.194001, -0.7907686, 9.159116744995117, 0.9248316884040833, 3.8840529918670654, 1.1078388690948486, -1.4955830574035645, 1.8440247774124146, 
233, 3429982001, 0.22087726, -0.53673846, -0.19383033, -0.7909204, 9.126049041748047, 0.8852056264877319, 3.833275318145752, 1.487662434577942, -1.7566148042678833, 1.7235426902770996, 
234, 3429998668, 0.22057079, -0.5368568, -0.1937408, -0.7909475, 9.164652824401855, 0.8510910868644714, 3.7526211738586426, 1.5045284032821655, -3.233981132507324, 1.6552718877792358, 
235, 3430015335, 0.2202685, -0.53703433, -0.19366822, -0.79092884, 9.241477966308594, 0.8691402077674866, 3.8040695190429688, 1.666682481765747, -3.7371044158935547, 1.7900077104568481, 
236, 3430032002, 0.22004057, -0.53703636, -0.19351529, -0.7910285, 9.295787811279297, 0.9001144766807556, 3.856184244155884, 1.6529154777526855, -2.1202640533447266, 2.089061737060547, 
237, 3430048669, 0.21982524, -0.5368352, -0.19318548, -0.7913055, 9.197089195251465, 0.8859092593193054, 3.822404623031616, 0.7705581784248352, -0.07970032095909119, 2.2572216987609863, 
238, 3430065336, 0.21961302, -0.53660876, -0.19281709, -0.7916078, 9.176264762878418, 0.8607441186904907, 3.770629644393921, 0.5330003499984741, 0.2100113183259964, 2.3277587890625, 
239, 3430082003, 0.21937679, -0.53650767, -0.19256635, -0.79180276, 9.136427879333496, 0.8686895966529846, 3.739252805709839, 1.180220365524292, -1.0664167404174805, 2.142194986343384, 
240, 3430098670, 0.2191414, -0.5365182, -0.19246215, -0.7918861, 9.195809364318848, 0.9049400091171265, 3.7719600200653076, 1.8092552423477173, -2.313511848449707, 1.8639642000198364, 
241, 3430115337, 0.21887031, -0.53641784, -0.19226508, -0.792077, 9.242908477783203, 0.9467598795890808, 3.805479049682617, 1.2235186100006104, -1.215649127960205, 1.7126315832138062, 
242, 3430132004, 0.21854636, -0.5361961, -0.19190307, -0.79240423, 9.234771728515625, 0.9378257393836975, 3.7852516174316406, 0.3141269385814667, 0.14235538244247437, 1.7370020151138306, 
243, 3430148671, 0.21822084, -0.53594, -0.19153443, -0.79275644, 9.18436336517334, 0.9076625108718872, 3.799217939376831, 0.15228672325611115, 0.4215274155139923, 1.6197282075881958, 
244, 3430165338, 0.217879, -0.5357012, -0.1911417, -0.7931065, 9.1036958694458, 0.8502157926559448, 3.8009166717529297, -0.10643996298313141, 0.33194056153297424, 1.629966378211975, 
245, 3430182005, 0.21754666, -0.5355651, -0.19082059, -0.793367, 9.069292068481445, 0.8204516768455505, 3.7742581367492676, 0.21362273395061493, -0.6568825244903564, 1.6577692031860352, 
246, 3430198672, 0.21721002, -0.53551817, -0.19057095, -0.79355085, 9.069539070129395, 0.8205289840698242, 3.786355972290039, 0.5706765651702881, -1.536550760269165, 1.605826735496521, 
247, 3430215339, 0.21686459, -0.5354886, -0.19039825, -0.79370666, 9.08046817779541, 0.8610357642173767, 3.8793604373931885, 1.0678062438964844, -1.851157784461975, 1.371598482131958, 
248, 3430232006, 0.21655855, -0.53535676, -0.1901827, -0.79393077, 9.064532279968262, 0.8619329929351807, 3.8301312923431396, 0.8165712356567383, -0.9452686309814453, 1.4207619428634644, 
249, 3430248673, 0.2161944, -0.53531873, -0.18998182, -0.79410386, 9.02846908569336, 0.8330461382865906, 3.772512435913086, 0.72569739818573, -1.733665943145752, 1.2897403240203857, 
250, 3430265340, 0.21583953, -0.53546053, -0.18991148, -0.79412156, 9.096723556518555, 0.8073838353157043, 3.758761405944824, 1.515132188796997, -3.4586563110351562, 1.3620580434799194, 
251, 3430282007, 0.21551712, -0.53562295, -0.18989067, -0.79410464, 9.171744346618652, 0.8288434743881226, 3.8069958686828613, 1.7929528951644897, -3.737321615219116, 1.380895972251892, 
252, 3430298674, 0.21523798, -0.53568304, -0.1898155, -0.79415774, 9.20119571685791, 0.8351706862449646, 3.833491086959839, 1.639033317565918, -2.7861557006835938, 1.545470118522644, 
253, 3430315341, 0.21499665, -0.535625, -0.18970792, -0.7942878, 9.128870964050293, 0.8431982398033142, 3.7863759994506836, 1.7229536771774292, -1.7546045780181885, 1.6174163818359375, 
254, 3430332008, 0.21470155, -0.5357452, -0.18966727, -0.79429644, 9.09121322631836, 0.8521535396575928, 3.753401517868042, 1.8475590944290161, -3.3365726470947266, 1.5087159872055054, 
255, 3430348675, 0.21442497, -0.535974, -0.1897446, -0.7941983, 9.145236015319824, 0.8217724561691284, 3.824903964996338, 2.416071653366089, -4.478860855102539, 1.4228624105453491, 
256, 3430365342, 0.21418448, -0.5361101, -0.18985929, -0.794144, 9.182456970214844, 0.8015178442001343, 3.8512344360351562, 2.8669705390930176, -3.814570188522339, 1.3046725988388062, 
257, 3430382009, 0.21399958, -0.5361495, -0.1899366, -0.7941486, 9.19736385345459, 0.8277852535247803, 3.8461074829101562, 3.0007965564727783, -2.9357082843780518, 1.5513739585876465, 
258, 3430398676, 0.21385531, -0.5361499, -0.1899605, -0.79418164, 9.145279884338379, 0.8621213436126709, 3.819199562072754, 2.6712634563446045, -2.5013041496276855, 1.7939261198043823, 
259, 3430415343, 0.21367086, -0.5362618, -0.18994552, -0.7941593, 9.129647254943848, 0.872324526309967, 3.8461737632751465, 2.301173210144043, -3.3010993003845215, 1.9733304977416992, 
260, 3430432010, 0.21350929, -0.53635424, -0.18999591, -0.7941282, 9.135549545288086, 0.835455596446991, 3.857400417327881, 2.7148568630218506, -3.299818992614746, 1.8150954246520996, 
261, 3430448677, 0.2133292, -0.536453, -0.1900967, -0.7940857, 9.191434860229492, 0.8586039543151855, 3.8353397846221924, 3.0334908962249756, -3.4660191535949707, 1.5886147022247314, 
262, 3430465344, 0.21315873, -0.5364999, -0.1901968, -0.79407597, 9.22974967956543, 0.867330014705658, 3.858597993850708, 3.05464768409729, -3.0496983528137207, 1.5076533555984497, 
263, 3430482011, 0.21298704, -0.5364275, -0.19023722, -0.7941612, 9.19368839263916, 0.9059070944786072, 3.8641855716705322, 2.796945333480835, -1.9596214294433594, 1.431199312210083, 
264, 3430498678, 0.21284354, -0.5362663, -0.19020323, -0.79431653, 9.090106010437012, 0.9241297841072083, 3.7958171367645264, 2.514744520187378, -1.072256326675415, 1.6327966451644897, 
265, 3430515345, 0.21258141, -0.5363068, -0.19014604, -0.7943732, 9.099825859069824, 0.8995287418365479, 3.824913501739502, 1.8948404788970947, -2.6482186317443848, 1.5197681188583374, 
266, 3430532012, 0.21236366, -0.5363442, -0.1901468, -0.79440594, 9.177791595458984, 0.8609161972999573, 3.8483822345733643, 2.1047749519348145, -2.7712109088897705, 1.461972951889038, 
267, 3430548679, 0.21216628, -0.5362838, -0.19013105, -0.7945033, 9.159180641174316, 0.8638772964477539, 3.859079360961914, 2.1408886909484863, -1.948249340057373, 1.4062141180038452, 
268, 3430565346, 0.21192624, -0.53624356, -0.1900798, -0.7946067, 9.160970687866211, 0.8648391962051392, 3.7997705936431885, 1.8420783281326294, -2.031926155090332, 1.3509546518325806, 
269, 3430582013, 0.21170528, -0.5362191, -0.19009371, -0.7946789, 9.139409065246582, 0.8659477233886719, 3.8082950115203857, 2.2137057781219482, -2.3073010444641113, 1.251129150390625, 
270, 3430598680, 0.21148047, -0.53622264, -0.19015336, -0.794722, 9.187731742858887, 0.8707813620567322, 3.826953649520874, 2.364180326461792, -2.6444408893585205, 1.1061100959777832, 
271, 3430615347, 0.21123695, -0.5361383, -0.1901611, -0.79484195, 9.187963485717773, 0.8697574138641357, 3.8408899307250977, 2.073143243789673, -1.8256410360336304, 0.9769068360328674, 
272, 3430632014, 0.21103868, -0.53600353, -0.1901292, -0.794993, 9.158750534057617, 0.8602689504623413, 3.821744203567505, 2.106529474258423, -1.3134897947311401, 1.276934027671814, 
273, 3430648681, 0.21089579, -0.53588253, -0.19012009, -0.7951147, 9.133405685424805, 0.8575868606567383, 3.7881839275360107, 2.4005885124206543, -1.4605193138122559, 1.5316393375396729, 
274, 3430665348, 0.21072412, -0.5358425, -0.19015397, -0.795179, 9.14801025390625, 0.8592053651809692, 3.7869279384613037, 2.535695791244507, -2.2076802253723145, 1.4200321435928345, 
275, 3430682015, 0.21053462, -0.53575706, -0.19021675, -0.7952719, 9.161582946777344, 0.8576186895370483, 3.7876980304718018, 2.8006718158721924, -1.9042977094650269, 1.1659029722213745, 
276, 3430698682, 0.21039324, -0.53566915, -0.19034876, -0.79533684, 9.134092330932617, 0.8757157921791077, 3.8014962673187256, 3.1380558013916016, -2.049278974533081, 1.1107332706451416, 
277, 3430715349, 0.21022166, -0.53562707, -0.1904527, -0.7953858, 9.11032485961914, 0.8871444463729858, 3.79217791557312, 3.0433781147003174, -2.337498426437378, 1.2098416090011597, 
278, 3430732016, 0.21003178, -0.53559595, -0.19052802, -0.7954388, 9.12785530090332, 0.8932304382324219, 3.772109031677246, 2.715176820755005, -2.369987964630127, 1.1886982917785645, 
279, 3430748683, 0.20985603, -0.53556937, -0.19067894, -0.79546696, 9.151301383972168, 0.8861303925514221, 3.759361982345581, 2.9109222888946533, -2.5990941524505615, 0.915103554725647, 
280, 3430765350, 0.2096632, -0.5355291, -0.19085358, -0.795503, 9.177366256713867, 0.8978680968284607, 3.731642723083496, 2.995853900909424, -2.5456788539886475, 0.7053866982460022, 
281, 3430782017, 0.20941603, -0.5355181, -0.19101426, -0.795537, 9.205948829650879, 0.8718632459640503, 3.7292633056640625, 3.0572214126586914, -2.728309392929077, 0.640112578868866, 
282, 3430798684, 0.20930974, -0.5354614, -0.19124104, -0.79554856, 9.201406478881836, 0.8341153860092163, 3.7033281326293945, 3.5040736198425293, -2.5110437870025635, 0.9361314177513123, 
283, 3430815351, 0.20925312, -0.53543943, -0.19147523, -0.7955219, 9.209919929504395, 0.8306657671928406, 3.692603588104248, 3.7910001277923584, -2.774399518966675, 1.2997163534164429, 
284, 3430832018, 0.20919698, -0.5353836, -0.1916896, -0.79552263, 9.234816551208496, 0.851584255695343, 3.716675043106079, 3.8583996295928955, -2.438450813293457, 1.34580659866333, 
285, 3430848685, 0.20913291, -0.5352229, -0.19191118, -0.79559433, 9.215741157531738, 0.8684147000312805, 3.6705098152160645, 4.130892753601074, -1.6000702381134033, 1.10844087600708, 
286, 3430865352, 0.20910424, -0.5350933, -0.19223025, -0.7956119, 9.186007499694824, 0.8834353089332581, 3.682051420211792, 4.619891166687012, -2.074225664138794, 0.9822086691856384, 
287, 3430882019, 0.20912015, -0.53500974, -0.19260974, -0.7955721, 9.184146881103516, 0.9040600657463074, 3.7387895584106445, 4.964573860168457, -2.5718417167663574, 1.0833020210266113, 
288, 3430898686, 0.20916042, -0.53485715, -0.1929481, -0.7955821, 9.246777534484863, 0.9514137506484985, 3.7363803386688232, 4.752795696258545, -1.925748586654663, 1.160460352897644, 
289, 3430915353, 0.20919214, -0.53467906, -0.19326861, -0.7956158, 9.320708274841309, 0.9256688952445984, 3.7378499507904053, 4.7824296951293945, -1.6637052297592163, 1.1684387922286987, 
290, 3430932020, 0.20930208, -0.53436965, -0.19353992, -0.7957286, 9.327205657958984, 0.9016010165214539, 3.7831225395202637, 4.888036727905273, -0.47476986050605774, 1.487976312637329, 
291, 3430948687, 0.2095154, -0.53394663, -0.19370043, -0.7959176, 9.27468204498291, 0.9193218946456909, 3.7605221271514893, 4.802835941314697, 0.7374728918075562, 2.2262752056121826, 
292, 3430965354, 0.2096913, -0.53359646, -0.19371046, -0.79610366, 9.173355102539062, 0.9190574884414673, 3.7594587802886963, 3.9765634536743164, 0.5203859806060791, 2.762355089187622, 
293, 3430982021, 0.20979702, -0.5333141, -0.19374001, -0.7962577, 9.105880737304688, 0.9451401233673096, 3.8180012702941895, 3.5055720806121826, -0.11049959808588028, 2.3415002822875977, 
294, 3430998688, 0.20981598, -0.5330668, -0.19382742, -0.7963971, 9.07117748260498, 0.9836658835411072, 3.837843894958496, 3.379378318786621, -0.5632040500640869, 1.6840606927871704, 
295, 3431015355, 0.20971096, -0.5328971, -0.19392017, -0.7965156, 9.049989700317383, 1.0483506917953491, 3.8682057857513428, 2.840980052947998, -1.2398724555969238, 1.1078581809997559, 
296, 3431032022, 0.20944518, -0.5327808, -0.19392098, -0.7966631, 9.0450439453125, 1.070915937423706, 3.8417551517486572, 1.5770124197006226, -1.5137298107147217, 0.5745825171470642, 
297, 3431048689, 0.20900397, -0.53276515, -0.19388358, -0.7967986, 9.036598205566406, 1.0628036260604858, 3.8109657764434814, 0.7930076718330383, -2.2695095539093018, -0.01802493818104267, 
298, 3431065356, 0.20845403, -0.5328407, -0.1938957, -0.79688925, 9.078041076660156, 1.059177279472351, 3.8408424854278564, 0.5306823253631592, -3.155247926712036, -0.6326273083686829, 
299, 3431082023, 0.20783646, -0.53289276, -0.1938692, -0.79702204, 9.108551025390625, 1.012742042541504, 3.827995777130127, -0.169588103890419, -2.926910638809204, -1.0372568368911743, 
300, 3431098690, 0.20719047, -0.532858, -0.19381815, -0.797226, 9.08047103881836, 0.9602029919624329, 3.7699739933013916, -0.19554656744003296, -2.174255847930908, -1.251391887664795, 
301, 3431115357, 0.20657429, -0.5329941, -0.19390447, -0.7972739, 8.993186950683594, 0.9234248399734497, 3.7187423706054688, 0.19742268323898315, -3.8788321018218994, -1.3110053539276123, 
302, 3431132024, 0.20589302, -0.5333935, -0.19410616, -0.79713374, 9.068389892578125, 0.9268898367881775, 3.7401678562164307, 0.7015703320503235, -6.235329627990723, -1.3888682126998901, 
303, 3431148691, 0.20525502, -0.53382236, -0.1943072, -0.7969622, 9.11181926727295, 0.885442316532135, 3.799522638320923, 0.7972465753555298, -6.456546306610107, -1.0940145254135132, 
304, 3431165358, 0.2045893, -0.53440166, -0.19447626, -0.796704, 9.086716651916504, 0.8837835192680359, 3.8048593997955322, 0.8471401929855347, -7.547122478485107, -0.6539115309715271, 
305, 3431182025, 0.20398243, -0.53517026, -0.1946814, -0.7962936, 9.003172874450684, 0.8550726771354675, 3.788041353225708, 0.9406265616416931, -9.14048957824707, -0.10394276678562164, 
306, 3431198692, 0.20331275, -0.53634536, -0.19493404, -0.79561204, 8.93634033203125, 0.897365391254425, 3.6687755584716797, 0.8443358540534973, -12.508140563964844, 0.3215932250022888, 
307, 3431215359, 0.20254375, -0.53806794, -0.19527444, -0.79456097, 9.042505264282227, 0.9876404404640198, 3.6180248260498047, 0.6465163826942444, -17.125404357910156, 0.6791982054710388, 
308, 3431232026, 0.20179442, -0.54003996, -0.19562016, -0.7933276, 9.21851634979248, 1.0035675764083862, 3.6189801692962646, 0.3094017803668976, -19.17344093322754, 1.2237122058868408, 
309, 3431248693, 0.20104833, -0.5418616, -0.19582991, -0.7922225, 9.36666488647461, 0.9850401282310486, 3.6393883228302, -0.15528357028961182, -17.658700942993164, 1.4416378736495972, 
310, 3431265360, 0.20035467, -0.5434596, -0.19595234, -0.7912726, 9.327741622924805, 0.9340335130691528, 3.6087427139282227, -0.4249599277973175, -15.678156852722168, 1.4960646629333496, 
311, 3431282027, 0.19965526, -0.5449851, -0.19606201, -0.7903726, 9.23095417022705, 0.9670673608779907, 3.5810484886169434, -0.07692781090736389, -15.044812202453613, 1.4778093099594116, 
312, 3431298694, 0.19903502, -0.5464162, -0.19616729, -0.7895145, 9.189505577087402, 0.9848854541778564, 3.530398368835449, -0.014887391589581966, -14.291915893554688, 1.6326699256896973, 
313, 3431315361, 0.19843735, -0.54794973, -0.19624525, -0.7885821, 9.157526016235352, 0.964501142501831, 3.4637656211853027, -0.25098541378974915, -15.071451187133789, 2.045226812362671, 
314, 3431332028, 0.19788949, -0.5496166, -0.19619484, -0.78757167, 9.221576690673828, 0.9873523116111755, 3.4665780067443848, -0.5584149956703186, -15.818922996520996, 3.1712520122528076, 
315, 3431348695, 0.19759357, -0.55100995, -0.19585936, -0.78675544, 9.185184478759766, 0.9974888563156128, 3.405174970626831, -0.9414145946502686, -12.867796897888184, 5.004891395568848, 
316, 3431365362, 0.19755277, -0.55208445, -0.1951922, -0.78617805, 8.89761734008789, 0.9873751401901245, 3.345029354095459, -2.326690673828125, -9.510557174682617, 6.662225246429443, 
317, 3431382029, 0.1975941, -0.5534384, -0.19427603, -0.7854422, 8.737244606018066, 0.9714013338088989, 3.2328083515167236, -3.509101629257202, -11.174603462219238, 8.645135879516602, 
318, 3431398696, 0.19786245, -0.55510664, -0.19306776, -0.78449476, 8.747902870178223, 1.0756876468658447, 3.1494526863098145, -4.0276336669921875, -12.948214530944824, 11.797965049743652, 
319, 3431415363, 0.19838087, -0.55687046, -0.19139536, -0.7835231, 8.747451782226562, 1.0946990251541138, 3.0948667526245117, -5.678823471069336, -12.594748497009277, 15.076460838317871, 
320, 3431432030, 0.1989914, -0.5588493, -0.18933702, -0.78245854, 8.812204360961914, 1.117128849029541, 3.0710692405700684, -7.59531307220459, -13.465126991271973, 17.456867218017578, 
321, 3431448697, 0.19951512, -0.56113654, -0.18713379, -0.7812173, 8.974563598632812, 1.0276055335998535, 2.9372851848602295, -9.010215759277344, -15.729952812194824, 18.15984344482422, 
322, 3431465364, 0.19980264, -0.56374377, -0.18525425, -0.7797132, 9.364493370056152, 0.8365402817726135, 2.847987413406372, -8.02556037902832, -19.188690185546875, 16.49515724182129, 
323, 3431482031, 0.19989695, -0.5664104, -0.18407652, -0.7780337, 10.030611991882324, 0.556684136390686, 2.8193509578704834, -5.085873603820801, -21.404619216918945, 12.984138488769531, 
324, 3431498698, 0.2001152, -0.5684262, -0.18376844, -0.7765789, 10.524724006652832, 0.4009819030761719, 2.7598628997802734, 0.2397352159023285, -18.097248077392578, 8.991800308227539, 
325, 3431515365, 0.20072843, -0.5695511, -0.18414441, -0.7755066, 10.660370826721191, 0.4529941976070404, 2.772812843322754, 6.160063743591309, -12.269112586975098, 6.757607936859131, 
326, 3431532032, 0.2017425, -0.5699373, -0.18474175, -0.7748174, 10.357161521911621, 0.5888511538505554, 2.7664763927459717, 9.901286125183105, -6.579593181610107, 6.6853928565979, 
327, 3431548699, 0.20301856, -0.5698946, -0.18530051, -0.7743822, 9.99592113494873, 0.8525456786155701, 2.706488847732544, 10.852119445800781, -2.9044880867004395, 7.2914652824401855, 
328, 3431565366, 0.20436695, -0.56974983, -0.1858692, -0.7739973, 9.69741153717041, 1.1465572118759155, 2.598093032836914, 11.186386108398438, -2.074348211288452, 7.419651508331299, 
329, 3431582033, 0.20538482, -0.56989574, -0.18645938, -0.7734785, 9.518710136413574, 1.335664987564087, 2.6052589416503906, 10.148838996887207, -4.559907913208008, 6.262289524078369, 
330, 3431598700, 0.20588186, -0.57037544, -0.18721138, -0.77281076, 9.464334487915039, 1.3385814428329468, 2.591371536254883, 7.980325698852539, -7.840127468109131, 3.3164169788360596, 
331, 3431615367, 0.20570979, -0.5711265, -0.1880895, -0.7720883, 9.524026870727539, 1.2035259008407593, 2.5192952156066895, 6.093149185180664, -10.500872611999512, -0.1799100786447525, 
332, 3431632034, 0.20508707, -0.5720766, -0.18915248, -0.7712907, 9.772071838378906, 1.0897904634475708, 2.5033233165740967, 5.479866027832031, -12.660013198852539, -2.820542573928833, 
333, 3431648701, 0.20451145, -0.5726147, -0.19006088, -0.77082056, 9.885992050170898, 1.0674992799758911, 2.5240917205810547, 4.725301265716553, -8.906364440917969, -3.0280942916870117, 
334, 3431665368, 0.2040271, -0.5729182, -0.19072728, -0.77055866, 9.768474578857422, 0.9908552169799805, 2.5306878089904785, 3.8872592449188232, -6.365640640258789, -2.1757993698120117, 
335, 3431682035, 0.20367196, -0.5729385, -0.19130182, -0.7704953, 9.771119117736816, 0.9551898241043091, 2.522752285003662, 3.872915744781494, -3.7811262607574463, -1.8188731670379639, 
336, 3431698702, 0.20343475, -0.57264215, -0.19185896, -0.7706396, 9.624523162841797, 0.88238525390625, 2.347280979156494, 4.57857084274292, -1.0798954963684082, -1.7841805219650269, 
337, 3431715369, 0.20326291, -0.5722745, -0.19249026, -0.77080065, 9.518457412719727, 0.8645812273025513, 2.341029405593872, 5.322011947631836, -0.6359313726425171, -1.8404585123062134, 
338, 3431732036, 0.20314546, -0.5718477, -0.19306621, -0.7710043, 9.568471908569336, 0.840537428855896, 2.3154783248901367, 5.323996543884277, 0.015700586140155792, -1.454026699066162, 
339, 3431748703, 0.20308724, -0.57132566, -0.19342585, -0.77131665, 9.5562162399292, 0.8994494080543518, 2.298159122467041, 4.365621089935303, 1.343975305557251, -0.5743840932846069, 
340, 3431765370, 0.20305121, -0.5708268, -0.19351816, -0.7716721, 9.578242301940918, 0.9139423966407776, 2.300568103790283, 2.9284539222717285, 1.8101905584335327, 0.5628646612167358, 
341, 3431782037, 0.20305681, -0.5703215, -0.19342813, -0.77206683, 9.55388355255127, 0.8075641393661499, 2.2467098236083984, 2.0535173416137695, 2.323718547821045, 1.4313591718673706, 
342, 3431798704, 0.20308083, -0.56986594, -0.19326231, -0.7724381, 9.553382873535156, 0.7016832828521729, 2.221160888671875, 1.788291335105896, 2.1249191761016846, 1.9539158344268799, 
343, 3431815371, 0.20315568, -0.5693649, -0.19298379, -0.7728576, 9.562667846679688, 0.7211189866065979, 2.245030641555786, 1.3216155767440796, 2.7936415672302246, 2.518253803253174, 
344, 3431832038, 0.20330177, -0.5688166, -0.19250302, -0.7733426, 9.548548698425293, 0.8571527600288391, 2.199371576309204, 0.42073988914489746, 3.69195556640625, 3.5067250728607178, 
345, 3431848705, 0.20333445, -0.56822544, -0.19184154, -0.77393264, 9.534008026123047, 0.8995603322982788, 2.162553310394287, -0.8398340940475464, 4.466816425323486, 3.473146438598633, 
346, 3431865372, 0.20305708, -0.5677491, -0.19101937, -0.77455837, 9.469863891601562, 0.9508550763130188, 2.0638978481292725, -3.0326013565063477, 3.83579683303833, 2.580786943435669, 
347, 3431882039, 0.20246427, -0.56743, -0.1900175, -0.7751934, 9.355302810668945, 1.040338158607483, 1.9542429447174072, -5.826011657714844, 2.868558645248413, 1.6927305459976196, 
348, 3431898706, 0.20158103, -0.56750596, -0.18877566, -0.77567124, 9.241040229797363, 1.1760036945343018, 1.9582996368408203, -8.866382598876953, 0.10846981406211853, 1.7407420873641968, 
349, 3431915373, 0.20042838, -0.5678088, -0.18713291, -0.7761463, 9.146166801452637, 1.2299407720565796, 1.9976933002471924, -12.050626754760742, -0.8617653250694275, 2.2674357891082764, 
350, 3431932040, 0.19901253, -0.568349, -0.18497455, -0.7766325, 8.926648139953613, 1.1727306842803955, 2.091651678085327, -15.608896255493164, -1.6572262048721313, 3.341602087020874, 
351, 3431948707, 0.19757052, -0.56881887, -0.18224071, -0.7773026, 8.554227828979492, 1.0133395195007324, 2.0459554195404053, -19.092927932739258, 0.19335052371025085, 5.071987152099609, 
352, 3431965374, 0.1962097, -0.56934625, -0.17929332, -0.7779465, 8.25484848022461, 0.7242834568023682, 1.933843731880188, -20.234800338745117, 0.16786590218544006, 6.377290725708008, 
353, 3431982041, 0.19514862, -0.56976116, -0.17636235, -0.7785792, 8.230388641357422, 0.4092283844947815, 1.885657787322998, -18.92078971862793, 1.0802172422409058, 7.758137226104736, 
354, 3431998708, 0.19464424, -0.57003963, -0.17360903, -0.77912027, 8.295442581176758, 0.20810812711715698, 1.689566731452942, -15.11583423614502, 1.9210319519042969, 10.108154296875, 
355, 3432015375, 0.19496344, -0.57006353, -0.17098731, -0.7796027, 8.142975807189941, 0.17393858730793, 1.5147385597229004, -11.040398597717285, 3.86539626121521, 13.688056945800781, 
356, 3432032042, 0.19595532, -0.5697282, -0.16830885, -0.7801817, 7.718330383300781, 0.19741788506507874, 1.4334211349487305, -8.190869331359863, 7.0642991065979, 16.99973487854004, 
357, 3432048709, 0.19737616, -0.5695783, -0.16604312, -0.78041846, 7.48100471496582, 0.3416641056537628, 1.2295771837234497, -4.253922462463379, 4.685029983520508, 18.32192611694336, 
358, 3432065376, 0.19901586, -0.56988674, -0.16433027, -0.78013945, 7.55241584777832, 0.571622908115387, 0.9507371783256531, -0.13186074793338776, -0.2586821913719177, 18.654598236083984, 
359, 3432082043, 0.20077659, -0.57051027, -0.16292772, -0.7795265, 7.741501808166504, 0.7232080101966858, 0.7771698832511902, 1.8196439743041992, -3.5181710720062256, 18.8641357421875, 
360, 3432098710, 0.20257983, -0.57135147, -0.16169676, -0.77869964, 7.9922051429748535, 0.7341359257698059, 0.7922284603118896, 2.664172887802124, -5.680360794067383, 18.9110107421875, 
361, 3432115377, 0.20441394, -0.57226604, -0.16042255, -0.777812, 8.275006294250488, 0.6855263113975525, 0.9403907656669617, 2.4445691108703613, -6.181614398956299, 19.39710235595703, 
362, 3432132044, 0.20630643, -0.5730663, -0.15888742, -0.7770378, 8.588349342346191, 0.5859151482582092, 0.6340047121047974, 1.6227078437805176, -4.651599884033203, 20.55276107788086, 
363, 3432148711, 0.2084171, -0.5738891, -0.15728442, -0.77619296, 8.634271621704102, 0.24889706075191498, 0.2391938716173172, 2.2611377239227295, -4.673224449157715, 22.146875381469727, 
364, 3432165378, 0.2107938, -0.5751151, -0.15583654, -0.7749346, 8.942365646362305, -0.315382719039917, 0.038534700870513916, 4.008896827697754, -8.340225219726562, 23.97994613647461, 
365, 3432182045, 0.21378128, -0.576654, -0.15513545, -0.77311105, 9.665741920471191, -0.7608946561813354, -0.1758248656988144, 10.466445922851562, -12.612610816955566, 25.391693115234375, 
366, 3432198712, 0.21762705, -0.57826245, -0.15538582, -0.770783, 10.79959774017334, -0.5131257176399231, 0.061885952949523926, 19.354825973510742, -15.39758586883545, 26.96467399597168, 
367, 3432215379, 0.22220421, -0.57873154, -0.15552431, -0.76909506, 11.764315605163574, 0.2209005504846573, 0.4418047070503235, 22.74968910217285, -5.797590732574463, 29.106369018554688, 
368, 3432232046, 0.22691818, -0.577391, -0.15472062, -0.76888824, 11.972850799560547, 1.1070784330368042, 1.179957389831543, 19.540342330932617, 11.312029838562012, 29.3992919921875, 
369, 3432248713, 0.23119038, -0.5744213, -0.15362507, -0.7700589, 11.294057846069336, 1.9233450889587402, 2.3736417293548584, 17.251760482788086, 25.42695426940918, 24.353790283203125, 
370, 3432265380, 0.2342474, -0.5706744, -0.1538696, -0.77187, 10.231386184692383, 1.495137333869934, 3.8001859188079834, 20.139917373657227, 28.6752986907959, 10.858087539672852, 
371, 3432282047, 0.23555548, -0.5675757, -0.15695603, -0.7731341, 9.476149559020996, -0.0533035546541214, 4.955545425415039, 27.84815788269043, 16.648527145385742, -7.974411487579346, 
372, 3432298714, 0.23562495, -0.5658511, -0.16376008, -0.7729657, 9.493632316589355, -1.5650782585144043, 6.460757732391357, 42.10194778442383, -3.6403188705444336, -25.26056671142578, 
373, 3432315381, 0.23518218, -0.56390405, -0.17313506, -0.7724802, 8.773686408996582, -1.470604419708252, 7.0762410163879395, 54.475921630859375, -8.498177528381348, -37.770687103271484, 
374, 3432332048, 0.23382008, -0.5633346, -0.18285461, -0.77106863, 8.396244049072266, 0.6690883636474609, 7.401819705963135, 51.63456344604492, -21.135976791381836, -40.894134521484375, 
375, 3432348715, 0.23084584, -0.56327915, -0.19061486, -0.7701253, 8.451520919799805, 2.7225394248962402, 7.497156143188477, 33.491493225097656, -21.017776489257812, -41.98590850830078, 
376, 3432365382, 0.22537793, -0.56447244, -0.19672023, -0.76933515, 8.082094192504883, 3.586054801940918, 7.621231555938721, 12.974770545959473, -27.77157974243164, -47.31071472167969, 
377, 3432382049, 0.21714687, -0.56761545, -0.20275809, -0.76782125, 10.212553024291992, 1.9914605617523193, 7.228808879852295, -0.16786238551139832, -44.628849029541016, -57.8495979309082, 
378, 3432398716, 0.2068838, -0.57095706, -0.2095342, -0.7663569, 14.873353958129883, -0.8427562117576599, 5.965230464935303, -4.537698745727539, -49.49614715576172, -71.23600006103516, 
379, 3432415383, 0.19886747, -0.57263994, -0.21327603, -0.76619095, 15.830533027648926, -0.2716341018676758, 4.856308460235596, -11.107439994812012, -28.123197555541992, -51.76116180419922, 
380, 3432432050, 0.19586232, -0.5724669, -0.2139441, -0.76690793, 13.746212005615234, 0.6840753555297852, 3.6465039253234863, -6.346226215362549, -3.325230360031128, -17.248655319213867, 
381, 3432448717, 0.19456078, -0.5737393, -0.21306263, -0.7665337, 12.524850845336914, 2.116663694381714, 3.41089129447937, -8.264961242675781, -10.659353256225586, 1.3741222620010376, 
382, 3432465384, 0.19383001, -0.57424945, -0.21034905, -0.76708597, 11.156578063964844, 2.0977060794830322, 3.160519599914551, -15.918254852294922, 0.30486834049224854, 9.287933349609375, 
383, 3432482051, 0.19279462, -0.57545125, -0.20705724, -0.76734185, 10.050680160522461, 0.7858970165252686, 2.9044480323791504, -20.647855758666992, -4.190457820892334, 11.381820678710938, 
384, 3432498718, 0.19194332, -0.576569, -0.20455319, -0.7673879, 10.005828857421875, -0.5120261907577515, 2.664705514907837, -15.385624885559082, -5.373608589172363, 9.374349594116211, 
385, 3432515385, 0.19154955, -0.5765152, -0.2034992, -0.76780665, 9.818943977355957, -1.2633943557739258, 2.474324941635132, -4.863589286804199, 1.01652991771698, 3.8685684204101562, 
386, 3432532052, 0.19187757, -0.5755149, -0.20393217, -0.7683602, 9.41344165802002, -1.1440839767456055, 2.1140239238739014, 7.052894592285156, 5.616086006164551, 0.26945847272872925, 
387, 3432548719, 0.19310467, -0.5745251, -0.20507322, -0.76848996, 9.133658409118652, -0.6646445989608765, 1.7509866952896118, 14.731120109558105, 4.200422763824463, 2.6896049976348877, 
388, 3432565386, 0.19541407, -0.57339954, -0.20611922, -0.7684669, 9.170478820800781, -0.1828540861606598, 1.6212399005889893, 18.932270050048828, 5.98798942565918, 8.767701148986816, 
389, 3432582053, 0.19851455, -0.57206035, -0.20663287, -0.76853234, 9.24018383026123, 0.3258168697357178, 1.7477879524230957, 19.373899459838867, 9.31740951538086, 14.594841003417969, 
390, 3432598720, 0.20180185, -0.57034874, -0.20678316, -0.7689077, 8.826074600219727, 0.6382117867469788, 1.591894268989563, 18.292470932006836, 13.285085678100586, 16.05819320678711, 
391, 3432615387, 0.20493357, -0.56832325, -0.2072414, -0.76945573, 8.136634826660156, 0.8907554149627686, 1.2761263847351074, 19.42335319519043, 14.984468460083008, 13.321227073669434, 
392, 3432632054, 0.20759068, -0.566674, -0.20850234, -0.769619, 7.377079010009766, 0.9313670992851257, 1.0094759464263916, 21.86665916442871, 9.70860481262207, 8.767566680908203, 
393, 3432648721, 0.20975624, -0.5652493, -0.21055429, -0.769521, 6.922666072845459, 0.9176640510559082, 0.7526793479919434, 24.156633377075195, 5.6915130615234375, 3.777407646179199, 
394, 3432665388, 0.21135283, -0.56387264, -0.2132607, -0.7693489, 6.486578464508057, 0.8783408403396606, 0.446737140417099, 25.285888671875, 3.3974685668945312, -1.638582706451416, 
395, 3432682055, 0.21216115, -0.56304437, -0.21659975, -0.76879984, 6.345182418823242, 0.798524796962738, 0.2877129316329956, 25.388994216918945, -3.0004899501800537, -6.8877129554748535, 
396, 3432698722, 0.21239264, -0.5632494, -0.2207958, -0.7673907, 6.682291507720947, 0.6906492710113525, 0.4768664836883545, 27.480329513549805, -13.860037803649902, -10.454483985900879, 
397, 3432715389, 0.21244642, -0.5637819, -0.22542416, -0.7656373, 7.294303894042969, 0.2601557672023773, 0.3267621099948883, 29.058534622192383, -17.79399871826172, -12.087526321411133, 
398, 3432732056, 0.2125035, -0.5637576, -0.22956479, -0.764408, 7.456015110015869, 0.08728450536727905, 0.004343288019299507, 26.409626007080078, -12.08387565612793, -11.851913452148438, 
399, 3432748723, 0.21251172, -0.5648444, -0.23387922, -0.76229286, 7.78491735458374, 0.1286086142063141, 0.8133152723312378, 26.214752197265625, -21.727163314819336, -9.943809509277344, 
400, 3432765390, 0.21266985, -0.56614876, -0.23773818, -0.76008403, 8.613107681274414, 0.5777423977851868, 1.0592172145843506, 24.945615768432617, -22.210662841796875, -6.73646879196167, 
401, 3432782057, 0.2133256, -0.56563145, -0.24008241, -0.7595484, 8.657010078430176, 0.8515986204147339, 1.5177278518676758, 18.994733810424805, -3.1119277477264404, -3.6538028717041016, 
402, 3432798724, 0.21394965, -0.5647147, -0.24141707, -0.759632, 7.935577392578125, 0.5773282051086426, 2.1779463291168213, 13.110292434692383, 2.8183209896087646, -1.4807031154632568, 
403, 3432815391, 0.21480775, -0.5639527, -0.2415435, -0.75991577, 7.361015796661377, 0.7376085519790649, 2.422163724899292, 6.412935733795166, 4.850471019744873, 4.193274021148682, 
404, 3432832058, 0.21604009, -0.56275755, -0.2397933, -0.7610057, 6.52101993560791, 0.9642252922058105, 2.3612351417541504, -2.6369645595550537, 13.620283126831055, 11.50961685180664, 
405, 3432848725, 0.21695624, -0.5621624, -0.23676538, -0.76213247, 5.448052406311035, 0.8883275389671326, 3.2926950454711914, -11.495832443237305, 11.985106468200684, 15.734696388244629, 
406, 3432865392, 0.21614039, -0.5644598, -0.23297656, -0.76183355, 5.332597255706787, 1.153326153755188, 4.322609901428223, -24.1679630279541, -10.405481338500977, 16.43915557861328, 
407, 3432882059, 0.21407802, -0.5693818, -0.22950639, -0.7598037, 6.643479347229004, 1.6415154933929443, 4.774384498596191, -28.457569122314453, -33.400142669677734, 15.459149360656738, 
408, 3432898726, 0.21061505, -0.5772971, -0.22677399, -0.75560766, 8.463641166687012, 2.313533306121826, 6.22424840927124, -31.071327209472656, -60.87712860107422, 13.183106422424316, 
409, 3432915393, 0.20638707, -0.5870242, -0.2234513, -0.75025105, 11.330589294433594, 2.33981990814209, 6.769829750061035, -37.984554290771484, -75.31825256347656, 16.0836181640625, 
410, 3432932060, 0.20372249, -0.5938199, -0.2178788, -0.74726444, 12.708830833435059, 1.92474365234375, 5.989220142364502, -42.755958557128906, -45.12117004394531, 25.381607055664062, 
411, 3432948727, 0.20231193, -0.5977445, -0.21185839, -0.7462491, 12.090453147888184, 1.3404583930969238, 5.199397087097168, -38.866119384765625, -19.881210327148438, 26.60248565673828, 
412, 3432965394, 0.20119017, -0.6002971, -0.20745486, -0.74574006, 12.61529541015625, 0.502739667892456, 5.374155521392822, -28.210731506347656, -12.642786026000977, 18.737773895263672, 
413, 3432982061, 0.19971322, -0.6027551, -0.20291425, -0.74540365, 14.256049156188965, 2.0772294998168945, 4.920372486114502, -30.489477157592773, -11.818434715270996, 17.09531021118164, 
414, 3432998728, 0.19939485, -0.6080596, -0.19804369, -0.74248517, 17.840280532836914, 4.707496166229248, 4.534801483154297, -27.689455032348633, -35.07663345336914, 31.933956146240234, 
415, 3433015395, 0.19976556, -0.6105183, -0.19163041, -0.74205047, 18.53228187561035, 4.760286808013916, 3.286370038986206, -32.1804313659668, -7.132163047790527, 34.687660217285156, 
416, 3433032062, 0.19780722, -0.6101953, -0.18657328, -0.7441267, 14.523551940917969, 1.429963231086731, 2.271836042404175, -34.54276657104492, 12.671939849853516, 10.068345069885254, 
417, 3433048729, 0.19483553, -0.60954666, -0.18491071, -0.74585545, 14.214479446411133, -1.3400923013687134, 1.1300344467163086, -20.54318618774414, 6.975209712982178, -9.29359245300293, 
418, 3433065396, 0.19311051, -0.60720176, -0.18635409, -0.7478546, 12.932809829711914, -2.5610439777374268, 1.4019644260406494, 2.5448825359344482, 14.263585090637207, -18.47695541381836, 
419, 3433082063, 0.19289225, -0.6049593, -0.18987933, -0.74884087, 11.29147720336914, -1.5596559047698975, 1.5805554389953613, 20.71525001525879, 8.7008638381958, -18.00638771057129, 
420, 3433098730, 0.1940747, -0.6029856, -0.19351193, -0.74919724, 10.539292335510254, 0.43269357085227966, 1.51598060131073, 27.568859100341797, 6.400870323181152, -10.095878601074219, 
421, 3433115397, 0.1959762, -0.601409, -0.19560842, -0.74942505, 10.254361152648926, 1.9314881563186646, 1.860491156578064, 22.27783966064453, 6.84512186050415, 0.6731542348861694, 
422, 3433132064, 0.19776157, -0.5994737, -0.19520512, -0.75061107, 9.663930892944336, 2.690912961959839, 1.8409186601638794, 8.106047630310059, 15.875094413757324, 8.662367820739746, 
423, 3433148731, 0.19888324, -0.5973364, -0.19328223, -0.7525136, 8.625317573547363, 2.612720012664795, 1.2387800216674805, -3.169846773147583, 21.05417251586914, 10.292706489562988, 
424, 3433165398, 0.19920918, -0.59564626, -0.19100514, -0.7543464, 7.866087913513184, 2.1068174839019775, 1.0366655588150024, -8.800384521484375, 17.894655227661133, 8.356881141662598, 
425, 3433182065, 0.19890748, -0.5941075, -0.18867399, -0.75622374, 7.401974678039551, 1.5211418867111206, 1.0607072114944458, -11.927597045898438, 16.557504653930664, 5.487497806549072, 
426, 3433198732, 0.1980451, -0.5923062, -0.18616311, -0.7584819, 6.8711652755737305, 0.9904601573944092, 0.9595098495483398, -15.294021606445312, 19.008312225341797, 2.4617183208465576, 
427, 3433215399, 0.19663765, -0.59101623, -0.18383272, -0.76042026, 6.431395530700684, 0.8209500908851624, 0.8885345458984375, -16.863332748413086, 14.109135627746582, -0.01897263713181019, 
428, 3433232066, 0.19508527, -0.59016675, -0.18163876, -0.76200557, 6.349222183227539, 0.7618920207023621, 0.9962472915649414, -16.891559600830078, 10.017095565795898, -0.29242056608200073, 
429, 3433248733, 0.19366689, -0.5892625, -0.17908359, -0.7636701, 6.283836364746094, 0.5547335743904114, 0.6025201082229614, -18.27033805847168, 11.286371231079102, 1.7037980556488037, 
430, 3433265400, 0.19267705, -0.58873224, -0.17605758, -0.7650318, 6.424344539642334, 0.14437538385391235, 0.5796421766281128, -19.13308334350586, 9.269084930419922, 6.725124835968018, 
431, 3433282067, 0.19253497, -0.5884219, -0.17252752, -0.7661097, 6.604855537414551, -0.1912720948457718, 0.6632174849510193, -18.30120277404785, 8.676896095275879, 13.858048439025879, 
432, 3433298734, 0.19358613, -0.58807987, -0.16896342, -0.76690155, 6.559041976928711, -0.22258564829826355, 0.7686303853988647, -13.271103858947754, 9.165346145629883, 20.610485076904297, 
433, 3433315401, 0.19587359, -0.5884849, -0.16594677, -0.7666689, 6.355184078216553, 0.15499010682106018, 1.0087767839431763, -5.1896138191223145, 1.8099772930145264, 27.134498596191406, 
434, 3433332068, 0.19859421, -0.59112394, -0.16391966, -0.7643713, 6.527661323547363, 0.4345206022262573, 1.3880101442337036, 1.1271816492080688, -19.147188186645508, 30.740503311157227, 
435, 3433348735, 0.20137876, -0.59448886, -0.16331747, -0.76115525, 7.17981481552124, 0.5105673670768738, 1.5162111520767212, 8.919386863708496, -28.558889389038086, 27.360164642333984, 
436, 3433365402, 0.20408075, -0.5961924, -0.16434564, -0.75887835, 8.051438331604004, 0.521779477596283, 1.679317593574524, 18.3598690032959, -18.368213653564453, 17.103153228759766, 
437, 3433382069, 0.20619504, -0.59557825, -0.1665951, -0.75829834, 8.815449714660645, 0.3093148171901703, 1.661718726158142, 23.65675926208496, -1.6897822618484497, 4.037555694580078, 
438, 3433398736, 0.20788205, -0.5929708, -0.17008473, -0.7591061, 8.969792366027832, 0.19025233387947083, 2.052333116531372, 29.608064651489258, 12.149333000183105, -7.517573356628418, 
439, 3433415403, 0.20987879, -0.5896878, -0.17517294, -0.75995636, 8.01889419555664, 0.5241379141807556, 3.600229263305664, 40.12936782836914, 13.931004524230957, -13.270723342895508, 
440, 3433432070, 0.21200418, -0.5871665, -0.18135098, -0.7598695, 7.3264336585998535, 0.40767884254455566, 4.222021579742432, 46.373695373535156, 4.7111687660217285, -14.741473197937012, 
441, 3433448737, 0.21367244, -0.58819044, -0.1889244, -0.7567587, 7.68389892578125, -0.3325657546520233, 4.592447280883789, 50.42350769042969, -28.65914535522461, -13.931863784790039, 
442, 3433465404, 0.21499196, -0.5926038, -0.19785199, -0.7506356, 9.432387351989746, -0.39637625217437744, 5.357446193695068, 55.002803802490234, -60.96030044555664, -12.404294967651367, 
443, 3433482071, 0.21611556, -0.5963349, -0.20689078, -0.74489945, 11.505629539489746, 0.6920691132545471, 5.130383491516113, 55.271976470947266, -56.34278869628906, -15.380378723144531, 
444, 3433498738, 0.21610071, -0.5982464, -0.21438232, -0.7412436, 12.411195755004883, 2.1982662677764893, 5.661401271820068, 42.43198776245117, -37.853424072265625, -20.54204750061035, 
445, 3433515405, 0.21409236, -0.6000023, -0.22049494, -0.73860943, 13.891215324401855, 2.462616443634033, 6.2093963623046875, 25.933181762695312, -33.79658508300781, -26.75029182434082, 
446, 3433532072, 0.20992474, -0.60094374, -0.22732984, -0.7369663, 16.341819763183594, 0.9379016757011414, 5.832900047302246, 20.3963565826416, -29.965721130371094, -43.363182067871094, 
447, 3433548739, 0.20479228, -0.60037696, -0.23493427, -0.73648745, 19.315662384033203, -1.1805685758590698, 4.341409206390381, 20.679861068725586, -20.175739288330078, -55.474876403808594, 
448, 3433565406, 0.2041169, -0.59601027, -0.23786101, -0.73927677, 15.405855178833008, -0.38589268922805786, 2.5435678958892822, 15.479155540466309, 26.33025360107422, -24.38901138305664, 
449, 3433582073, 0.20645498, -0.59608585, -0.23915409, -0.7381487, 12.55831241607666, 1.423898696899414, 1.3324326276779175, 19.701784133911133, -5.072930812835693, 10.34908676147461, 
450, 3433598740, 0.20934737, -0.5973677, -0.23845011, -0.73652357, 13.105245590209961, 3.3290882110595703, 1.8228594064712524, 10.940047264099121, -9.464578628540039, 24.03542137145996, 
451, 3433615407, 0.21105124, -0.59863997, -0.23604417, -0.73577917, 12.15194320678711, 3.4840352535247803, 2.347717523574829, -3.9980931282043457, -5.286004543304443, 23.7537784576416, 
452, 3433632074, 0.21138906, -0.5992275, -0.23325923, -0.736092, 11.872941970825195, 1.6732792854309082, 2.593592405319214, -12.26914119720459, 0.8626818060874939, 15.792705535888672, 
453, 3433648741, 0.21120405, -0.5978195, -0.23169424, -0.7377823, 11.640974998474121, -0.6975263953208923, 2.4811651706695557, -7.561497688293457, 14.019404411315918, 2.922078847885132, 
454, 3433665408, 0.21186782, -0.5944092, -0.23193908, -0.74026614, 10.616598129272461, -1.586266040802002, 2.0631890296936035, 6.756776332855225, 26.15856170654297, -4.585934162139893, 
455, 3433682075, 0.21365507, -0.5903598, -0.23332155, -0.74255496, 9.715763092041016, -1.0168472528457642, 1.7668389081954956, 18.387178421020508, 28.7524356842041, -4.295939922332764, 
456, 3433698742, 0.21639276, -0.5858401, -0.23515359, -0.74476075, 9.177994728088379, 0.05401962995529175, 1.4831899404525757, 25.369600296020508, 31.687419891357422, -1.9342631101608276, 
457, 3433715409, 0.21920177, -0.58167964, -0.23659958, -0.74673975, 8.475848197937012, 0.848293662071228, 1.1468372344970703, 23.51334571838379, 29.634477615356445, 0.890711784362793, 
458, 3433732076, 0.22164798, -0.57843804, -0.23718552, -0.7483481, 7.786225318908691, 1.000110149383545, 1.0506913661956787, 16.8624267578125, 24.156742095947266, 4.520872592926025, 
459, 3433748743, 0.22401132, -0.57621723, -0.23738572, -0.74929357, 6.845305919647217, 0.773598849773407, 0.7587332725524902, 14.068877220153809, 16.735883712768555, 8.305522918701172, 
460, 3433765410, 0.22643836, -0.5748906, -0.237727, -0.7494748, 6.362237930297852, 0.6752609610557556, 0.600378692150116, 14.916241645812988, 9.005295753479004, 10.711386680603027, 
461, 3433782077, 0.22874883, -0.5734848, -0.23832919, -0.7496588, 6.448568820953369, 0.6588062047958374, 0.6436612606048584, 15.91508674621582, 8.844602584838867, 8.946438789367676, 
462, 3433798744, 0.23071884, -0.5714734, -0.23906988, -0.7503549, 6.672338485717773, 0.4854031205177307, 0.7156663537025452, 15.397700309753418, 13.227300643920898, 4.8468523025512695, 
463, 3433815411, 0.2319599, -0.5691921, -0.23963033, -0.75152665, 6.864563465118408, 0.1826995313167572, 0.6214472055435181, 11.249598503112793, 15.594310760498047, 0.591910183429718, 
464, 3433832078, 0.2328009, -0.56666595, -0.2401923, -0.7529949, 6.928061008453369, -0.055757977068424225, 0.6428626179695129, 9.592469215393066, 17.376628875732422, -2.367276430130005, 
465, 3433848745, 0.23360327, -0.5645955, -0.24129279, -0.75394934, 6.963743686676025, -0.33333083987236023, 1.0750008821487427, 12.350829124450684, 12.109966278076172, -3.1023097038269043, 
466, 3433865412, 0.234706, -0.56277883, -0.24285369, -0.7544637, 6.674290657043457, -0.2844681739807129, 1.1190085411071777, 16.229429244995117, 8.85747241973877, -2.2234859466552734, 
467, 3433882079, 0.235395, -0.56191623, -0.24395572, -0.75453633, 5.994944095611572, -0.09756694734096527, 0.9879521131515503, 11.448906898498535, 2.261090040206909, -0.30331212282180786, 
468, 3433898746, 0.2349883, -0.56360346, -0.24495152, -0.7530809, 5.884007453918457, 0.6542604565620422, 1.5150710344314575, 5.103951454162598, -18.525272369384766, 1.160628080368042, 
469, 3433915413, 0.23365496, -0.56711817, -0.2455637, -0.7506538, 6.793166637420654, 1.3889883756637573, 1.8249962329864502, -1.7886375188827515, -32.692230224609375, 2.496159315109253, 
470, 3433932080, 0.23178515, -0.5698912, -0.2440968, -0.7496108, 7.3868842124938965, 1.466097354888916, 2.102447986602783, -15.757463455200195, -21.033231735229492, 4.365963935852051, 
471, 3433948747, 0.22873655, -0.5729875, -0.24089271, -0.74922335, 7.407844543457031, 0.742075502872467, 3.1413259506225586, -30.946067810058594, -19.34526824951172, 4.603597164154053, 
472, 3433965414, 0.22505613, -0.57747954, -0.23768656, -0.747912, 8.131799697875977, 0.3578376770019531, 4.703671455383301, -34.10776138305664, -31.239242553710938, 5.116982936859131, 
473, 3433982081, 0.22181311, -0.5815392, -0.23402454, -0.7468894, 8.927827835083008, 0.7634966969490051, 4.924419403076172, -34.5114860534668, -26.49086570739746, 8.013063430786133, 
474, 3433998748, 0.21928032, -0.5864105, -0.23006855, -0.7450553, 9.689666748046875, 1.614833116531372, 5.034090042114258, -33.108646392822266, -32.357425689697266, 15.373435974121094, 
475, 3434015415, 0.2171254, -0.59273255, -0.22582813, -0.74197483, 10.907366752624512, 1.6720056533813477, 5.371724605560303, -33.256656646728516, -43.830196380615234, 22.635787963867188, 
476, 3434032082, 0.2151976, -0.59722024, -0.22046459, -0.7405494, 11.247333526611328, 1.7882087230682373, 4.820596694946289, -37.89143371582031, -25.74372100830078, 23.05827522277832, 
477, 3434048749, 0.21363027, -0.60170686, -0.21569756, -0.73877317, 12.575247764587402, 2.2470955848693848, 4.416353225708008, -32.84260940551758, -27.552684783935547, 22.9704532623291, 
478, 3434065416, 0.21202306, -0.60556877, -0.21050039, -0.7375788, 14.383174896240234, 2.9323112964630127, 4.6049065589904785, -35.14181137084961, -21.42894744873047, 22.781917572021484, 
479, 3434082083, 0.20924078, -0.6105833, -0.2050461, -0.73577344, 16.3541202545166, 3.897906541824341, 4.613562107086182, -42.14021682739258, -31.171586990356445, 20.477466583251953, 
480, 3434098750, 0.20693345, -0.61508626, -0.19823416, -0.7345414, 18.978891372680664, 4.171638011932373, 3.217381000518799, -47.09438705444336, -23.57869529724121, 27.07234001159668, 
481, 3434115417, 0.20499, -0.61441815, -0.19166757, -0.7373826, 15.053074836730957, 0.68815678358078, 2.248394012451172, -42.523582458496094, 19.910585403442383, 15.070831298828125, 
482, 3434132084, 0.20137788, -0.6154803, -0.18948357, -0.7380563, 13.340282440185547, -1.3413615226745605, 1.5836330652236938, -26.935543060302734, -6.3867621421813965, -6.571955680847168, 
483, 3434148751, 0.19885066, -0.61359984, -0.1900815, -0.7401505, 12.587029457092285, -1.5192656517028809, 1.239506721496582, -5.999722480773926, 12.133520126342773, -18.671525955200195, 
484, 3434165418, 0.19681297, -0.6122575, -0.19320068, -0.7409987, 11.142621040344238, -0.7211703658103943, 1.8641704320907593, 9.7969331741333, 1.3497157096862793, -24.440025329589844, 
485, 3434182085, 0.19522724, -0.6108905, -0.19665386, -0.7416378, 10.770062446594238, 0.3635675311088562, 2.437947988510132, 13.718356132507324, 0.7501658201217651, -23.31203269958496, 
486, 3434198752, 0.19448514, -0.6091514, -0.19882374, -0.742684, 10.703917503356934, 1.4605283737182617, 1.9640004634857178, 10.670949935913086, 7.217495918273926, -14.672216415405273, 
487, 3434215419, 0.19495723, -0.60723495, -0.19941783, -0.743969, 10.66989517211914, 2.1287496089935303, 2.0010898113250732, 7.617682933807373, 12.893455505371094, -2.4232001304626465, 
488, 3434232086, 0.19598806, -0.6048608, -0.19836426, -0.7459114, 10.00719928741455, 2.009387969970703, 1.9024156332015991, 1.2315500974655151, 20.9570369720459, 5.826335430145264, 
489, 3434248753, 0.19698265, -0.6020998, -0.19625646, -0.7484366, 9.289992332458496, 1.6040778160095215, 1.4359755516052246, -4.605695724487305, 26.740262985229492, 8.7301664352417, 
490, 3434265420, 0.19792996, -0.5991536, -0.19380397, -0.75118524, 8.561055183410645, 1.3894875049591064, 1.1220964193344116, -6.633532524108887, 29.029756546020508, 9.37313461303711, 
491, 3434282087, 0.19874899, -0.5963776, -0.19159357, -0.7537404, 7.673155784606934, 1.1287797689437866, 1.0963475704193115, -5.892870903015137, 26.86642074584961, 8.213074684143066, 
492, 3434298754, 0.19936888, -0.5939115, -0.18979087, -0.7559766, 7.207668304443359, 0.8738390803337097, 1.171533226966858, -4.602387428283691, 23.14586067199707, 6.360414981842041, 
493, 3434315421, 0.20000808, -0.5917973, -0.18823318, -0.7578531, 7.265542030334473, 0.6487303376197815, 1.2081965208053589, -3.266206979751587, 19.546772003173828, 6.417104721069336, 
494, 3434332088, 0.20112512, -0.5896817, -0.1868928, -0.7595364, 7.4573516845703125, 0.21262231469154358, 1.2864195108413696, 0.05800645053386688, 19.097131729125977, 8.287545204162598, 
495, 3434348755, 0.20286718, -0.58733165, -0.18549186, -0.7612355, 7.531216621398926, -0.23895622789859772, 1.1956413984298706, 2.579011917114258, 21.28368377685547, 11.469198226928711, 
496, 3434365422, 0.20537537, -0.5842634, -0.18375634, -0.763342, 7.140211582183838, -0.243900328874588, 1.0630487203598022, 4.40464448928833, 28.14371681213379, 15.33584976196289, 
497, 3434382089, 0.20842476, -0.5812021, -0.18199053, -0.7652731, 6.61406946182251, 0.12848182022571564, 0.7886087894439697, 6.6288371086120605, 28.142887115478516, 18.544052124023438, 
498, 3434398756, 0.21168494, -0.5792222, -0.18069749, -0.76618516, 6.327465057373047, 0.5475171208381653, 0.5443413853645325, 9.679553031921387, 17.984148025512695, 20.574176788330078, 
499, 3434415423, 0.21500933, -0.57865256, -0.18008763, -0.76583344, 6.176333904266357, 0.9131712317466736, 0.5573937296867371, 13.051481246948242, 4.627329349517822, 21.786407470703125, 
500, 3434432090, 0.21829982, -0.5798057, -0.18059511, -0.7639085, 6.412915229797363, 0.9008989930152893, 0.8584240674972534, 18.198423385620117, -12.376822471618652, 21.63113784790039, 
501, 3434448757, 0.22145674, -0.58218735, -0.18217832, -0.7608061, 7.399534702301025, 0.518543004989624, 1.435409665107727, 22.928592681884766, -25.286758422851562, 19.94319725036621, 
502, 3434465424, 0.22458562, -0.5836701, -0.18423931, -0.7582522, 8.239950180053711, 0.33409640192985535, 1.8313195705413818, 25.994752883911133, -19.140682220458984, 15.928098678588867, 
503, 3434482091, 0.22774775, -0.5831984, -0.18685892, -0.75703, 8.347822189331055, 0.618699848651886, 1.8749583959579468, 30.373350143432617, -4.418802261352539, 9.329394340515137, 
504, 3434498758, 0.23080647, -0.5807647, -0.18997963, -0.75719786, 7.741915702819824, 1.0110282897949219, 1.5932470560073853, 33.85182571411133, 10.45757007598877, 2.090569019317627, 
505, 3434515425, 0.23314129, -0.57778126, -0.19305515, -0.7579868, 6.828715801239014, 1.1580978631973267, 1.568971037864685, 30.781015396118164, 14.935312271118164, -3.190260410308838, 
506, 3434532092, 0.23500751, -0.57588285, -0.1967669, -0.75790083, 6.549278259277344, 1.2425875663757324, 2.4833693504333496, 31.653839111328125, 4.170313835144043, -5.304659843444824, 
507, 3434548759, 0.2369191, -0.57483697, -0.20183168, -0.7567669, 6.66476583480835, 1.1795638799667358, 3.671050786972046, 38.923709869384766, -6.550644397735596, -7.564451694488525, 
508, 3434565426, 0.23824345, -0.57601887, -0.20893224, -0.75351834, 7.357211589813232, 0.4102528989315033, 4.097311019897461, 46.50027084350586, -30.65237045288086, -12.116397857666016, 
509, 3434582093, 0.2378673, -0.581108, -0.21847121, -0.74699616, 9.343052864074707, -0.43738967180252075, 5.407608509063721, 50.71043395996094, -70.31971740722656, -19.604965209960938, 
510, 3434598760, 0.23731467, -0.58491945, -0.22876512, -0.7410923, 12.167901039123535, -0.2868158221244812, 6.002823352813721, 55.05502700805664, -62.82265853881836, -26.467042922973633, 
511, 3434615427, 0.23705313, -0.58582866, -0.23755305, -0.7376851, 13.716838836669922, 0.40680980682373047, 5.160780906677246, 49.371158599853516, -35.115604400634766, -27.57773208618164, 
512, 3434632094, 0.23763269, -0.5850365, -0.24370469, -0.7361192, 13.550365447998047, 1.9868167638778687, 5.057567596435547, 39.16295623779297, -13.424154281616211, -18.47579574584961, 
513, 3434648761, 0.23890531, -0.584017, -0.24814175, -0.7350334, 13.502265930175781, 2.91257905960083, 5.378061294555664, 32.84423828125, -6.4041948318481445, -9.224702835083008, 
514, 3434665428, 0.2382589, -0.58444035, -0.25343835, -0.733097, 15.5615234375, 1.6805747747421265, 5.258265972137451, 28.56487274169922, -21.826929092407227, -18.490266799926758, 
515, 3434682095, 0.23424393, -0.58502746, -0.25871593, -0.7320784, 18.904264450073242, -0.04709881544113159, 3.699648857116699, 13.072539329528809, -24.82719612121582, -36.60881805419922, 
516, 3434698762, 0.23226295, -0.5834885, -0.25961584, -0.7336178, 15.28651237487793, 1.3207019567489624, 2.905958652496338, -1.8999007940292358, 6.833007335662842, -16.69270896911621, 
517, 3434715429, 0.23229454, -0.5853607, -0.25990957, -0.7320105, 13.748806953430176, 2.923304796218872, 2.287214994430542, 3.2880477905273438, -18.431455612182617, 6.995772361755371, 
518, 3434732096, 0.23257367, -0.58607835, -0.25741798, -0.73222816, 13.630744934082031, 3.8578648567199707, 2.1658928394317627, -11.152520179748535, -0.3795998990535736, 14.489018440246582, 
519, 3434748763, 0.23191366, -0.5871274, -0.25370014, -0.7328941, 12.46889877319336, 2.820390224456787, 2.4926106929779053, -22.442832946777344, 0.06341720372438431, 14.599019050598145, 
520, 3434765430, 0.23129474, -0.5871095, -0.24950592, -0.734542, 11.650983810424805, 0.8415067195892334, 2.2596049308776855, -24.691471099853516, 10.233983039855957, 13.314433097839355, 
521, 3434782097, 0.23096979, -0.5861585, -0.24646543, -0.7364279, 11.145328521728516, -0.7007489204406738, 2.1043479442596436, -16.603382110595703, 14.576498031616211, 8.154792785644531, 
522, 3434798764, 0.23133025, -0.58358586, -0.24456537, -0.73898697, 10.540197372436523, -1.0250670909881592, 2.086405038833618, -6.6259260177612305, 24.854955673217773, 3.185190200805664, 
523, 3434815431, 0.23263809, -0.5797297, -0.24339564, -0.7419918, 9.653949737548828, -0.6697437167167664, 1.7992606163024902, 2.1768834590911865, 33.59882354736328, 2.1717097759246826, 
524, 3434832098, 0.2346983, -0.5752421, -0.24280171, -0.7450239, 8.84858512878418, -0.22403739392757416, 1.5447287559509277, 9.072564125061035, 37.27299499511719, 2.590597152709961, 
525, 3434848765, 0.23694941, -0.5707664, -0.24246809, -0.747857, 7.844544887542725, 0.20050735771656036, 1.2886347770690918, 11.475482940673828, 36.333030700683594, 2.8653969764709473, 
526, 3434865432, 0.23899637, -0.56687886, -0.24215339, -0.75026053, 6.90849494934082, 0.3391323387622833, 1.1485230922698975, 10.529151916503906, 31.261884689331055, 3.413724422454834, 
527, 3434882099, 0.2407767, -0.56425834, -0.2421616, -0.75166273, 6.264890670776367, 0.3030850887298584, 0.9258950352668762, 10.735300064086914, 19.858726501464844, 4.529281139373779, 
528, 3434898766, 0.24242878, -0.56234574, -0.24252233, -0.75244826, 6.040881633758545, 0.38975727558135986, 0.7013102769851685, 11.907927513122559, 13.022107124328613, 4.691221714019775, 
529, 3434915433, 0.24379016, -0.56067765, -0.2433367, -0.7529902, 6.021475315093994, 0.5359998345375061, 0.7206651568412781, 13.139633178710938, 9.59018325805664, 2.2473111152648926, 
530, 3434932100, 0.24459782, -0.5591684, -0.2446536, -0.7534238, 6.369794845581055, 0.8294898271560669, 0.8662447333335876, 13.52031421661377, 6.594378471374512, -2.11018705368042, 
531, 3434948767, 0.24491945, -0.55743325, -0.24603292, -0.75415564, 6.717462539672852, 1.0075520277023315, 0.8726484775543213, 11.845563888549805, 8.001324653625488, -5.750779628753662, 
532, 3434965434, 0.24457762, -0.5560933, -0.24739222, -0.7548108, 7.023838520050049, 0.7092080116271973, 0.7180624008178711, 8.665754318237305, 4.584765434265137, -8.311101913452148, 
533, 3434982101, 0.24372573, -0.55490524, -0.24863754, -0.75555116, 7.228930950164795, 0.34688568115234375, 0.785271942615509, 5.697868347167969, 3.459970235824585, -10.41702938079834, 
534, 3434998768, 0.24256222, -0.55404013, -0.24982102, -0.7561699, 7.170675277709961, 0.05230250582098961, 1.1430721282958984, 3.871668815612793, 0.908380389213562, -11.045769691467285, 
535, 3435015435, 0.24128792, -0.55417484, -0.25132912, -0.75597906, 7.352806568145752, 0.13936571776866913, 1.1537163257598877, 4.8780951499938965, -8.092754364013672, -9.796677589416504, 
536, 3435032102, 0.2402895, -0.5546592, -0.25253043, -0.7555413, 7.482091903686523, 0.42561793327331543, 1.1868295669555664, 4.182069301605225, -9.852807998657227, -6.190547943115234, 
537, 3435048769, 0.2397307, -0.55529034, -0.25289497, -0.7551331, 7.520864486694336, 0.790399432182312, 1.3154016733169556, 1.2411020994186401, -8.34207534790039, -0.5099937319755554, 
538, 3435065436, 0.23955421, -0.55608255, -0.25237596, -0.7547798, 7.658955097198486, 0.9235328435897827, 1.5807689428329468, -2.2755286693573, -6.841031074523926, 5.02600622177124, 
539, 3435082103, 0.23939346, -0.55636454, -0.25061622, -0.75520915, 7.6041460037231445, 0.6925007104873657, 1.6732218265533447, -9.175772666931152, 0.8748789429664612, 7.67431116104126, 
540, 3435098770, 0.23865522, -0.5568501, -0.24828745, -0.7558539, 7.3429718017578125, 0.28370314836502075, 1.8129345178604126, -15.047966957092285, 0.5881833434104919, 6.844628810882568, 
541, 3435115437, 0.23680474, -0.5585109, -0.2462524, -0.7558763, 7.312197208404541, -0.14007052779197693, 2.735316038131714, -18.6637020111084, -10.281959533691406, 2.952277898788452, 
542, 3435132104, 0.23426113, -0.5615547, -0.2452251, -0.7547468, 7.78117561340332, 0.2061627209186554, 3.5755069255828857, -16.439632415771484, -24.721023559570312, -0.33313897252082825, 
543, 3435148771, 0.23170389, -0.56736404, -0.24573119, -0.7510178, 8.740245819091797, 1.032544493675232, 4.493131637573242, -8.520858764648438, -51.60906982421875, 2.5402023792266846, 
544, 3435165438, 0.22986867, -0.5739547, -0.2465395, -0.74629426, 9.849295616149902, 0.9481042623519897, 5.44804048538208, -3.728980302810669, -58.81270980834961, 7.985473155975342, 
545, 3435182105, 0.22886896, -0.57943594, -0.24537939, -0.7427396, 10.404763221740723, 0.9581829309463501, 5.652068138122559, -10.730969429016113, -44.013179779052734, 16.315614700317383, 
546, 3435198772, 0.23000923, -0.5850112, -0.24251875, -0.7389471, 11.991922378540039, 1.5098092555999756, 5.210750102996826, -10.693089485168457, -39.19878387451172, 34.532875061035156, 
547, 3435215439, 0.23388824, -0.5903202, -0.23830064, -0.7348682, 14.66966724395752, 2.074615240097046, 5.215653896331787, -5.573362827301025, -32.30392837524414, 53.94259262084961, 
548, 3435232106, 0.23832159, -0.59744054, -0.23284964, -0.7294167, 17.908098220825195, 3.4943130016326904, 5.769272327423096, -10.265889167785645, -44.1651496887207, 66.91976928710938, 
549, 3435248773, 0.24411249, -0.60364705, -0.22544709, -0.72470224, 22.73286247253418, 5.733950138092041, 4.490809917449951, -14.163064956665039, -31.209402084350586, 79.10028839111328, 
550, 3435265440, 0.24832852, -0.59937435, -0.21715268, -0.7293341, 13.998298645019531, 2.7458486557006836, 2.8892343044281006, -22.081012725830078, 58.84980392456055, 43.07122039794922, 
551, 3435282107, 0.24591652, -0.59927624, -0.21468444, -0.7309609, 11.241785049438477, 0.19042891263961792, 1.598410964012146, -22.819135665893555, 5.6846089363098145, -2.786379098892212, 
552, 3435298774, 0.24156103, -0.59673524, -0.21508487, -0.7343663, 11.388259887695312, -1.0998907089233398, 0.9072995185852051, -14.87829875946045, 17.57883071899414, -30.985376358032227, 
553, 3435315441, 0.23636737, -0.59612423, -0.21991435, -0.73512185, 11.430886268615723, -1.1307373046875, 1.609581470489502, 4.737644672393799, -11.614896774291992, -46.158790588378906, 
554, 3435332108, 0.2325308, -0.59590274, -0.22664633, -0.73448014, 12.421695709228516, -0.16314564645290375, 2.313904285430908, 21.532339096069336, -20.33335304260254, -44.22549057006836, 
555, 3435348775, 0.231536, -0.5950073, -0.23141538, -0.7340331, 12.973968505859375, 0.9312291145324707, 2.269130229949951, 23.969947814941406, -8.563545227050781, -23.219587326049805, 
556, 3435365442, 0.23330587, -0.59334296, -0.23274466, -0.73439956, 12.271610260009766, 2.053738832473755, 2.331684112548828, 17.813875198364258, 8.522868156433105, 2.280186653137207, 
557, 3435382109, 0.2362046, -0.59106743, -0.23121642, -0.7357894, 10.939291000366211, 2.810551404953003, 2.400653123855591, 7.501585960388184, 22.18869400024414, 17.07103157043457, 
558, 3435398776, 0.23834819, -0.5879981, -0.22651497, -0.7390127, 9.61790657043457, 2.957392454147339, 2.1916816234588623, -13.329553604125977, 37.600406646728516, 21.912168502807617, 
559, 3435415443, 0.23915051, -0.5841231, -0.21963565, -0.7438869, 8.231779098510742, 2.598647117614746, 1.7104699611663818, -31.066879272460938, 49.848106384277344, 19.9686336517334, 
560, 3435432110, 0.23849353, -0.5809348, -0.21316695, -0.7484621, 6.821374893188477, 1.7703990936279297, 1.1937470436096191, -35.68190002441406, 42.24874496459961, 12.359471321105957, 
561, 3435448777, 0.2364922, -0.5794511, -0.20913748, -0.75137854, 5.836817741394043, 0.8041768670082092, 0.875128448009491, -28.811845779418945, 20.888607025146484, 0.9425386786460876, 
562, 3435465444, 0.23358014, -0.57978207, -0.20764099, -0.7524483, 5.798324108123779, 0.33929944038391113, 1.0867085456848145, -19.610445022583008, -1.2627336978912354, -8.227285385131836, 
563, 3435482111, 0.23049428, -0.58013374, -0.20674555, -0.753375, 6.208817958831787, 0.19336840510368347, 1.4726935625076294, -17.20346450805664, -3.157256841659546, -11.317784309387207, 
564, 3435498778, 0.22785233, -0.5797697, -0.20513597, -0.7548971, 6.897427558898926, -0.09360503405332565, 1.5903198719024658, -18.62137794494629, 4.700757026672363, -8.073795318603516, 
565, 3435515445, 0.22628647, -0.57830083, -0.20206195, -0.7573202, 7.701908588409424, -0.3314688503742218, 1.344499945640564, -21.845853805541992, 17.821928024291992, 0.26306870579719543, 
566, 3435532112, 0.22592497, -0.5755284, -0.1971789, -0.7608191, 7.696223735809326, -0.15709814429283142, 1.036611557006836, -25.290128707885742, 33.412696838378906, 10.424595832824707, 
567, 3435548779, 0.22659895, -0.57285917, -0.19151783, -0.76407224, 6.9007649421691895, 0.17031294107437134, 0.6402504444122314, -25.506376266479492, 34.50688552856445, 19.30548667907715, 
568, 3435565446, 0.22753221, -0.57223594, -0.18607084, -0.7656063, 6.393786907196045, 0.7578847408294678, 0.6939235925674438, -24.228355407714844, 17.012109756469727, 25.209753036499023, 
569, 3435582113, 0.22858168, -0.57333386, -0.18090421, -0.7657105, 6.3871026039123535, 1.3729950189590454, 0.8646163940429688, -23.046770095825195, 2.0520482063293457, 29.198617935180664, 
570, 3435598780, 0.23020345, -0.5750686, -0.17676169, -0.76489085, 6.568106174468994, 1.3158408403396606, 0.9061779975891113, -15.15938949584961, -5.82902717590332, 30.459270477294922, 
571, 3435615447, 0.23203959, -0.5767592, -0.17413518, -0.7636647, 6.980375289916992, 0.5227128267288208, 1.3098769187927246, -5.444270133972168, -9.330751419067383, 26.302242279052734, 
572, 3435632114, 0.23385912, -0.57736146, -0.17341234, -0.7628186, 7.433993816375732, -0.42356792092323303, 1.5201959609985352, 5.131612777709961, -5.159473896026611, 16.555404663085938, 
573, 3435648781, 0.2356133, -0.5756654, -0.17500657, -0.7631963, 7.242102146148682, -1.1012396812438965, 1.3393410444259644, 19.67656135559082, 7.957468509674072, 2.436206817626953, 
574, 3435665448, 0.23772031, -0.5714696, -0.17927857, -0.7647032, 6.277318477630615, -0.7291717529296875, 1.2707585096359253, 37.82231903076172, 21.642805099487305, -11.157437324523926, 
575, 3435682115, 0.24002707, -0.56778926, -0.1856325, -0.76520795, 5.527965545654297, 0.04481915757060051, 1.90924870967865, 50.37656021118164, 11.85638427734375, -15.876206398010254, 
576, 3435698782, 0.24295816, -0.56636, -0.19309244, -0.7634942, 6.00515079498291, 0.7407601475715637, 3.4456441402435303, 56.66850662231445, -9.689752578735352, -10.73512077331543, 
577, 3435715449, 0.24653457, -0.56556386, -0.19925202, -0.7613523, 7.078023910522461, 0.5962281227111816, 4.211960792541504, 52.17810821533203, -11.656527519226074, -0.6168432235717773, 
578, 3435732116, 0.24938014, -0.5690711, -0.20504509, -0.7562569, 8.304985046386719, -0.1288163959980011, 5.339599609375, 44.220523834228516, -46.064720153808594, 7.907140254974365, 
579, 3435748783, 0.2509503, -0.57532555, -0.21219996, -0.7489966, 10.912107467651367, 0.0016769282519817352, 6.800644874572754, 44.4478759765625, -72.9864501953125, 3.4651291370391846, 
580, 3435765450, 0.2506792, -0.5778358, -0.22097524, -0.74460447, 12.11030387878418, -0.167298823595047, 6.34121036529541, 48.18206024169922, -47.862892150878906, -22.72389030456543, 
581, 3435782117, 0.24700129, -0.5793905, -0.23150623, -0.74141884, 12.460320472717285, -0.012837011367082596, 6.180785179138184, 43.17037582397461, -46.421512603759766, -50.758445739746094, 
582, 3435798784, 0.24178912, -0.58050776, -0.24115759, -0.73918325, 14.325149536132812, 0.8146856427192688, 5.5684638023376465, 31.87478256225586, -41.382076263427734, -57.37374496459961, 
583, 3435815451, 0.23879457, -0.5798815, -0.24911381, -0.7380088, 15.7107515335083, 1.934187412261963, 4.420661926269531, 33.40422058105469, -21.79867172241211, -43.95585250854492, 
584, 3435832118, 0.23675069, -0.58088034, -0.25623983, -0.7354377, 17.749174118041992, 1.376668930053711, 3.378469228744507, 32.59547424316406, -32.6378288269043, -30.766481399536133, 
585, 3435848785, 0.23626414, -0.5807065, -0.25889874, -0.73479986, 17.301565170288086, 1.744328498840332, 2.8001673221588135, 14.74594497680664, -8.965411186218262, -10.264963150024414, 
586, 3435865452, 0.23736012, -0.58128905, -0.25876963, -0.7340313, 13.765984535217285, 1.2153384685516357, 2.0305140018463135, 6.018155574798584, -5.947688102722168, 10.425335884094238, 
587, 3435882119, 0.2383426, -0.5834905, -0.2588181, -0.731946, 14.587424278259277, 1.0753475427627563, 1.9909234046936035, 6.122012615203857, -19.866926193237305, 14.159590721130371, 
588, 3435898786, 0.23914734, -0.58382076, -0.25836977, -0.7315784, 13.502985000610352, 1.211776614189148, 2.356114625930786, 3.277043342590332, -3.012995481491089, 9.188584327697754, 
589, 3435915453, 0.2398661, -0.5831954, -0.25871727, -0.73171926, 12.774033546447754, 1.3406225442886353, 2.694193124771118, 7.31502103805542, 2.346949815750122, 2.9602715969085693, 
590, 3435932120, 0.24038045, -0.58090764, -0.25883058, -0.7333284, 11.739775657653809, 0.9816429018974304, 2.2733209133148193, 5.664383411407471, 16.644638061523438, -2.458047389984131, 
591, 3435948787, 0.24012741, -0.5784968, -0.2589436, -0.7352744, 10.751612663269043, 0.6087812781333923, 2.084859609603882, 2.3344595432281494, 17.262327194213867, -7.071284294128418, 
592, 3435965454, 0.23989274, -0.57556194, -0.2590092, -0.73762757, 9.600479125976562, 0.48153671622276306, 2.003859043121338, 1.839341163635254, 21.592365264892578, -8.51399040222168, 
593, 3435982121, 0.24013573, -0.57244444, -0.25953576, -0.73978627, 8.684995651245117, 0.24038083851337433, 1.5497872829437256, 6.275853633880615, 21.79054832458496, -8.035762786865234, 
594, 3435998788, 0.24073488, -0.5687663, -0.26038134, -0.7421275, 8.248886108398438, 0.2730529308319092, 1.5105375051498413, 10.35246467590332, 25.527929306030273, -8.67808723449707, 
595, 3436015455, 0.2413375, -0.56498754, -0.26128507, -0.74449694, 7.831955909729004, 0.46068075299263, 1.7650161981582642, 10.72614574432373, 26.061067581176758, -9.13576602935791, 
596, 3436032122, 0.24181207, -0.56174546, -0.2616457, -0.7466663, 7.359272480010986, 0.8057389259338379, 1.6938925981521606, 7.583156108856201, 23.29547119140625, -6.207155704498291, 
597, 3436048789, 0.24220459, -0.5592164, -0.26102003, -0.74865395, 6.797787666320801, 0.905012845993042, 1.1937729120254517, 1.147501826286316, 20.404438018798828, -1.288788080215454, 
598, 3436065456, 0.24244344, -0.55745906, -0.2598912, -0.75027823, 6.449641704559326, 0.6592584848403931, 1.078052282333374, -3.5072848796844482, 15.493853569030762, 1.6036510467529297, 
599, 3436082123, 0.24236023, -0.55601454, -0.2587027, -0.75178623, 6.538844585418701, 0.2729957401752472, 1.2237368822097778, -4.8694963455200195, 13.029996871948242, 1.0647718906402588, 
600, 3436098790, 0.2423927, -0.55410546, -0.25834933, -0.7533052, 6.768191337585449, 0.02665018104016781, 0.9686155915260315, 0.5910134315490723, 14.287811279296875, -2.39756178855896, 
601, 3436115457, 0.2426037, -0.5513477, -0.25884476, -0.7550887, 6.8489766120910645, 0.09064076840877533, 0.49023887515068054, 6.313950061798096, 18.564010620117188, -6.754815101623535, 
602, 3436132124, 0.2424441, -0.5487583, -0.26023, -0.7565485, 6.911184787750244, 0.1275012493133545, 0.48219534754753113, 9.955761909484863, 14.349395751953125, -11.180171012878418, 
603, 3436148791, 0.24179505, -0.547043, -0.26260528, -0.75717753, 7.392216682434082, 0.14542736113071442, 0.6552703380584717, 13.583573341369629, 4.1997971534729, -14.428377151489258, 
604, 3436165458, 0.24106306, -0.54546475, -0.26498312, -0.75772095, 7.714398384094238, 0.17773953080177307, 0.7726324796676636, 13.328315734863281, 3.042818546295166, -14.452363014221191, 
605, 3436182125, 0.24030858, -0.54434115, -0.2667545, -0.75814706, 7.580623626708984, 0.3534698784351349, 0.9859030246734619, 9.246254920959473, 1.169310212135315, -11.375344276428223, 
606, 3436198792, 0.23957457, -0.5440506, -0.2678815, -0.75819033, 7.6414384841918945, 0.8238955140113831, 1.6510194540023804, 5.339762210845947, -3.4836416244506836, -6.68953275680542, 
607, 3436215459, 0.23902269, -0.5436996, -0.26786602, -0.75862163, 7.571135997772217, 1.4758025407791138, 1.9185738563537598, -0.6280554533004761, 0.4924810230731964, -2.2453949451446533, 
608, 3436232126, 0.23841086, -0.5430269, -0.2656774, -0.7600643, 7.8011794090271, 1.720876932144165, 2.13128399848938, -13.645428657531738, 9.396514892578125, 3.2731783390045166, 
609, 3436248793, 0.23726971, -0.5422331, -0.26120734, -0.7625335, 7.453187942504883, 1.2492597103118896, 1.773488998413086, -28.289512634277344, 16.78241729736328, 7.427379131317139, 
610, 3436265460, 0.2352209, -0.54245967, -0.25620696, -0.76470053, 7.005236625671387, 0.558577835559845, 1.318496584892273, -36.629302978515625, 9.380577087402344, 6.623893737792969, 
611, 3436282127, 0.23163714, -0.5449395, -0.25195178, -0.7654448, 6.726688385009766, -0.6288754940032959, 2.732020139694214, -39.03873825073242, -11.59498119354248, 2.21688175201416, 
612, 3436298794, 0.22685859, -0.5504707, -0.24882944, -0.76393783, 7.730631351470947, -0.43169984221458435, 3.894490957260132, -38.46493148803711, -39.961997985839844, 0.5502435564994812, 
613, 3436315461, 0.22284386, -0.55928016, -0.24620943, -0.7595575, 9.767871856689453, 1.7113252878189087, 4.629788398742676, -33.294647216796875, -67.57231140136719, 12.678532600402832, 
614, 3436332128, 0.22057492, -0.570252, -0.24265537, -0.75317854, 11.747076034545898, 3.169565200805664, 6.243643760681152, -31.32754135131836, -82.17542266845703, 32.12668991088867, 
615, 3436348795, 0.21852571, -0.579964, -0.23589353, -0.7484936, 12.337407112121582, 3.3975377082824707, 6.015453338623047, -48.246498107910156, -63.837249755859375, 41.112525939941406, 
616, 3436365462, 0.21566176, -0.5878355, -0.22819856, -0.7455636, 11.945809364318848, 1.5409303903579712, 5.5705037117004395, -56.25770950317383, -47.30542755126953, 35.065940856933594, 
617, 3436382129, 0.21212313, -0.5952192, -0.22283132, -0.742337, 13.839495658874512, -0.09036591649055481, 6.807360649108887, -45.83744812011719, -50.53919219970703, 21.877826690673828, 
618, 3436398796, 0.21126944, -0.6037896, -0.2182446, -0.73700255, 20.484813690185547, 2.739520311355591, 6.1251420974731445, -28.36431312561035, -62.21141815185547, 37.4879264831543, 
619, 3436415463, 0.21475676, -0.6041915, -0.21126814, -0.7376978, 19.583988189697266, 2.1298179626464844, 5.609682559967041, -20.87860870361328, 14.089412689208984, 48.11874771118164, 
620, 3436432130, 0.21430103, -0.6037379, -0.20813033, -0.7390926, 11.674806594848633, 0.07168424874544144, 4.536611080169678, -18.528486251831055, 9.87348461151123, 9.683770179748535, 
621, 3436448797, 0.21292177, -0.60285103, -0.20779563, -0.74030817, 13.802675247192383, -0.7113096117973328, 3.5399208068847656, -5.522451400756836, 5.944927215576172, -6.6260905265808105, 
622, 3436465464, 0.21309067, -0.600833, -0.20993215, -0.7412967, 13.350013732910156, -0.08307067304849625, 3.806047201156616, 15.112689971923828, 9.332294464111328, -10.363879203796387, 
623, 3436482131, 0.21361656, -0.5982472, -0.2128954, -0.74239063, 12.627120018005371, 1.3421117067337036, 4.437952041625977, 20.789295196533203, 11.918492317199707, -13.101219177246094, 
624, 3436498798, 0.2138423, -0.5955124, -0.21462645, -0.7440242, 11.623037338256836, 2.17250919342041, 4.135934352874756, 12.85092830657959, 16.26080322265625, -10.53454303741455, 
625, 3436515465, 0.21426429, -0.59313375, -0.21498327, -0.745698, 11.263328552246094, 2.701383590698242, 3.8505234718322754, 6.148514747619629, 16.904285430908203, -3.4006340503692627, 
626, 3436532132, 0.21430838, -0.5904595, -0.21451508, -0.7479391, 10.074302673339844, 3.220057249069214, 3.7334775924682617, 1.3005125522613525, 21.468217849731445, -2.894989013671875, 
627, 3436548799, 0.2131111, -0.5877268, -0.21387377, -0.7506126, 9.320769309997559, 3.42747163772583, 3.5786683559417725, -6.849509239196777, 21.822959899902344, -9.700016021728516, 
628, 3436565466, 0.21006304, -0.5850267, -0.21233326, -0.7540107, 8.701558113098145, 2.935760498046875, 3.3422465324401855, -19.645938873291016, 23.195892333984375, -16.496076583862305, 
629, 3436582133, 0.20554832, -0.5826078, -0.20993365, -0.75779027, 8.132292747497559, 2.107830047607422, 3.0935871601104736, -30.973466873168945, 22.360570907592773, -20.77071189880371, 
630, 3436598800, 0.20043056, -0.5801357, -0.20726371, -0.7617823, 7.862406253814697, 1.3739510774612427, 3.088754653930664, -35.11591720581055, 22.982757568359375, -23.22525405883789, 
631, 3436615467, 0.19536915, -0.5776798, -0.20523933, -0.7655025, 7.643298625946045, 0.681983470916748, 2.9522650241851807, -31.100181579589844, 20.99972152709961, -25.096342086791992, 
632, 3436632134, 0.19099227, -0.5755359, -0.2043607, -0.76845115, 7.682910919189453, 0.22619684040546417, 2.9116649627685547, -22.921424865722656, 15.595330238342285, -24.948257446289062, 
633, 3436648801, 0.18691458, -0.5732595, -0.2032741, -0.7714378, 7.671976089477539, 0.13021603226661682, 3.0317306518554688, -20.84056282043457, 17.310394287109375, -22.22372055053711, 
634, 3436665468, 0.18315686, -0.57135993, -0.2018115, -0.7741277, 8.116775512695312, 0.5169858932495117, 3.2425365447998047, -21.761432647705078, 15.05363941192627, -18.183208465576172, 
635, 3436682135, 0.18009487, -0.5692686, -0.19946356, -0.77699006, 8.55665397644043, 1.0470168590545654, 3.1313705444335938, -24.28689193725586, 18.770092010498047, -11.667940139770508, 
636, 3436698802, 0.17762063, -0.5675781, -0.19671498, -0.77949315, 8.410719871520996, 1.1543155908584595, 3.191303014755249, -23.898353576660156, 16.543909072875977, -5.894851207733154, 
637, 3436715469, 0.17559245, -0.5662796, -0.194108, -0.78154796, 8.532574653625488, 1.1029987335205078, 3.4221842288970947, -20.930662155151367, 13.157990455627441, -2.8665859699249268, 
638, 3436732136, 0.17404684, -0.5648838, -0.19198577, -0.78342557, 8.842171669006348, 0.9535898566246033, 3.5676536560058594, -15.840370178222656, 13.070013999938965, -1.991729736328125, 
639, 3436748803, 0.17302422, -0.5633239, -0.19054842, -0.7851243, 9.379021644592285, 0.8777241706848145, 3.6900291442871094, -11.153593063354492, 12.972180366516113, -2.3443009853363037, 
640, 3436765470, 0.17218186, -0.56150836, -0.18932946, -0.78690296, 9.804622650146484, 1.0469814538955688, 3.7597758769989014, -7.236560821533203, 14.826397895812988, -2.0079925060272217, 
641, 3436782137, 0.17206812, -0.5592206, -0.18832915, -0.78879476, 10.104588508605957, 1.1976144313812256, 3.703411340713501, -4.758569717407227, 18.302101135253906, -0.3483395278453827, 
642, 3436798804, 0.17234157, -0.55650187, -0.18711834, -0.79094315, 9.941338539123535, 1.3400510549545288, 3.4846572875976562, -3.5445797443389893, 22.447357177734375, 1.944762945175171, 
643, 3436815471, 0.17270936, -0.55365765, -0.18581381, -0.79316354, 9.13530158996582, 1.385146141052246, 3.304840564727783, -3.5688741207122803, 23.646677017211914, 2.594597339630127, 
644, 3436832138, 0.17272104, -0.55108035, -0.18464926, -0.79522485, 8.577500343322754, 1.2438788414001465, 3.280867576599121, -4.2018656730651855, 20.97395133972168, 0.678763210773468, 
