sep=,
DeviceTag:,R Forearm - 9,,,,,,,,,,,,,,,,,
FirmwareVersion:,3.0.0,,,,,,,,,,,,,,,,,
AppVersion:,2023.6.1,,,,,,,,,,,,,,,,,
StartTime:,2024-05-23 12:04:51.000 +0200,,,,,,,,,,,,,,,,,
 2024,,,,,,,,,,,,,,,,,,,

PacketCounter,SampleTimeFine,Quat_W,Quat_X,Quat_Y,Quat_Z,Acc_X,Acc_Y,Acc_Z,Gyr_X,Gyr_Y,Gyr_Z,
0, 3410311463, 0.62650317, -0.57185465, -0.4754352, -0.23331796, 0.0, 0.0, 0.0, 0.0, 0.0, 0.0, 
1, 3410328130, 0.6243064, -0.5747306, -0.4749945, -0.23303764, 8.412812232971191, -5.265320301055908, -1.474690556526184, -17.799299240112305, -3.7496397495269775, 2.9437670707702637, 
2, 3410344797, 0.6213748, -0.57960916, -0.47460628, -0.2295551, 8.161581039428711, -5.4583210945129395, -1.6397768259048462, -11.12267780303955, -4.650435447692871, 2.435211658477783, 
3, 3410361464, 0.6188187, -0.5851044, -0.47376996, -0.2241839, 8.093182563781738, -5.151280879974365, -1.5788592100143433, -2.041870355606079, -5.948512077331543, 1.3248107433319092, 
4, 3410378131, 0.6160547, -0.5896512, -0.47319156, -0.22108355, 8.172677993774414, -4.8508710861206055, -1.1368285417556763, -4.8065056800842285, -7.5427751541137695, 0.1712273359298706, 
5, 3410394798, 0.6143373, -0.5922728, -0.47222728, -0.22091638, 8.27455997467041, -5.50745964050293, -0.5479507446289062, -8.331032752990723, -5.104997634887695, 0.3420769274234772, 
6, 3410411465, 0.6145251, -0.5936249, -0.4699863, -0.22154357, 8.290823936462402, -5.013075351715088, -0.6656742095947266, -12.686387062072754, -2.2485785484313965, -0.2536171078681946, 
7, 3410428132, 0.6146124, -0.5946257, -0.4677848, -0.22327043, 8.27851390838623, -5.260184288024902, -1.1141812801361084, -15.864261627197266, -2.3455357551574707, -0.6301113367080688, 
8, 3410444799, 0.6140323, -0.59639764, -0.46563652, -0.22462621, 8.465189933776855, -6.214935779571533, -1.2154728174209595, -19.41144371032715, -4.018343925476074, 3.110365629196167, 
9, 3410461466, 0.61501575, -0.59716684, -0.46347705, -0.22435819, 8.488134384155273, -5.695097923278809, -1.1453484296798706, -2.63999080657959, -1.861236572265625, 4.378433704376221, 
10, 3410478133, 0.61508626, -0.59823763, -0.461966, -0.22442906, 7.842589855194092, -4.1698832511901855, -1.4305646419525146, -8.697101593017578, -4.241080284118652, 1.0500890016555786, 
11, 3410494800, 0.61371887, -0.5998956, -0.46094635, -0.22583817, 8.285807609558105, -4.601189136505127, -1.0233460664749146, -16.619970321655273, -4.540764808654785, -1.5537703037261963, 
12, 3410511467, 0.61146116, -0.6022663, -0.45939663, -0.22879127, 8.489006996154785, -4.548798084259033, -0.8356529474258423, -29.150619506835938, 0.3386073112487793, -2.138551712036133, 
13, 3410528134, 0.60882866, -0.6049645, -0.45745355, -0.23255521, 8.348852157592773, -5.197298049926758, -1.52875554561615, -35.377830505371094, 2.9577486515045166, -1.3509349822998047, 
14, 3410544801, 0.6062393, -0.60773623, -0.45563525, -0.23564182, 8.272008895874023, -5.638426303863525, -2.025078296661377, -33.169677734375, 1.5532433986663818, 0.7187912464141846, 
15, 3410561468, 0.6040636, -0.61017406, -0.4541044, -0.23787464, 8.23259162902832, -5.4430460929870605, -1.5986950397491455, -25.740577697753906, 0.5877295732498169, 1.0638195276260376, 
16, 3410578135, 0.6018534, -0.61253405, -0.45274067, -0.24000177, 8.109641075134277, -4.999787330627441, -1.4585630893707275, -26.07709503173828, 0.8386067152023315, -0.029582740738987923, 
17, 3410594802, 0.59909916, -0.61529183, -0.45135483, -0.24243586, 8.15584945678711, -5.177421569824219, -1.616974949836731, -30.51581382751465, -0.21846425533294678, -0.8779422640800476, 
18, 3410611469, 0.5964705, -0.6179611, -0.44986713, -0.24488108, 8.361599922180176, -5.482076168060303, -1.52179753780365, -29.472440719604492, 0.945412278175354, -0.8036904335021973, 
19, 3410628136, 0.59415835, -0.6204584, -0.44811264, -0.24739097, 8.528665542602539, -5.450618743896484, -1.3939815759658813, -29.923215866088867, 4.656806945800781, 0.020022789016366005, 
20, 3410644803, 0.59233874, -0.62283534, -0.44579077, -0.24996352, 8.440478324890137, -5.681051731109619, -1.796204924583435, -27.477651596069336, 8.008441925048828, 2.2645599842071533, 
21, 3410661470, 0.59141105, -0.6244344, -0.44413528, -0.25111485, 8.258646011352539, -5.98760986328125, -2.3211121559143066, -15.608675003051758, 3.966007947921753, 4.078614711761475, 
22, 3410678137, 0.5918111, -0.6246207, -0.44363445, -0.25059366, 8.139435768127441, -5.618674278259277, -2.2621049880981445, 3.6807949542999268, -0.9607195854187012, 3.112551689147949, 
23, 3410694804, 0.5920203, -0.6246471, -0.4435814, -0.2501275, 8.056086540222168, -4.6333441734313965, -1.625605583190918, 3.4337353706359863, -1.7502185106277466, 0.10305911302566528, 
24, 3410711471, 0.5918333, -0.6248539, -0.4436912, -0.24985828, 8.05407428741455, -4.962301254272461, -2.067488670349121, 0.8476970791816711, -3.2473700046539307, -0.9708877205848694, 
25, 3410728138, 0.59118366, -0.625444, -0.44366884, -0.24995957, 8.428167343139648, -4.7114458084106445, -1.7734354734420776, -2.368086338043213, -3.862459659576416, -1.6226544380187988, 
26, 3410744805, 0.59052485, -0.62608606, -0.44349554, -0.25021684, 8.347090721130371, -5.132139205932617, -1.6092908382415771, -3.505021333694458, -2.6239700317382812, -0.909622311592102, 
27, 3410761472, 0.58997893, -0.6264835, -0.4434517, -0.25058767, 8.367690086364746, -4.597352027893066, -1.1833758354187012, -3.92344331741333, -0.9970512986183167, -1.9988791942596436, 
28, 3410778139, 0.58863205, -0.62757516, -0.4429261, -0.25194922, 8.212040901184082, -4.549428939819336, -1.2542147636413574, -11.174710273742676, -0.6473355889320374, -3.4388394355773926, 
29, 3410794806, 0.586724, -0.628886, -0.44268247, -0.2535544, 8.32219123840332, -4.745553016662598, -1.418325424194336, -17.905092239379883, -1.1891093254089355, -4.985454082489014, 
30, 3410811473, 0.58427465, -0.63082093, -0.4421404, -0.25534293, 8.40361213684082, -5.264381408691406, -1.8170859813690186, -22.1018009185791, -3.176044225692749, -3.706036329269409, 
31, 3410828140, 0.58209044, -0.6327264, -0.44164872, -0.25646585, 8.491262435913086, -5.77232027053833, -1.9167145490646362, -19.513883590698242, -4.882043838500977, -0.7919970154762268, 
32, 3410844807, 0.58061904, -0.63423365, -0.4412899, -0.25669548, 8.451537132263184, -5.934497356414795, -2.117640256881714, -12.95242691040039, -5.747237682342529, 2.207707166671753, 
33, 3410861474, 0.5799692, -0.63516665, -0.44119105, -0.2560268, 8.405696868896484, -5.464092254638672, -2.1519625186920166, -3.5460281372070312, -7.297482490539551, 3.979529619216919, 
34, 3410878141, 0.5794737, -0.6359699, -0.441343, -0.25489017, 8.168049812316895, -5.216342449188232, -2.213737726211548, -1.2430999279022217, -9.062070846557617, 4.724846363067627, 
35, 3410894808, 0.5792847, -0.6364202, -0.44154143, -0.2538498, 8.28269100189209, -5.209761142730713, -1.6859376430511475, 2.256178617477417, -7.7093095779418945, 3.36413311958313, 
36, 3410911475, 0.5791428, -0.6366413, -0.44147032, -0.25374308, 8.167089462280273, -4.308112621307373, -1.3650363683700562, 1.474119782447815, -3.0017316341400146, -0.1301637440919876, 
37, 3410928142, 0.5783587, -0.637523, -0.44101605, -0.25410727, 8.252984046936035, -6.093268871307373, -2.150333881378174, -7.982892036437988, -1.53553307056427, 1.2838562726974487, 
38, 3410944809, 0.5798497, -0.63660806, -0.44165233, -0.2518885, 8.157262802124023, -6.841311454772949, -3.213357925415039, 18.467954635620117, -6.848743438720703, 5.111041069030762, 
39, 3410961476, 0.58264977, -0.6345113, -0.4430321, -0.24826895, 8.855737686157227, -4.639724254608154, -0.7656923532485962, 34.87722396850586, -9.750543594360352, 5.580488681793213, 
40, 3410978143, 0.58333355, -0.6344947, -0.4428568, -0.24701548, 8.345880508422852, -3.8530831336975098, -1.4884856939315796, 7.177160263061523, -3.5103111267089844, 5.961312294006348, 
41, 3410994810, 0.58311844, -0.6350226, -0.44268325, -0.24647729, 8.03264045715332, -4.5796098709106445, -1.6592448949813843, -0.97740638256073, -4.227517604827881, 3.6024458408355713, 
42, 3411011477, 0.58237916, -0.636016, -0.44194412, -0.24698927, 8.373237609863281, -5.157093048095703, -1.8171443939208984, -8.6829252243042, -0.16764798760414124, 2.38142466545105, 
43, 3411028144, 0.5825303, -0.6360777, -0.44154054, -0.24719574, 8.193950653076172, -5.318104267120361, -2.0351979732513428, -0.1507435292005539, 1.7950595617294312, 1.000489592552185, 
44, 3411044811, 0.5826013, -0.6361198, -0.4412148, -0.24750163, 8.383451461791992, -4.790566444396973, -2.085029363632202, -0.6053817868232727, 1.7760933637619019, 0.05071954429149628, 
45, 3411061478, 0.582726, -0.63626623, -0.44109637, -0.24704236, 8.2030611038208, -5.652905464172363, -2.7927091121673584, 2.0915777683258057, -2.4699349403381348, 2.695345640182495, 
46, 3411078145, 0.5837938, -0.63545185, -0.44178995, -0.24537218, 8.155694961547852, -5.446319580078125, -2.543483018875122, 15.46257495880127, -6.499075412750244, 2.5284690856933594, 
47, 3411094812, 0.5850387, -0.63447267, -0.44277465, -0.24315585, 8.010881423950195, -5.413404941558838, -2.393853187561035, 19.271751403808594, -9.217360496520996, 3.1615796089172363, 
48, 3411111479, 0.586331, -0.63352734, -0.4437269, -0.24076034, 8.306158065795898, -5.570854187011719, -1.6901586055755615, 19.662012100219727, -9.557497024536133, 4.209665298461914, 
49, 3411128146, 0.5882911, -0.6318585, -0.44485912, -0.23826203, 8.249561309814453, -4.952740669250488, -1.245290994644165, 25.790447235107422, -7.390089511871338, 2.7681188583374023, 
50, 3411144813, 0.5889987, -0.63102144, -0.4454545, -0.23761965, 8.32522964477539, -3.881662607192993, -0.7892067432403564, 10.734625816345215, -2.710810661315918, -1.9188400506973267, 
51, 3411161480, 0.58853865, -0.63131887, -0.44542786, -0.23801865, 8.226593017578125, -5.0081706047058105, -1.6516731977462769, -2.1671416759490967, -1.9503942728042603, -1.8550124168395996, 
52, 3411178147, 0.5883542, -0.63123137, -0.44578668, -0.23803505, 8.235040664672852, -5.168159008026123, -1.8309756517410278, 0.5699273943901062, -2.557018280029297, -2.2382681369781494, 
53, 3411194814, 0.5883362, -0.6311866, -0.44578347, -0.2382046, 8.35567569732666, -5.255666732788086, -1.7456207275390625, 3.5360703468322754, -2.223489761352539, -1.6927690505981445, 
54, 3411211481, 0.588541, -0.6307684, -0.4460615, -0.23828562, 8.394256591796875, -4.944689750671387, -1.4013913869857788, 3.350903272628784, -0.2878483533859253, -2.527768850326538, 
55, 3411228148, 0.5882226, -0.63079685, -0.4459803, -0.23914653, 8.241244316101074, -4.687718868255615, -1.4327127933502197, -3.030405044555664, 1.6962974071502686, -3.7156856060028076, 
56, 3411244815, 0.5865953, -0.63229376, -0.44515592, -0.2407215, 8.492480278015137, -5.297540664672852, -1.7543034553527832, -18.610876083374023, 1.6693929433822632, -0.8289944529533386, 
57, 3411261482, 0.58617234, -0.63274777, -0.44463596, -0.24151883, 8.270142555236816, -5.527949333190918, -2.099503517150879, -6.3683037757873535, 2.5085909366607666, -0.19734586775302887, 
58, 3411278149, 0.5854507, -0.63334006, -0.44419754, -0.24252072, 8.183334350585938, -4.801660060882568, -2.081730842590332, -9.166338920593262, 2.265399217605591, -1.3887338638305664, 
59, 3411294816, 0.5845733, -0.6341996, -0.44346157, -0.24373524, 8.295088768005371, -4.925828456878662, -2.0372824668884277, -11.289390563964844, 3.031641960144043, -0.5287103652954102, 
60, 3411311483, 0.5831913, -0.6357734, -0.4423361, -0.24498777, 8.310120582580566, -5.184161186218262, -2.0410451889038086, -17.354337692260742, 2.210448741912842, 2.4340734481811523, 
61, 3411328150, 0.58222586, -0.6369973, -0.44151506, -0.24558492, 8.126914978027344, -5.527434349060059, -2.203503131866455, -10.702462196350098, -0.575158953666687, 3.1409568786621094, 
62, 3411344817, 0.58136326, -0.6380536, -0.44082358, -0.24612848, 8.236200332641602, -5.053934097290039, -1.9072383642196655, -9.166030883789062, -0.707589328289032, 2.3845107555389404, 
63, 3411361484, 0.58049667, -0.63904047, -0.44028085, -0.24658395, 8.04190444946289, -5.495980262756348, -2.0457732677459717, -10.121475219726562, -0.48002052307128906, 2.308069944381714, 
64, 3411378151, 0.5798668, -0.6396555, -0.43986088, -0.24722028, 8.23434829711914, -5.146101474761963, -1.704193115234375, -7.990561485290527, 1.2249212265014648, 0.28224560618400574, 
65, 3411394818, 0.5788975, -0.6403912, -0.43931428, -0.24855569, 8.285356521606445, -4.864973068237305, -1.511106014251709, -12.243607521057129, 3.504875898361206, -2.1747500896453857, 
66, 3411411485, 0.577903, -0.6412601, -0.4386963, -0.24971868, 8.226612091064453, -5.597719192504883, -2.1413912773132324, -12.005997657775879, 2.358949899673462, -0.9113258719444275, 
67, 3411428152, 0.5774007, -0.6415437, -0.43871185, -0.25012445, 8.188262939453125, -5.1495890617370605, -2.673391342163086, -4.243640422821045, -0.9183947443962097, -1.6394946575164795, 
68, 3411444819, 0.577241, -0.6418886, -0.43876868, -0.24950787, 8.344717979431152, -5.743584632873535, -2.497553825378418, 0.6245208382606506, -4.841223239898682, 2.903167724609375, 
69, 3411461486, 0.5776166, -0.64193475, -0.43882915, -0.2484113, 8.307571411132812, -5.3895583152771, -2.1091549396514893, 5.038768768310547, -4.418128490447998, 4.906017780303955, 
70, 3411478153, 0.5781909, -0.6417516, -0.43900755, -0.24722974, 7.995452880859375, -5.1265692710876465, -2.2219882011413574, 7.826635360717773, -4.605779647827148, 4.215333461761475, 
71, 3411494820, 0.57878727, -0.64096045, -0.439975, -0.24616487, 7.941793918609619, -4.337067604064941, -2.445547342300415, 11.265873908996582, -6.051707744598389, -1.5106122493743896, 
72, 3411511487, 0.5788569, -0.640335, -0.44102675, -0.24574621, 8.26806640625, -4.439201354980469, -1.7759320735931396, 7.381859302520752, -5.916933059692383, -5.000984191894531, 
73, 3411528154, 0.5784033, -0.6404114, -0.44136643, -0.2460059, 8.504481315612793, -5.023939609527588, -1.4304473400115967, -0.34881940484046936, -3.287813186645508, -3.407860040664673, 
74, 3411544821, 0.5777767, -0.6408666, -0.4412081, -0.24657603, 8.221247673034668, -5.574788570404053, -1.941833257675171, -3.7131755352020264, -1.6256636381149292, -1.758849859237671, 
75, 3411561488, 0.5774977, -0.64080334, -0.44172978, -0.24645993, 8.162437438964844, -5.1570305824279785, -2.16607666015625, 0.24063773453235626, -3.6110451221466064, -2.3127756118774414, 
76, 3411578155, 0.5771371, -0.6409839, -0.44218326, -0.24602143, 8.509231567382812, -5.644978046417236, -2.056945562362671, 1.1165025234222412, -6.252432346343994, -0.4792137145996094, 
77, 3411594822, 0.5776969, -0.6403293, -0.44279736, -0.24530677, 8.450896263122559, -5.006372451782227, -1.5233806371688843, 9.211411476135254, -3.6625659465789795, -1.005964756011963, 
78, 3411611489, 0.57716477, -0.6407806, -0.44241977, -0.24606106, 8.077518463134766, -4.5678558349609375, -1.4642159938812256, -5.34242582321167, 0.9863899946212769, -1.139995813369751, 
79, 3411628156, 0.57649785, -0.64157045, -0.44169876, -0.24686025, 8.297664642333984, -5.35719633102417, -1.3798867464065552, -9.665711402893066, 2.566451072692871, 1.469996690750122, 
80, 3411644823, 0.5764582, -0.6415592, -0.44098672, -0.24825135, 8.264802932739258, -4.3317551612854, -1.671462893486023, -4.795556545257568, 7.875580310821533, -2.5019643306732178, 
81, 3411661490, 0.5755597, -0.64199215, -0.4402874, -0.25044847, 8.01199722290039, -4.485209941864014, -2.256164073944092, -12.187339782714844, 7.626079559326172, -5.950193881988525, 
82, 3411678157, 0.57457757, -0.64262825, -0.43972844, -0.25204894, 8.40755558013916, -5.428844451904297, -2.6975841522216797, -12.487082481384277, 4.6139068603515625, -3.3923401832580566, 
83, 3411694824, 0.5742391, -0.64285666, -0.43940336, -0.25280353, 8.469127655029297, -5.154113292694092, -2.5792396068573, -5.473165512084961, 2.9258735179901123, -1.1120779514312744, 
84, 3411711491, 0.5740604, -0.6428989, -0.43925354, -0.25336185, 8.287479400634766, -4.941435813903809, -2.310116767883301, -2.2778780460357666, 1.6939531564712524, -1.6105648279190063, 
85, 3411728158, 0.5737108, -0.6429647, -0.43914935, -0.25416565, 8.190816879272461, -4.715482234954834, -2.156440019607544, -2.1741979122161865, 1.0677229166030884, -3.4178481101989746, 
86, 3411744825, 0.57309693, -0.6432753, -0.4390751, -0.2548919, 8.368457794189453, -5.237015247344971, -2.1879093647003174, -4.993849277496338, 0.0055643594823777676, -2.6832122802734375, 
87, 3411761492, 0.57284933, -0.643226, -0.43912578, -0.25548515, 8.34226131439209, -5.188150405883789, -1.9136346578598022, -1.0177206993103027, 0.4763897955417633, -3.2507894039154053, 
88, 3411778159, 0.5727476, -0.64296186, -0.439354, -0.25598502, 8.356111526489258, -5.249744415283203, -1.7247294187545776, -0.6044853329658508, 1.1945571899414062, -3.639641761779785, 
89, 3411794826, 0.57283396, -0.64254534, -0.43957412, -0.25645965, 8.373091697692871, -5.22363805770874, -1.7500513792037964, 2.02470326423645, 1.2146503925323486, -3.9489026069641113, 
90, 3411811493, 0.5730217, -0.6419757, -0.43991837, -0.2568758, 8.35989761352539, -5.022528171539307, -1.7266991138458252, 2.840531826019287, 1.3971279859542847, -4.404641628265381, 
91, 3411828160, 0.5732226, -0.64144295, -0.44014844, -0.25736406, 8.470788955688477, -4.991152763366699, -1.7308603525161743, 2.2378907203674316, 2.1694023609161377, -4.0280842781066895, 
92, 3411844827, 0.5734774, -0.6409436, -0.44023928, -0.25788483, 8.477021217346191, -4.896263599395752, -1.7979881763458252, 2.352750778198242, 2.718282461166382, -3.429104804992676, 
93, 3411861494, 0.57379544, -0.6403972, -0.44037664, -0.2582993, 8.4729642868042, -4.854368686676025, -1.9175573587417603, 2.4560468196868896, 2.782890796661377, -3.03340220451355, 
94, 3411878161, 0.5739571, -0.640106, -0.4402778, -0.25883052, 8.533138275146484, -4.849673271179199, -1.8857277631759644, 1.055108904838562, 2.648820638656616, -2.2192509174346924, 
95, 3411894828, 0.5741224, -0.63992715, -0.44007638, -0.25924847, 8.487926483154297, -4.973729133605957, -1.9899604320526123, 0.5634601712226868, 2.4923014640808105, -0.897661030292511, 
96, 3411911495, 0.57430935, -0.63977706, -0.43987173, -0.25955102, 8.42345142364502, -4.865021228790283, -1.9658000469207764, 1.1331634521484375, 1.8654433488845825, -0.3604731261730194, 
97, 3411928162, 0.5743637, -0.63979506, -0.43959406, -0.2598574, 8.408565521240234, -4.901488780975342, -1.952408790588379, -0.38928744196891785, 1.5464756488800049, 0.26988741755485535, 
98, 3411944829, 0.5744044, -0.6397943, -0.43932426, -0.26022503, 8.452888488769531, -4.86152458190918, -1.8828641176223755, -0.8518143892288208, 1.9613373279571533, -0.00517376558855176, 
99, 3411961496, 0.5744531, -0.63970417, -0.4391562, -0.26062274, 8.35823917388916, -4.780869007110596, -1.8752518892288208, -1.3249706029891968, 2.4425742626190186, -0.5850708484649658, 
100, 3411978163, 0.574309, -0.6397337, -0.43888775, -0.2613191, 8.36330795288086, -4.73247766494751, -1.8308671712875366, -2.983482599258423, 2.9021942615509033, -1.477737545967102, 
101, 3411994830, 0.5741105, -0.6398278, -0.43854246, -0.26210326, 8.472606658935547, -4.985088348388672, -1.8256629705429077, -4.367952346801758, 3.5959529876708984, -1.2533447742462158, 
102, 3412011497, 0.5741442, -0.63978904, -0.438129, -0.2628149, 8.464981079101562, -5.119088649749756, -1.898237705230713, -2.058288097381592, 4.067815780639648, -0.8099504709243774, 
103, 3412028164, 0.5744105, -0.6395083, -0.4378879, -0.26331726, 8.378579139709473, -4.98800802230835, -1.9299157857894897, 0.6055931448936462, 3.754047393798828, -0.997409999370575, 
104, 3412044831, 0.5746634, -0.6392249, -0.43765476, -0.26384056, 8.396794319152832, -4.816173076629639, -1.8057228326797485, 1.0213769674301147, 3.4732680320739746, -1.2755509614944458, 
105, 3412061498, 0.5746971, -0.6391423, -0.43729588, -0.26456156, 8.398407936096191, -4.807636260986328, -1.7165110111236572, -1.3731095790863037, 3.694612503051758, -1.330771803855896, 
106, 3412078165, 0.57487684, -0.6388741, -0.437041, -0.26523918, 8.357748031616211, -5.047017574310303, -1.7569620609283447, -0.4014918804168701, 4.285843849182129, -1.7298049926757812, 
107, 3412094832, 0.5754086, -0.6382257, -0.4369051, -0.26587027, 8.350318908691406, -4.9279398918151855, -1.789294719696045, 3.50838303565979, 5.052124500274658, -2.6984262466430664, 
108, 3412111499, 0.5760068, -0.63749784, -0.4367902, -0.26650903, 8.409387588500977, -4.8062543869018555, -1.8012096881866455, 4.264675140380859, 5.261162757873535, -2.9694855213165283, 
109, 3412128166, 0.5764811, -0.63687325, -0.4366188, -0.2672569, 8.455901145935059, -4.7198638916015625, -1.8212239742279053, 2.780521869659424, 5.458906173706055, -3.03840970993042, 
110, 3412144833, 0.57689375, -0.6363131, -0.43641305, -0.26803535, 8.408109664916992, -4.802558898925781, -1.8320921659469604, 2.5520942211151123, 5.160286903381348, -3.0142691135406494, 
111, 3412161500, 0.57718754, -0.63576686, -0.4364036, -0.26871368, 8.457935333251953, -4.662554740905762, -1.7655247449874878, 1.0766491889953613, 4.4801926612854, -3.2906174659729004, 
112, 3412178167, 0.5771232, -0.635562, -0.43632033, -0.2694709, 8.472875595092773, -4.791767597198486, -1.8051176071166992, -1.6010372638702393, 3.048635482788086, -3.0394980907440186, 
113, 3412194834, 0.5770777, -0.6353743, -0.43624434, -0.27013293, 8.523974418640137, -4.981112957000732, -1.7862117290496826, -1.3576525449752808, 2.6716034412384033, -2.584437131881714, 
114, 3412211501, 0.57726854, -0.6350726, -0.43617547, -0.27054602, 8.543508529663086, -5.032087326049805, -1.8414397239685059, 1.14995276927948, 2.3171746730804443, -1.592495322227478, 
115, 3412228168, 0.57744014, -0.63481355, -0.43616855, -0.27079847, 8.461702346801758, -4.888816833496094, -1.799001693725586, 1.421203851699829, 1.2776702642440796, -1.121887445449829, 
116, 3412244835, 0.57764345, -0.63453263, -0.43626195, -0.27087265, 8.428357124328613, -4.988752365112305, -1.792873501777649, 1.9497092962265015, 0.48254966735839844, -0.7653587460517883, 
117, 3412261502, 0.57779884, -0.6343209, -0.43634936, -0.27089643, 8.429024696350098, -4.8573784828186035, -1.7663196325302124, 2.1875357627868652, -0.3229120969772339, -0.5568457245826721, 
118, 3412278169, 0.5778285, -0.6342473, -0.43641374, -0.27090153, 8.413644790649414, -4.9603495597839355, -1.7898701429367065, 0.7643789649009705, -0.7528595924377441, -0.12633462250232697, 
119, 3412294836, 0.5779778, -0.6341037, -0.43645978, -0.27084553, 8.452442169189453, -5.021024703979492, -1.7501277923583984, 2.3059945106506348, -0.7975282073020935, 0.07342520356178284, 
120, 3412311503, 0.57828176, -0.63387895, -0.4365024, -0.27065358, 8.505125999450684, -5.037577152252197, -1.685207724571228, 3.5072684288024902, -0.6468486785888672, 0.7090811729431152, 
121, 3412328170, 0.578799, -0.6334356, -0.4367414, -0.27020016, 8.434864044189453, -5.045644760131836, -1.684237003326416, 5.647209644317627, -1.0694966316223145, 0.7976755499839783, 
122, 3412344837, 0.57939965, -0.63290024, -0.4370116, -0.2697301, 8.4552640914917, -4.947872161865234, -1.6616201400756836, 7.3511857986450195, -1.3508141040802002, 0.4128063917160034, 
123, 3412361504, 0.58009714, -0.63227016, -0.4373574, -0.2691478, 8.475008010864258, -4.955739974975586, -1.611331820487976, 8.28152847290039, -1.4796457290649414, 0.49645742774009705, 
124, 3412378171, 0.58087337, -0.6315672, -0.437754, -0.26847842, 8.502961158752441, -4.88385534286499, -1.5047202110290527, 8.595784187316895, -1.3105894327163696, 0.6887577772140503, 
125, 3412394838, 0.58151907, -0.63103575, -0.4379335, -0.26803762, 8.550889015197754, -4.796663284301758, -1.48638117313385, 7.645386219024658, -0.9787766933441162, 0.7079031467437744, 
126, 3412411505, 0.58208656, -0.6305805, -0.43809572, -0.26761118, 8.505924224853516, -4.823044776916504, -1.5501563549041748, 6.372971534729004, -0.9239013195037842, 0.9369446635246277, 
127, 3412428172, 0.5826444, -0.63009024, -0.4383184, -0.26718697, 8.535090446472168, -4.717247009277344, -1.504770278930664, 6.273799419403076, -0.9572492241859436, 0.612982451915741, 
128, 3412444839, 0.58301574, -0.62977487, -0.43844795, -0.266908, 8.53342342376709, -4.691119194030762, -1.544975996017456, 4.2032551765441895, -0.8879282474517822, 0.619897723197937, 
129, 3412461506, 0.5833086, -0.6295181, -0.43858895, -0.26664224, 8.528757095336914, -4.721377372741699, -1.583485722541809, 3.1698596477508545, -0.9727702736854553, 0.6567800045013428, 
130, 3412478173, 0.58349544, -0.62937963, -0.4386265, -0.2664981, 8.530776977539062, -4.769236087799072, -1.5768593549728394, 2.129805088043213, -0.8347563147544861, 0.7041123509407043, 
131, 3412494840, 0.58368325, -0.6292298, -0.43869635, -0.26632565, 8.45615291595459, -4.809933662414551, -1.551469326019287, 2.2732226848602295, -1.043538212776184, 0.6660774350166321, 
132, 3412511507, 0.58387125, -0.628993, -0.43882075, -0.26626796, 8.435443878173828, -4.760327339172363, -1.5248301029205322, 2.5579211711883545, -0.7198834419250488, -0.32124730944633484, 
133, 3412528174, 0.58402354, -0.6287938, -0.4388867, -0.2662962, 8.493714332580566, -4.874608993530273, -1.4852547645568848, 1.9140303134918213, -0.3114759922027588, -0.35990965366363525, 
134, 3412544841, 0.5842034, -0.6286116, -0.43889916, -0.2663107, 8.493515968322754, -4.8672637939453125, -1.493363380432129, 1.7526707649230957, -0.03713841736316681, 0.05764778330922127, 
135, 3412561508, 0.58435094, -0.62837887, -0.43902576, -0.26632783, 8.369847297668457, -4.882637023925781, -1.5906047821044922, 1.8471685647964478, -0.40160709619522095, -0.6192765831947327, 
136, 3412578175, 0.5845344, -0.62806606, -0.43922624, -0.26633212, 8.48027515411377, -4.859836578369141, -1.5195270776748657, 2.4112625122070312, -0.45586758852005005, -1.0484046936035156, 
137, 3412594842, 0.584732, -0.6277561, -0.43939316, -0.2663544, 8.483980178833008, -4.847878932952881, -1.6015175580978394, 3.0728516578674316, -0.6299698948860168, -1.0747472047805786, 
138, 3412611509, 0.5850024, -0.6273083, -0.4397679, -0.26619682, 8.449810981750488, -4.868268013000488, -1.634850263595581, 4.207533359527588, -1.3980692625045776, -1.4030638933181763, 
139, 3412628176, 0.58525085, -0.62686807, -0.44016236, -0.2660359, 8.50303840637207, -4.80729341506958, -1.5787458419799805, 4.375693321228027, -1.7111846208572388, -1.5335348844528198, 
140, 3412644843, 0.58551574, -0.6264546, -0.4404755, -0.26590812, 8.576639175415039, -4.8930888175964355, -1.5122931003570557, 4.163812160491943, -1.2836319208145142, -1.2085610628128052, 
141, 3412661510, 0.58588743, -0.6259803, -0.44078013, -0.2657024, 8.561022758483887, -4.949683666229248, -1.503143548965454, 4.305066108703613, -0.7116361260414124, -0.6950647234916687, 
142, 3412678177, 0.5864055, -0.6253362, -0.44115558, -0.26545256, 8.483619689941406, -4.921600341796875, -1.4688129425048828, 5.860128402709961, -0.42816752195358276, -1.0609805583953857, 
143, 3412694844, 0.58686227, -0.6247092, -0.4414685, -0.26539922, 8.487357139587402, -4.745601654052734, -1.3717141151428223, 5.861767292022705, -0.1623973250389099, -1.8469446897506714, 
144, 3412711511, 0.5871977, -0.6241811, -0.44177336, -0.26539296, 8.544833183288574, -4.79775333404541, -1.357264518737793, 4.3481855392456055, -0.24721379578113556, -1.8349450826644897, 
145, 3412728178, 0.58740574, -0.62379926, -0.4419729, -0.26549786, 8.557835578918457, -4.738988399505615, -1.3328924179077148, 2.741269588470459, -0.044873449951410294, -1.6188889741897583, 
146, 3412744845, 0.58735204, -0.62368315, -0.44202095, -0.2658093, 8.532386779785156, -4.6857171058654785, -1.3155032396316528, -0.4839007556438446, 0.21786801517009735, -1.4467333555221558, 
147, 3412761512, 0.58707756, -0.6237883, -0.44196057, -0.26626858, 8.541024208068848, -4.769853591918945, -1.3145167827606201, -3.571319818496704, 0.543072521686554, -1.184267282485962, 
148, 3412778179, 0.5866726, -0.62406117, -0.4416746, -0.26699528, 8.536031723022461, -4.749295234680176, -1.296866536140442, -5.251628398895264, 1.4190012216567993, -1.1752901077270508, 
149, 3412794846, 0.58612496, -0.62445766, -0.44129896, -0.2678908, 8.528342247009277, -4.725092887878418, -1.3606094121932983, -7.083283424377441, 1.8604750633239746, -1.33110511302948, 
150, 3412811513, 0.5854981, -0.6249283, -0.44094792, -0.26874056, 8.511489868164062, -4.874962329864502, -1.5076297521591187, -8.069474220275879, 1.4676144123077393, -1.074709177017212, 
151, 3412828180, 0.5850066, -0.6253168, -0.44058713, -0.2694984, 8.495132446289062, -4.984745502471924, -1.5932586193084717, -6.538206100463867, 1.465795874595642, -0.7271831035614014, 
152, 3412844847, 0.58466727, -0.6255699, -0.440307, -0.27010462, 8.496196746826172, -4.882099628448486, -1.5879268646240234, -4.815430164337158, 1.2542730569839478, -0.5807934999465942, 
153, 3412861514, 0.5844463, -0.62569493, -0.44013378, -0.27057487, 8.459287643432617, -4.8875956535339355, -1.6658012866973877, -3.065455913543701, 0.7631880640983582, -0.6907873749732971, 
154, 3412878181, 0.584404, -0.62561655, -0.44013834, -0.27083993, 8.476778984069824, -4.829957485198975, -1.6934260129928589, -0.1308680772781372, -0.13182856142520905, -0.9904814958572388, 
155, 3412894848, 0.5844739, -0.62540644, -0.44030485, -0.27090383, 8.521531105041504, -4.832203388214111, -1.663865089416504, 1.4640538692474365, -0.8700761198997498, -1.0072065591812134, 
156, 3412911515, 0.5847229, -0.6250514, -0.4405601, -0.27077112, 8.558697700500488, -4.920163154602051, -1.6195179224014282, 3.7075090408325195, -1.3287742137908936, -0.7264403104782104, 
157, 3412928182, 0.5852001, -0.62446684, -0.4409756, -0.27041233, 8.52838134765625, -4.854979515075684, -1.5463569164276123, 6.373457908630371, -1.7030525207519531, -0.7416413426399231, 
158, 3412944849, 0.58568347, -0.62388366, -0.44136137, -0.2700821, 8.50804615020752, -4.760995388031006, -1.4906198978424072, 7.275423049926758, -2.0127360820770264, -0.8876851201057434, 
159, 3412961516, 0.5862059, -0.6232134, -0.44188383, -0.2696415, 8.520791053771973, -4.761857509613037, -1.3975112438201904, 7.295670032501221, -2.1625702381134033, -1.032396912574768, 
160, 3412978183, 0.5867338, -0.6225289, -0.4423972, -0.26923215, 8.504815101623535, -4.7361907958984375, -1.3798716068267822, 7.602215766906738, -2.14503812789917, -1.2055130004882812, 
161, 3412994850, 0.5872322, -0.6218007, -0.44304273, -0.26876673, 8.529093742370605, -4.721992015838623, -1.4196292161941528, 7.665326118469238, -2.7139735221862793, -1.6593575477600098, 
162, 3413011517, 0.58767176, -0.6211521, -0.44365644, -0.2682928, 8.566519737243652, -4.713509559631348, -1.4149518013000488, 7.48612642288208, -3.18988299369812, -1.4167157411575317, 
163, 3413028184, 0.58798355, -0.6206543, -0.44414526, -0.26795277, 8.570865631103516, -4.642171859741211, -1.3274455070495605, 5.955663681030273, -2.9386606216430664, -1.2410506010055542, 
164, 3413044851, 0.58811146, -0.62032425, -0.44451317, -0.26782653, 8.599117279052734, -4.573466777801514, -1.2807637453079224, 3.1705901622772217, -2.1719956398010254, -1.3259696960449219, 
165, 3413061518, 0.58806324, -0.62019414, -0.44472963, -0.26787412, 8.655799865722656, -4.632200241088867, -1.357650876045227, 0.6339206695556641, -1.6483179330825806, -1.0544490814208984, 
166, 3413078185, 0.5879884, -0.6202047, -0.4448122, -0.26787683, 8.651559829711914, -4.852510452270508, -1.4101969003677368, -0.38306352496147156, -1.5284507274627686, 0.12864619493484497, 
167, 3413094852, 0.5880309, -0.62017184, -0.44482216, -0.2678434, 8.59392261505127, -4.857328414916992, -1.3785643577575684, 0.8282186388969421, -1.2673163414001465, 0.5740765929222107, 
168, 3413111519, 0.5880933, -0.6201168, -0.44486648, -0.26776004, 8.585610389709473, -4.7676239013671875, -1.3945945501327515, 0.7230784893035889, -1.2543435096740723, 0.6815347671508789, 
169, 3413128186, 0.58809775, -0.6201479, -0.44484168, -0.26771948, 8.562196731567383, -4.771887302398682, -1.4171561002731323, -0.06553009897470474, -1.179067850112915, 0.9471001029014587, 
170, 3413144853, 0.588104, -0.6201687, -0.44482705, -0.2676814, 8.498397827148438, -4.736010551452637, -1.4756314754486084, 0.15291422605514526, -1.270466685295105, 0.8516029715538025, 
171, 3413161520, 0.5880623, -0.6201715, -0.44485396, -0.26772195, 8.491068840026855, -4.613969326019287, -1.4254127740859985, -0.2812274396419525, -1.147832989692688, 0.2324160486459732, 
172, 3413178187, 0.5879126, -0.62029177, -0.4448078, -0.26784894, 8.494928359985352, -4.675416469573975, -1.4604313373565674, -1.5589935779571533, -1.0712894201278687, 0.3498246371746063, 
173, 3413194854, 0.58773035, -0.6204599, -0.4447346, -0.26798087, 8.442320823669434, -4.6794023513793945, -1.532734751701355, -1.5577003955841064, -1.3464596271514893, 0.47542935609817505, 
174, 3413211521, 0.58747756, -0.62062603, -0.4447479, -0.26812816, 8.453112602233887, -4.5985612869262695, -1.439663052558899, -1.963226079940796, -1.7174339294433594, -0.05151994898915291, 
175, 3413228188, 0.58695877, -0.62104946, -0.44461045, -0.26851165, 8.515331268310547, -4.649417400360107, -1.4644451141357422, -4.348025321960449, -1.8232786655426025, -0.18914981186389923, 
176, 3413244855, 0.5864085, -0.6215043, -0.44449472, -0.26885304, 8.582368850708008, -4.803555011749268, -1.5678259134292603, -5.311203479766846, -1.77487051486969, 0.07261840999126434, 
177, 3413261522, 0.5858533, -0.6220126, -0.4443507, -0.26912585, 8.548346519470215, -4.8256754875183105, -1.636131763458252, -5.481387615203857, -2.0166802406311035, 0.6426419019699097, 
178, 3413278189, 0.5852971, -0.62255913, -0.44418773, -0.26934144, 8.519234657287598, -4.86256217956543, -1.704813003540039, -5.345139980316162, -2.334584951400757, 1.0442618131637573, 
179, 3413294856, 0.5848696, -0.62300843, -0.44410077, -0.26937446, 8.577315330505371, -4.935667991638184, -1.6894402503967285, -4.093729019165039, -2.6312952041625977, 1.4541547298431396, 
180, 3413311523, 0.58463824, -0.62328583, -0.44409695, -0.26924142, 8.529318809509277, -4.959473609924316, -1.6969157457351685, -1.5178085565567017, -2.9653615951538086, 1.5300706624984741, 
181, 3413328190, 0.5846297, -0.6233668, -0.44423676, -0.2688416, 8.50651741027832, -4.9089789390563965, -1.6924337148666382, 1.3231712579727173, -3.641972541809082, 1.7909488677978516, 
182, 3413344857, 0.5847672, -0.623272, -0.4445232, -0.2682885, 8.526079177856445, -4.765045166015625, -1.6307929754257202, 3.1553120613098145, -3.981238842010498, 1.5462708473205566, 
183, 3413361524, 0.58487993, -0.62320876, -0.44476187, -0.26779315, 8.546160697937012, -4.749525547027588, -1.598021149635315, 3.177377462387085, -3.960902214050293, 1.4796266555786133, 
184, 3413378191, 0.58507735, -0.6230426, -0.44504908, -0.2672714, 8.581933975219727, -4.702320098876953, -1.5800014734268188, 3.7839627265930176, -3.630831241607666, 1.282857060432434, 
185, 3413394858, 0.5851588, -0.62295896, -0.44528085, -0.2669017, 8.576009750366211, -4.67055606842041, -1.5515239238739014, 2.5877089500427246, -3.373666524887085, 0.922230064868927, 
186, 3413411525, 0.58523166, -0.62288773, -0.44547507, -0.26658407, 8.619450569152832, -4.790584564208984, -1.5298240184783936, 2.200547218322754, -3.0130012035369873, 0.9130991697311401, 
187, 3413428192, 0.5854195, -0.62270445, -0.44572094, -0.266188, 8.583144187927246, -4.8289361000061035, -1.5395314693450928, 3.6168012619018555, -3.0782110691070557, 0.8564822673797607, 
188, 3413444859, 0.5856536, -0.62239325, -0.44613272, -0.26571074, 8.521186828613281, -4.714648246765137, -1.4848471879959106, 4.3894853591918945, -3.4545388221740723, 0.2532007396221161, 
189, 3413461526, 0.5857902, -0.6221302, -0.44651943, -0.26537555, 8.542020797729492, -4.7108893394470215, -1.459684133529663, 3.6768884658813477, -3.3469903469085693, -0.30238351225852966, 
190, 3413478193, 0.5859256, -0.62187445, -0.44688937, -0.26505348, 8.591682434082031, -4.7290263175964355, -1.5022636651992798, 3.0582010746002197, -2.972097396850586, -0.1755238026380539, 
191, 3413494860, 0.58602995, -0.6216645, -0.4472286, -0.2647428, 8.532958984375, -4.741971492767334, -1.6580758094787598, 3.2525763511657715, -3.3115177154541016, -0.10069634020328522, 
192, 3413511527, 0.5861734, -0.6213744, -0.4476344, -0.26442033, 8.545818328857422, -4.656318187713623, -1.6087483167648315, 3.957707166671753, -3.3899312019348145, -0.5180297493934631, 
193, 3413528194, 0.5862793, -0.6211108, -0.44802907, -0.26413682, 8.596447944641113, -4.705563068389893, -1.5885447263717651, 3.0654239654541016, -3.07155179977417, -0.5191054344177246, 
194, 3413544861, 0.58640295, -0.6208534, -0.4483598, -0.2639055, 8.596512794494629, -4.807135105133057, -1.5549769401550293, 3.1229372024536133, -2.707876682281494, -0.44914427399635315, 
195, 3413561528, 0.5866427, -0.62048197, -0.44870758, -0.26365507, 8.599278450012207, -4.83145809173584, -1.5375899076461792, 4.061643123626709, -2.2344393730163574, -0.5625189542770386, 
196, 3413578195, 0.58704346, -0.6198859, -0.44924685, -0.2632463, 8.608824729919434, -4.80016565322876, -1.5559269189834595, 5.6801862716674805, -2.339259386062622, -1.0005218982696533, 
197, 3413594862, 0.5874773, -0.61928797, -0.44975245, -0.26282296, 8.647225379943848, -4.810434341430664, -1.579609990119934, 6.566540241241455, -2.5809149742126465, -0.8771070837974548, 
198, 3413611529, 0.588104, -0.6185314, -0.45031044, -0.26224685, 8.622787475585938, -4.80147123336792, -1.5638974905014038, 8.735077857971191, -2.631103515625, -0.6412652730941772, 
199, 3413628196, 0.5887842, -0.6177189, -0.45087686, -0.26166177, 8.625728607177734, -4.657171726226807, -1.4556084871292114, 9.139068603515625, -2.393341064453125, -0.7034658193588257, 
200, 3413644863, 0.5894046, -0.6169595, -0.45142668, -0.2611083, 8.614133834838867, -4.656373500823975, -1.4912041425704956, 8.387782096862793, -2.386988639831543, -0.6609742641448975, 
201, 3413661530, 0.58996946, -0.6162393, -0.45197463, -0.26058462, 8.611956596374512, -4.6055192947387695, -1.4584519863128662, 8.053230285644531, -2.585845947265625, -0.7689701914787292, 
202, 3413678197, 0.5903792, -0.6156831, -0.4524192, -0.2601996, 8.56572437286377, -4.590331077575684, -1.439035415649414, 6.478485107421875, -2.549168825149536, -0.7067442536354065, 
203, 3413694864, 0.5907512, -0.6151624, -0.45285547, -0.25982785, 8.581539154052734, -4.640428066253662, -1.3971728086471558, 5.58319091796875, -2.364654064178467, -0.5907953381538391, 
204, 3413711531, 0.59111047, -0.6146708, -0.45324016, -0.25950286, 8.613646507263184, -4.684914588928223, -1.34211003780365, 4.4709343910217285, -1.6651842594146729, -0.3627270758152008, 
205, 3413728198, 0.59138614, -0.61434066, -0.45344785, -0.2592937, 8.580853462219238, -4.747551918029785, -1.4246429204940796, 3.5017876625061035, -1.4114134311676025, 0.15087801218032837, 
206, 3413744865, 0.59166247, -0.61402076, -0.45364016, -0.2590846, 8.551362037658691, -4.703211784362793, -1.475799560546875, 3.3690624237060547, -1.3365602493286133, 0.2613455653190613, 
207, 3413761532, 0.59186715, -0.6137388, -0.45389947, -0.25883058, 8.528404235839844, -4.624333381652832, -1.512781023979187, 2.5554370880126953, -1.7487843036651611, 0.2640093266963959, 
208, 3413778199, 0.59188724, -0.613652, -0.45406687, -0.2586968, 8.481488227844238, -4.586653232574463, -1.5172821283340454, 1.163565754890442, -2.183828592300415, 0.32628658413887024, 
209, 3413794866, 0.59178096, -0.6136582, -0.4542455, -0.2586118, 8.510202407836914, -4.647823333740234, -1.5565184354782104, -0.0680401399731636, -2.481473684310913, 0.1853783279657364, 
210, 3413811533, 0.591576, -0.6137332, -0.45440534, -0.2586222, 8.54995059967041, -4.672626495361328, -1.5451592206954956, -0.9557762145996094, -2.5039870738983154, -0.10320636630058289, 
211, 3413828200, 0.5913921, -0.6137936, -0.4545473, -0.25864974, 8.592668533325195, -4.781297206878662, -1.6024221181869507, -0.7483518719673157, -2.3465585708618164, -0.12550222873687744, 
212, 3413844867, 0.5913385, -0.6137214, -0.45476466, -0.25856173, 8.584715843200684, -4.821877479553223, -1.6141676902770996, 0.11356031149625778, -2.106811046600342, -0.0404936820268631, 
213, 3413861534, 0.591413, -0.61354464, -0.45497528, -0.25844002, 8.569527626037598, -4.899507999420166, -1.6177650690078735, 1.845542311668396, -1.9936925172805786, -0.08306199312210083, 
214, 3413878201, 0.5916634, -0.6131675, -0.45532575, -0.25814435, 8.520954132080078, -4.830296039581299, -1.5734423398971558, 3.9447083473205566, -2.2476043701171875, -0.24384573101997375, 
215, 3413894868, 0.59188384, -0.61276394, -0.4557678, -0.25781703, 8.539377212524414, -4.726109027862549, -1.4814389944076538, 3.8515164852142334, -2.6172595024108887, -0.5854039192199707, 
216, 3413911535, 0.5920104, -0.6124512, -0.45616361, -0.25756967, 8.57681941986084, -4.790106773376465, -1.5395628213882446, 3.0319736003875732, -2.69653058052063, -0.6386526823043823, 
217, 3413928202, 0.5921983, -0.61209005, -0.4565613, -0.25729135, 8.591739654541016, -4.807520389556885, -1.551232099533081, 3.582326650619507, -2.554354667663574, -0.5661943554878235, 
218, 3413944869, 0.59243697, -0.6117238, -0.4568973, -0.2570166, 8.579408645629883, -4.761173248291016, -1.5798228979110718, 4.304477214813232, -2.4484975337982178, -0.34691122174263, 
219, 3413961536, 0.59267503, -0.611376, -0.45718917, -0.25677562, 8.58505630493164, -4.663753509521484, -1.583970308303833, 4.156243801116943, -2.2238869667053223, -0.2628631293773651, 
220, 3413978203, 0.592869, -0.6110861, -0.4574554, -0.25654432, 8.589754104614258, -4.670536518096924, -1.572232723236084, 3.448666572570801, -2.1944448947906494, -0.043772101402282715, 
221, 3413994870, 0.5930274, -0.6108554, -0.45766717, -0.25634968, 8.603675842285156, -4.707405090332031, -1.5648391246795654, 3.146206855773926, -2.1981842517852783, 0.11020504683256149, 
222, 3414011537, 0.5931905, -0.6106187, -0.4579026, -0.2561156, 8.612831115722656, -4.707679748535156, -1.5871033668518066, 3.560479164123535, -2.542418956756592, 0.13170690834522247, 
223, 3414028204, 0.5934162, -0.6102624, -0.45828354, -0.25575998, 8.585773468017578, -4.678962230682373, -1.544033169746399, 3.85949444770813, -2.6378138065338135, -0.06118874251842499, 
224, 3414044871, 0.593607, -0.6099618, -0.4586306, -0.25541192, 8.594263076782227, -4.602504253387451, -1.4941043853759766, 3.771003007888794, -2.8765881061553955, 0.10514654219150543, 
225, 3414061538, 0.5937339, -0.6097156, -0.45895246, -0.25512657, 8.57874584197998, -4.590396881103516, -1.5121617317199707, 3.000162363052368, -2.78586745262146, 0.027860211208462715, 
226, 3414078205, 0.5937232, -0.6096324, -0.45914203, -0.25500917, 8.57994270324707, -4.574697017669678, -1.4660768508911133, 1.9106496572494507, -2.7653391361236572, 0.020061148330569267, 
227, 3414094872, 0.59366965, -0.6095371, -0.45941114, -0.25487727, 8.580689430236816, -4.579473495483398, -1.4602090120315552, 0.7967406511306763, -2.625096559524536, -0.1596183478832245, 
228, 3414111539, 0.59354365, -0.60949594, -0.45965615, -0.25482747, 8.60893726348877, -4.583786964416504, -1.4719053506851196, -0.037253670394420624, -2.5009775161743164, -0.3392402231693268, 
229, 3414128206, 0.59333307, -0.6095755, -0.45977506, -0.2549128, 8.647900581359863, -4.652619361877441, -1.4314216375350952, -1.1266130208969116, -2.1261870861053467, -0.19112196564674377, 
230, 3414144873, 0.593131, -0.60962313, -0.4599053, -0.2550344, 8.626005172729492, -4.618276596069336, -1.3875032663345337, -1.5327023267745972, -1.678566575050354, -0.38379350304603577, 
231, 3414161540, 0.5927875, -0.6097868, -0.45996034, -0.2553424, 8.632806777954102, -4.614609241485596, -1.4267772436141968, -3.309481143951416, -1.2606571912765503, -0.7118154168128967, 
232, 3414178207, 0.5924042, -0.61003906, -0.45992237, -0.2556978, 8.662381172180176, -4.7383012771606445, -1.5230695009231567, -3.701432466506958, -1.2128256559371948, -0.3725367486476898, 
233, 3414194874, 0.59213334, -0.6101491, -0.46000087, -0.25592119, 8.627787590026855, -4.635379314422607, -1.5284456014633179, -2.723424196243286, -1.253985047340393, -0.4504505395889282, 
234, 3414211541, 0.5917343, -0.6104341, -0.45992178, -0.25630584, 8.659443855285645, -4.624235153198242, -1.53920316696167, -3.826230525970459, -1.1566697359085083, -0.27524691820144653, 
235, 3414228208, 0.5913821, -0.61073524, -0.45979112, -0.2566354, 8.652877807617188, -4.7828264236450195, -1.5784043073654175, -3.826960563659668, -0.9504618048667908, 0.3346107602119446, 
236, 3414244875, 0.59122396, -0.6109014, -0.4596833, -0.2567975, 8.606243133544922, -4.7793779373168945, -1.589809775352478, -1.7890214920043945, -0.9489761590957642, 0.8153482675552368, 
237, 3414261542, 0.5911225, -0.61095417, -0.45967036, -0.25692883, 8.620017051696777, -4.688828945159912, -1.5112496614456177, -1.709621787071228, -0.6020904779434204, 0.4358704388141632, 
238, 3414278209, 0.5910758, -0.61100954, -0.45952803, -0.2571589, 8.665104866027832, -4.806393146514893, -1.539467453956604, -1.0639514923095703, -0.027341555804014206, 0.5112487077713013, 
239, 3414294876, 0.59117997, -0.610844, -0.45953813, -0.25729468, 8.601898193359375, -4.691451072692871, -1.5083011388778687, 0.397617906332016, 0.1758888065814972, -0.0633402019739151, 
240, 3414311543, 0.59113395, -0.61081797, -0.45945728, -0.2576068, 8.608268737792969, -4.650393486022949, -1.4821531772613525, -1.037070870399475, 0.29875290393829346, -0.3092477023601532, 
241, 3414328210, 0.591163, -0.6107299, -0.45939612, -0.25785774, 8.602161407470703, -4.7605977058410645, -1.4844368696212769, -1.034663438796997, 0.7369861602783203, -0.06404455751180649, 
242, 3414344877, 0.5912248, -0.61064255, -0.45930994, -0.2580766, 8.5787992477417, -4.770835876464844, -1.482580542564392, -0.730051577091217, 0.7452974915504456, 0.2116057127714157, 
243, 3414361544, 0.5912804, -0.6105728, -0.45921522, -0.25828266, 8.584769248962402, -4.745606899261475, -1.5043953657150269, -0.7306663393974304, 0.6230224967002869, 0.3203187882900238, 
244, 3414378211, 0.59133893, -0.6105339, -0.4590617, -0.25851312, 8.555846214294434, -4.772221565246582, -1.5334702730178833, -0.44161418080329895, 0.6072195768356323, 0.46768152713775635, 
245, 3414394878, 0.59148574, -0.6103487, -0.4590292, -0.258672, 8.525317192077637, -4.73811674118042, -1.5044745206832886, 0.5063694715499878, 0.599433183670044, 0.022494353353977203, 
246, 3414411545, 0.59153837, -0.61026186, -0.45889348, -0.25899753, 8.556981086730957, -4.693879127502441, -1.4185528755187988, 0.016923589631915092, 0.6887830495834351, -0.2629143297672272, 
247, 3414428212, 0.5916138, -0.61008656, -0.4589221, -0.2591876, 8.548104286193848, -4.754513740539551, -1.506291389465332, -0.4804942011833191, 0.5963340401649475, -0.34314611554145813, 
248, 3414444879, 0.5916721, -0.6099694, -0.45889604, -0.25937584, 8.576299667358398, -4.809959411621094, -1.5311853885650635, -0.2020457684993744, 0.28056788444519043, -0.07849011570215225, 
249, 3414461546, 0.59185815, -0.60974395, -0.4589764, -0.25933936, 8.562767028808594, -4.814574718475342, -1.5506107807159424, 1.0458496809005737, -0.16025865077972412, 0.37788334488868713, 
250, 3414478213, 0.5920553, -0.60956424, -0.45900938, -0.25925356, 8.561923027038574, -4.772703647613525, -1.5371841192245483, 1.6659713983535767, -0.586940586566925, 0.8197279572486877, 
251, 3414494880, 0.5922826, -0.60939205, -0.45907766, -0.25901845, 8.48937702178955, -4.765396595001221, -1.5452029705047607, 2.143174648284912, -1.1961772441864014, 1.3760871887207031, 
252, 3414511547, 0.59248865, -0.60923785, -0.45911598, -0.25884128, 8.526835441589355, -4.737513542175293, -1.4998582601547241, 2.5447306632995605, -1.357280969619751, 1.142755389213562, 
253, 3414528214, 0.59271044, -0.6090733, -0.45917183, -0.2586222, 8.540262222290039, -4.763138771057129, -1.479532241821289, 2.483990430831909, -1.3549503087997437, 1.2912836074829102, 
254, 3414544881, 0.592986, -0.6088494, -0.45929375, -0.25830093, 8.54643726348877, -4.742649555206299, -1.4570680856704712, 2.814560651779175, -1.4591684341430664, 1.4378522634506226, 
255, 3414561548, 0.5931887, -0.6086846, -0.45938447, -0.25806242, 8.523929595947266, -4.649563312530518, -1.4367588758468628, 2.3416221141815186, -1.538670301437378, 1.214829683303833, 
256, 3414578215, 0.59323645, -0.6086647, -0.4594124, -0.25794998, 8.53534984588623, -4.664241313934326, -1.420122504234314, 0.7482557892799377, -1.5866552591323853, 1.1204850673675537, 
257, 3414594882, 0.59325933, -0.6087328, -0.45934817, -0.25785106, 8.604300498962402, -4.751948356628418, -1.4182769060134888, -0.12986920773983002, -1.274872064590454, 1.7231006622314453, 
258, 3414611549, 0.59330547, -0.6087943, -0.45928863, -0.25770536, 8.55972957611084, -4.774588108062744, -1.459328532218933, -0.0618162527680397, -1.302854061126709, 1.9434468746185303, 
259, 3414628216, 0.59330344, -0.6088969, -0.45921075, -0.25760645, 8.5452241897583, -4.66813850402832, -1.4256727695465088, -0.26577019691467285, -1.438921570777893, 1.8146919012069702, 
260, 3414644883, 0.5932072, -0.6091325, -0.45904168, -0.2575721, 8.605047225952148, -4.788174152374268, -1.4757475852966309, -1.5163487195968628, -1.3594838380813599, 2.1776108741760254, 
261, 3414661550, 0.593204, -0.60931396, -0.45888972, -0.2574212, 8.612425804138184, -4.828240394592285, -1.513890266418457, -0.7972593307495117, -1.3721363544464111, 2.6223244667053223, 
262, 3414678217, 0.59328425, -0.60942334, -0.45878813, -0.25715843, 8.552688598632812, -4.808837890625, -1.4847381114959717, -0.18219593167304993, -1.3948547840118408, 2.8688719272613525, 
263, 3414694884, 0.5933844, -0.6095746, -0.45858854, -0.25692484, 8.563084602355957, -4.878944396972656, -1.4644815921783447, 0.33147314190864563, -1.3635303974151611, 3.1690144538879395, 
264, 3414711551, 0.5936382, -0.6095877, -0.45843264, -0.2565856, 8.618990898132324, -4.825942516326904, -1.4575170278549194, 1.61247980594635, -1.0728392601013184, 3.3055307865142822, 
265, 3414728218, 0.59392923, -0.6095328, -0.45831385, -0.25625443, 8.568733215332031, -4.796753406524658, -1.4362670183181763, 1.8628566265106201, -0.8284555673599243, 3.007552146911621, 
266, 3414744885, 0.5941967, -0.6094511, -0.45821837, -0.255999, 8.549697875976562, -4.734769344329834, -1.397207260131836, 1.7876704931259155, -0.6989961862564087, 2.4505271911621094, 
267, 3414761552, 0.59441495, -0.6093939, -0.45810124, -0.25583863, 8.573080062866211, -4.736556053161621, -1.3597841262817383, 1.267937421798706, -0.4825432002544403, 2.122697114944458, 
268, 3414778219, 0.59464884, -0.6093413, -0.45796767, -0.25565952, 8.588894844055176, -4.773116111755371, -1.3656697273254395, 1.1056809425354004, -0.32266879081726074, 2.353390693664551, 
269, 3414794886, 0.5948591, -0.6092719, -0.45788434, -0.255485, 8.54768180847168, -4.735034942626953, -1.3773876428604126, 1.0192382335662842, -0.48944592475891113, 2.0474727153778076, 
270, 3414811553, 0.5949885, -0.6092754, -0.4577893, -0.2553455, 8.569276809692383, -4.722901821136475, -1.4257054328918457, 0.4247930645942688, -0.7738749384880066, 2.01727557182312, 
271, 3414828220, 0.5951367, -0.6092639, -0.45774773, -0.25510198, 8.573376655578613, -4.762139320373535, -1.4673479795455933, 0.2948981821537018, -0.960258424282074, 2.3232319355010986, 
272, 3414844887, 0.5953255, -0.60919124, -0.4577045, -0.25491226, 8.547046661376953, -4.733665466308594, -1.4724429845809937, 0.8490674495697021, -0.6611022353172302, 1.9384909868240356, 
273, 3414861554, 0.5955315, -0.6090563, -0.4576791, -0.2547989, 8.526673316955566, -4.711912155151367, -1.4192793369293213, 0.8652417659759521, -0.18724162876605988, 1.4075011014938354, 
274, 3414878221, 0.59566694, -0.6089775, -0.45756426, -0.25487703, 8.47828483581543, -4.682330131530762, -1.426857829093933, 0.7016663551330566, 0.027924248948693275, 0.8554322123527527, 
275, 3414894888, 0.59572333, -0.6088704, -0.45754117, -0.25504285, 8.505083084106445, -4.65140438079834, -1.3850833177566528, -0.30443254113197327, 0.1978260725736618, 0.0015175524167716503, 
276, 3414911555, 0.59565264, -0.6088498, -0.45747676, -0.2553723, 8.535662651062012, -4.728870391845703, -1.3797626495361328, -1.553499698638916, 0.37067338824272156, -0.4825688302516937, 
277, 3414928222, 0.5955681, -0.6087941, -0.45743906, -0.25576913, 8.555088996887207, -4.758800029754639, -1.3625049591064453, -2.2104270458221436, 0.886756420135498, -0.9009138345718384, 
278, 3414944889, 0.59546685, -0.60874283, -0.45737016, -0.2562499, 8.526371002197266, -4.855607032775879, -1.4127084016799927, -2.399845838546753, 1.1760005950927734, -1.170167326927185, 
279, 3414961556, 0.59553015, -0.60846883, -0.45746037, -0.2565925, 8.501821517944336, -4.8785247802734375, -1.4528813362121582, -0.17325709760189056, 0.9058763384819031, -1.6698455810546875, 
280, 3414978223, 0.59557146, -0.6081946, -0.45758346, -0.25692686, 8.453640937805176, -4.720094680786133, -1.4795054197311401, 0.6464068293571472, 0.20479272305965424, -1.960921049118042, 
281, 3414994890, 0.59551644, -0.60794264, -0.4578683, -0.25714317, 8.457995414733887, -4.718746662139893, -1.5051512718200684, 0.07630664110183716, -0.8781698942184448, -2.1279544830322266, 
282, 3415011557, 0.59533405, -0.60783154, -0.4581209, -0.2573782, 8.516592025756836, -4.757645606994629, -1.4308878183364868, -0.8477675318717957, -1.4797097444534302, -1.9020501375198364, 
283, 3415028224, 0.595114, -0.6078617, -0.45826906, -0.2575517, 8.579341888427734, -4.889662742614746, -1.4237688779830933, -1.8878222703933716, -1.50639808177948, -0.7873855233192444, 
284, 3415044891, 0.5950429, -0.6078877, -0.45830107, -0.25759795, 8.609881401062012, -5.0083746910095215, -1.3866362571716309, -1.188826322555542, -1.013020634651184, 0.4869422912597656, 
285, 3415061558, 0.59510225, -0.60784215, -0.45833826, -0.25750223, 8.529777526855469, -4.952970504760742, -1.4496997594833374, -0.16434387862682343, -0.9388590455055237, 1.0922727584838867, 
286, 3415078225, 0.59512186, -0.6078169, -0.45839202, -0.257421, 8.503839492797852, -4.8643999099731445, -1.4115937948226929, -0.12052055448293686, -1.2790852785110474, 0.8968477249145508, 
287, 3415094892, 0.5950937, -0.6078871, -0.4583599, -0.25737742, 8.469474792480469, -4.8764753341674805, -1.3847590684890747, -0.5354206562042236, -1.3408247232437134, 1.234115719795227, 
288, 3415111559, 0.59510344, -0.60789216, -0.45839164, -0.25728646, 8.472397804260254, -4.8478217124938965, -1.3843708038330078, -0.02210376225411892, -1.472435712814331, 1.0465285778045654, 
289, 3415128226, 0.5950173, -0.60795265, -0.4584122, -0.2573055, 8.438628196716309, -4.758286952972412, -1.3708670139312744, -0.5231649875640869, -1.640877604484558, 0.5596567392349243, 
290, 3415144893, 0.59485126, -0.60804754, -0.4585424, -0.25723383, 8.446425437927246, -4.790627956390381, -1.42836594581604, -2.0576987266540527, -1.9227964878082275, 0.7021016478538513, 
291, 3415161560, 0.59462124, -0.6082418, -0.4585755, -0.25724697, 8.490374565124512, -4.807868003845215, -1.491192102432251, -2.2373592853546143, -2.0684432983398438, 0.7982134819030762, 
292, 3415178227, 0.59441966, -0.60837555, -0.45870292, -0.25716937, 8.493064880371094, -4.85958194732666, -1.521242380142212, -1.997175931930542, -2.3098559379577637, 0.7329010963439941, 
293, 3415194894, 0.5941584, -0.6085866, -0.45874107, -0.2572055, 8.540271759033203, -4.8257622718811035, -1.4403493404388428, -2.0004026889801025, -2.39481258392334, 0.58624267578125, 
294, 3415211561, 0.59380263, -0.6089067, -0.45872766, -0.257294, 8.536170959472656, -4.839216232299805, -1.4128459692001343, -3.0570428371429443, -2.479271173477173, 0.7524436116218567, 
295, 3415228228, 0.59339434, -0.6093013, -0.45867148, -0.25740194, 8.557999610900879, -4.938509464263916, -1.4457217454910278, -3.344301700592041, -2.735347032546997, 0.9207445979118347, 
296, 3415244895, 0.5931427, -0.6095115, -0.45877215, -0.25730452, 8.548012733459473, -4.993584156036377, -1.4597915410995483, -1.8175028562545776, -2.966693639755249, 0.9339735507965088, 
297, 3415261562, 0.5930947, -0.6095023, -0.45904672, -0.25694695, 8.54284954071045, -4.923179626464844, -1.4324067831039429, 0.20011843740940094, -3.253735303878784, 1.0861514806747437, 
298, 3415278229, 0.59311, -0.6095137, -0.4592373, -0.25654358, 8.529184341430664, -4.885623455047607, -1.450408935546875, 1.6660994291305542, -3.664191246032715, 1.5611003637313843, 
299, 3415294896, 0.5932909, -0.60936266, -0.45949313, -0.25602594, 8.527894020080566, -4.802021026611328, -1.4373146295547485, 3.8121368885040283, -3.7763748168945312, 1.4714688062667847, 
300, 3415311563, 0.59358436, -0.60904753, -0.45987028, -0.2554179, 8.533295631408691, -4.675909042358398, -1.413987398147583, 4.878175735473633, -3.6852707862854004, 1.1141717433929443, 
301, 3415328230, 0.59384763, -0.6086984, -0.4603068, -0.25485063, 8.562186241149902, -4.589659690856934, -1.4121686220169067, 5.002885341644287, -3.8690171241760254, 0.5184715986251831, 
302, 3415344897, 0.59404063, -0.6083894, -0.46073592, -0.25436357, 8.61974811553955, -4.571836948394775, -1.3884941339492798, 4.2020769119262695, -3.7581515312194824, 0.24258428812026978, 
303, 3415361564, 0.5941462, -0.60814315, -0.4610965, -0.2540521, 8.642521858215332, -4.496180534362793, -1.369933009147644, 3.045689344406128, -3.2153544425964355, -0.1611679196357727, 
304, 3415378231, 0.594118, -0.6079784, -0.46144593, -0.25387743, 8.609700202941895, -4.480710983276367, -1.382620930671692, 1.113851547241211, -2.835390090942383, -0.5312714576721191, 
305, 3415394898, 0.5938476, -0.6080529, -0.4616392, -0.25398052, 8.58530330657959, -4.408841133117676, -1.3270584344863892, -1.2897788286209106, -2.644754648208618, -0.8041492104530334, 
306, 3415411565, 0.5932194, -0.6084806, -0.46167922, -0.25435135, 8.592174530029297, -4.408174991607666, -1.342207908630371, -5.76001501083374, -2.423525094985962, -0.6741520166397095, 
307, 3415428232, 0.5923206, -0.60917085, -0.46161026, -0.2549184, 8.577837944030762, -4.567646026611328, -1.3737952709197998, -8.84921646118164, -2.4395594596862793, -0.6337608098983765, 
308, 3415444899, 0.5913376, -0.6099143, -0.46147546, -0.25566533, 8.55163860321045, -4.627713680267334, -1.391182541847229, -9.763986587524414, -1.9766736030578613, -1.1309034824371338, 
309, 3415461566, 0.59029275, -0.61067265, -0.46133393, -0.25652426, 8.550813674926758, -4.671595573425293, -1.4207136631011963, -10.827042579650879, -1.4991375207901, -1.5483907461166382, 
310, 3415478233, 0.5892545, -0.61137855, -0.46121013, -0.25745025, 8.535000801086426, -4.757638454437256, -1.4890116453170776, -10.932209014892578, -1.0860941410064697, -2.0175514221191406, 
311, 3415494900, 0.58821005, -0.6120535, -0.46106595, -0.2584913, 8.559152603149414, -4.783618927001953, -1.5328153371810913, -10.803478240966797, -0.728527843952179, -2.5965778827667236, 
312, 3415511567, 0.5871507, -0.6126663, -0.46095335, -0.25964648, 8.50577449798584, -4.797872066497803, -1.589066743850708, -10.680871963500977, -0.44863224029541016, -3.4648361206054688, 
313, 3415528234, 0.5860838, -0.6132332, -0.4608785, -0.26084825, 8.456485748291016, -4.8626251220703125, -1.5657215118408203, -10.76349925994873, -0.25970005989074707, -3.9458301067352295, 
314, 3415544901, 0.5850548, -0.6137159, -0.46087217, -0.2620319, 8.415009498596191, -4.892901420593262, -1.5787047147750854, -10.797552108764648, 0.05130866542458534, -4.226264476776123, 
315, 3415561568, 0.5840256, -0.6141888, -0.46086064, -0.2632373, 8.453207015991211, -5.036430358886719, -1.5942140817642212, -10.241127014160156, -0.1494501531124115, -4.452935695648193, 
316, 3415578235, 0.58324957, -0.6143551, -0.46107766, -0.26418817, 8.52966022491455, -5.087272644042969, -1.6521981954574585, -6.9018683433532715, -0.6860874891281128, -4.886992931365967, 
317, 3415594902, 0.582774, -0.6141566, -0.46152666, -0.26491463, 8.503959655761719, -4.965839862823486, -1.7269648313522339, -2.5260910987854004, -1.225375771522522, -5.694920539855957, 
318, 3415611569, 0.5825364, -0.6136316, -0.4622759, -0.2653464, 8.523608207702637, -4.80201530456543, -1.7369600534439087, 0.4457187354564667, -1.8780386447906494, -6.230956554412842, 
319, 3415628236, 0.5824424, -0.6129002, -0.4632293, -0.26558027, 8.568697929382324, -4.753656387329102, -1.8279540538787842, 2.9771244525909424, -2.7460148334503174, -6.71780252456665, 
320, 3415644903, 0.5825377, -0.611992, -0.4642622, -0.26566216, 8.469614028930664, -4.645083427429199, -1.8037530183792114, 5.782716274261475, -3.1266589164733887, -6.801916122436523, 
321, 3415661570, 0.5827201, -0.6109696, -0.46543577, -0.2655621, 8.266058921813965, -4.41770076751709, -1.6922882795333862, 7.263054370880127, -3.87054181098938, -6.840604782104492, 
322, 3415678237, 0.58257663, -0.61019814, -0.46667978, -0.26546732, 8.111491203308105, -4.206262588500977, -1.593549132347107, 5.55172872543335, -5.912515640258789, -7.05832576751709, 
323, 3415694904, 0.58205736, -0.6096707, -0.4681191, -0.26528376, 8.033721923828125, -4.211893558502197, -1.5459434986114502, 2.966700792312622, -8.361806869506836, -7.287430286407471, 
324, 3415711571, 0.5812831, -0.6094256, -0.46948114, -0.26513767, 7.958422660827637, -4.253457069396973, -1.5584924221038818, 0.6303608417510986, -9.29323959350586, -6.694906234741211, 
325, 3415728238, 0.5804326, -0.6093775, -0.4706399, -0.26505733, 7.876464366912842, -4.3025922775268555, -1.624543309211731, -1.2044119834899902, -8.729848861694336, -5.579869747161865, 
326, 3415744905, 0.5797512, -0.6092895, -0.47162905, -0.2649921, 8.046025276184082, -4.497243881225586, -1.8141758441925049, -1.2080105543136597, -7.104875087738037, -4.6464524269104, 
327, 3415761572, 0.5792606, -0.60909975, -0.47243252, -0.2650702, 8.569321632385254, -4.546319007873535, -1.9743602275848389, -0.6293936967849731, -5.043909072875977, -4.468711853027344, 
328, 3415778239, 0.57869184, -0.60909903, -0.4727919, -0.26567262, 8.987298011779785, -4.644307613372803, -2.0696918964385986, -2.7400596141815186, -2.4351913928985596, -4.5505828857421875, 
329, 3415794906, 0.5782265, -0.6090811, -0.4728597, -0.2666047, 9.235630989074707, -4.8750457763671875, -2.1911706924438477, -4.571111679077148, 0.8616561889648438, -4.350522041320801, 
330, 3415811573, 0.5778613, -0.6090263, -0.47271016, -0.2677842, 9.375605583190918, -4.834682941436768, -2.271550416946411, -5.273041248321533, 3.19411563873291, -4.349498271942139, 
331, 3415828240, 0.57735753, -0.6092377, -0.47224635, -0.269205, 9.316251754760742, -4.712235927581787, -2.1832075119018555, -8.184155464172363, 4.482421875, -3.403031826019287, 
332, 3415844907, 0.5766061, -0.6098639, -0.4715206, -0.27066574, 9.162945747375488, -4.8008294105529785, -2.177581787109375, -11.989938735961914, 4.386670112609863, -1.4659693241119385, 
333, 3415861574, 0.5759229, -0.61062604, -0.47069198, -0.2718416, 8.932225227355957, -4.954913139343262, -2.2016332149505615, -11.386682510375977, 3.508166790008545, 0.6330887079238892, 
334, 3415878241, 0.57534343, -0.61135054, -0.46990678, -0.27279735, 8.756363868713379, -4.760327339172363, -2.1552670001983643, -9.230344772338867, 2.44415020942688, 1.2106164693832397, 
335, 3415894908, 0.5746411, -0.6120845, -0.46930662, -0.27366307, 8.666851997375488, -4.7124342918396, -2.267763376235962, -9.371638298034668, 1.0477709770202637, 0.6284654140472412, 
336, 3415911575, 0.5740073, -0.61259174, -0.46898463, -0.27440932, 8.680160522460938, -4.819116592407227, -2.3243722915649414, -7.534092426300049, 0.23826858401298523, -0.6237461566925049, 
337, 3415928242, 0.57371616, -0.6125934, -0.46902603, -0.2749433, 8.631685256958008, -4.85146951675415, -2.327874183654785, -3.259549379348755, 0.23869118094444275, -2.1929984092712402, 
338, 3415944909, 0.5736196, -0.61226773, -0.4692607, -0.2754692, 8.438297271728516, -4.710698127746582, -2.245384931564331, -0.09836557507514954, 0.385810524225235, -3.8204030990600586, 
339, 3415961576, 0.57371104, -0.6116618, -0.46968478, -0.2759017, 8.303553581237793, -4.7383880615234375, -2.2312231063842773, 2.3567850589752197, 0.444911926984787, -4.786655902862549, 
340, 3415978243, 0.57408375, -0.61075914, -0.47020763, -0.27623528, 8.27178955078125, -4.657698631286621, -2.193711757659912, 5.977242946624756, 0.7577325701713562, -5.418085098266602, 
341, 3415994910, 0.5744721, -0.6097747, -0.47080037, -0.27659264, 8.221344947814941, -4.462071895599365, -2.18019700050354, 6.363597869873047, 0.8393475413322449, -6.035697937011719, 
342, 3416011577, 0.57482845, -0.6088026, -0.47139457, -0.27698165, 8.241345405578613, -4.516653537750244, -2.2007553577423096, 5.963322639465332, 0.9080663919448853, -6.167603015899658, 
343, 3416028244, 0.5752401, -0.6077553, -0.47200397, -0.27738914, 8.313779830932617, -4.458521366119385, -2.252912759780884, 5.818329811096191, 1.5686181783676147, -6.312699317932129, 
344, 3416044911, 0.57558006, -0.6068021, -0.47247866, -0.27796197, 8.37595272064209, -4.390645980834961, -2.2808406352996826, 4.460536003112793, 2.339970350265503, -6.263855457305908, 
345, 3416061578, 0.57578444, -0.6059971, -0.4727567, -0.2788206, 8.350299835205078, -4.292780876159668, -2.1870157718658447, 2.3967154026031494, 3.444505453109741, -6.442222595214844, 
346, 3416078245, 0.57579094, -0.6054199, -0.4727717, -0.28003344, 8.369422912597656, -4.256316661834717, -2.1562626361846924, -1.0108822584152222, 4.893274784088135, -6.382441997528076, 
347, 3416094912, 0.57554895, -0.6051401, -0.472491, -0.28160492, 8.478599548339844, -4.307366847991943, -2.1777565479278564, -4.429154396057129, 5.9559855461120605, -6.197315216064453, 
348, 3416111579, 0.5752396, -0.6049494, -0.47207677, -0.28333655, 8.571569442749023, -4.390161514282227, -2.161412239074707, -6.102804183959961, 6.894384384155273, -6.061491012573242, 
349, 3416128246, 0.5748552, -0.60485953, -0.47155255, -0.28517494, 8.537981986999512, -4.349908351898193, -2.162493944168091, -7.721695423126221, 7.5052876472473145, -5.777831077575684, 
350, 3416144913, 0.5743066, -0.60495543, -0.47086552, -0.28720498, 8.50843334197998, -4.400033473968506, -2.134206771850586, -9.756702423095703, 7.9164862632751465, -5.649383068084717, 
351, 3416161580, 0.573706, -0.6051189, -0.47007495, -0.2893478, 8.503344535827637, -4.454967975616455, -2.107581377029419, -10.814369201660156, 8.514750480651855, -5.552107810974121, 
352, 3416178247, 0.57311374, -0.6052691, -0.46918908, -0.29163614, 8.467950820922852, -4.499662399291992, -2.051941394805908, -11.354900360107422, 9.547724723815918, -5.769342422485352, 
353, 3416194914, 0.57260215, -0.60539746, -0.46812856, -0.29406875, 8.456177711486816, -4.613337516784668, -1.936082124710083, -11.324973106384277, 10.956975936889648, -5.61374568939209, 
354, 3416211581, 0.572365, -0.60552174, -0.4667362, -0.296478, 8.430127143859863, -4.679100513458252, -1.7329306602478027, -10.978537559509277, 13.182122230529785, -3.5687625408172607, 
355, 3416228248, 0.57253176, -0.60574013, -0.46470588, -0.2988897, 8.355096817016602, -4.68709659576416, -1.5124561786651611, -10.81104564666748, 16.72897720336914, 0.15877972543239594, 
356, 3416244915, 0.57315207, -0.6060897, -0.46192202, -0.30129737, 8.194208145141602, -4.526422500610352, -1.3787471055984497, -11.388286590576172, 21.041561126708984, 4.730309963226318, 
357, 3416261582, 0.57384896, -0.6070173, -0.4581204, -0.30389655, 7.982506275177002, -4.2630438804626465, -1.320979118347168, -15.934920310974121, 24.848854064941406, 10.174007415771484, 
358, 3416278249, 0.5743237, -0.60874647, -0.45327792, -0.30678892, 7.668713092803955, -4.053199768066406, -1.3675106763839722, -22.174280166625977, 27.365087509155273, 15.246773719787598, 
359, 3416294916, 0.57438856, -0.6111906, -0.44785428, -0.30975884, 7.260782718658447, -4.03041410446167, -1.314273715019226, -29.090526580810547, 27.618589401245117, 18.893306732177734, 
360, 3416311583, 0.5739618, -0.61438835, -0.44174904, -0.3129742, 6.855993270874023, -4.015918731689453, -1.058701515197754, -35.636390686035156, 27.907875061035156, 21.93539047241211, 
361, 3416328250, 0.5730674, -0.618279, -0.43495956, -0.31644115, 6.56559944152832, -3.962235450744629, -0.8274745345115662, -43.45028305053711, 29.13201332092285, 25.062671661376953, 
362, 3416344917, 0.571516, -0.622953, -0.42733538, -0.32044297, 6.3367919921875, -3.92523455619812, -0.8594067096710205, -52.39265441894531, 30.840896606445312, 27.343822479248047, 
363, 3416361584, 0.5694075, -0.62820154, -0.41905662, -0.3248533, 6.2272562980651855, -4.119095325469971, -1.064217209815979, -58.88579177856445, 31.880874633789062, 28.86140251159668, 
364, 3416378251, 0.56715757, -0.6334657, -0.41067684, -0.32923862, 6.211420059204102, -4.300512313842773, -1.5028655529022217, -60.37144088745117, 32.027748107910156, 29.209257125854492, 
365, 3416394918, 0.56504875, -0.6384759, -0.4024657, -0.3333016, 6.247219085693359, -4.469991683959961, -1.8378688097000122, -57.90347671508789, 31.164419174194336, 29.38210105895996, 
366, 3416411585, 0.5632738, -0.64311415, -0.39450046, -0.33689198, 6.3357415199279785, -4.550875663757324, -2.1384050846099854, -52.787574768066406, 29.764192581176758, 29.798797607421875, 
367, 3416428252, 0.56173104, -0.6474091, -0.38688955, -0.34005332, 6.4325032234191895, -4.524781703948975, -2.2530789375305176, -48.82711410522461, 28.126049041748047, 29.5353946685791, 
368, 3416444919, 0.5603763, -0.6513891, -0.37951404, -0.34298676, 6.600804328918457, -4.663400173187256, -2.350673198699951, -45.67140197753906, 27.484516143798828, 28.957727432250977, 
369, 3416461586, 0.5597134, -0.6545261, -0.37263954, -0.3456245, 6.952728748321533, -4.908152103424072, -2.4026243686676025, -37.801334381103516, 28.280487060546875, 27.333730697631836, 
370, 3416478253, 0.5597249, -0.65677184, -0.36622578, -0.3481918, 7.282809734344482, -4.795862674713135, -2.5140533447265625, -29.87750816345215, 29.96833610534668, 24.805374145507812, 
371, 3416494920, 0.55957025, -0.65871704, -0.36017564, -0.35106492, 7.660768032073975, -4.604091644287109, -2.58030366897583, -29.337114334106445, 30.268741607666016, 20.818132400512695, 
372, 3416511587, 0.5586248, -0.66087466, -0.35439497, -0.3543828, 8.097064018249512, -4.796395301818848, -2.721676826477051, -34.16420364379883, 28.803007125854492, 16.503833770751953, 
373, 3416528254, 0.5574841, -0.6628308, -0.3491014, -0.35776433, 8.477437973022461, -5.390016555786133, -2.709853172302246, -33.23629379272461, 27.272382736206055, 13.082796096801758, 
374, 3416544921, 0.5569447, -0.6639963, -0.34440383, -0.36098158, 8.753572463989258, -5.7047576904296875, -2.597195625305176, -25.554195404052734, 27.639345169067383, 10.568310737609863, 
375, 3416561588, 0.55645955, -0.66478777, -0.3399924, -0.36443818, 9.378838539123535, -5.702415466308594, -2.37060284614563, -23.725276947021484, 28.72332191467285, 7.589151382446289, 
376, 3416578255, 0.55577, -0.6652349, -0.33571112, -0.36861953, 10.318578720092773, -6.106011867523193, -2.3380656242370605, -24.642902374267578, 31.9128475189209, 2.898010492324829, 
377, 3416594922, 0.55493927, -0.66500765, -0.33190677, -0.37369126, 11.140983581542969, -6.404323577880859, -2.338721990585327, -23.550657272338867, 35.56969451904297, -4.593539237976074, 
378, 3416611589, 0.55386925, -0.6641181, -0.3287503, -0.37960425, 11.742576599121094, -6.64939546585083, -2.0991806983947754, -22.392013549804688, 38.136619567871094, -12.879308700561523, 
379, 3416628256, 0.55285245, -0.6626075, -0.32612762, -0.38593575, 11.573532104492188, -6.69141149520874, -1.7005372047424316, -19.316638946533203, 39.76560592651367, -18.167617797851562, 
380, 3416644923, 0.5519621, -0.66068006, -0.3240864, -0.39218345, 10.615287780761719, -6.470991611480713, -1.0396612882614136, -15.41102123260498, 38.567081451416016, -21.091371536254883, 
381, 3416661590, 0.55112743, -0.65860534, -0.32278162, -0.39788163, 9.720746040344238, -6.263557434082031, -0.5704171657562256, -11.41953182220459, 33.81382369995117, -22.53142738342285, 
382, 3416678257, 0.550268, -0.65654325, -0.32238474, -0.40277088, 9.506343841552734, -6.479058265686035, -0.3812097907066345, -7.287281513214111, 26.605060577392578, -23.630229949951172, 
383, 3416694924, 0.5500841, -0.653922, -0.3233812, -0.40647045, 10.389204978942871, -7.156506538391113, -0.316982626914978, 4.3722758293151855, 18.996946334838867, -24.810134887695312, 
384, 3416711591, 0.55160064, -0.65004766, -0.32603374, -0.40850547, 11.464357376098633, -7.419522285461426, -0.0993947759270668, 25.069835662841797, 12.524099349975586, -24.02385139465332, 
385, 3416728258, 0.55505204, -0.6449758, -0.33004585, -0.40864813, 11.915581703186035, -6.899707317352295, 0.3891868591308594, 46.29161834716797, 6.599152565002441, -20.199548721313477, 
386, 3416744925, 0.560078, -0.6391288, -0.33476248, -0.4071381, 11.53023910522461, -5.989260673522949, 1.0330467224121094, 61.96412658691406, 2.2938356399536133, -14.365548133850098, 
387, 3416761592, 0.5658838, -0.63326275, -0.33934763, -0.40447146, 10.540816307067871, -4.643048286437988, 1.6144378185272217, 67.76224517822266, -0.489351361989975, -7.195736885070801, 
388, 3416778259, 0.5709894, -0.62871945, -0.3429182, -0.40136048, 9.427497863769531, -3.2842631340026855, 1.832008719444275, 57.72367858886719, -3.8216514587402344, 0.10887444764375687, 
389, 3416794926, 0.57443523, -0.6265236, -0.34484226, -0.39821625, 8.617032051086426, -2.745155096054077, 1.4851218461990356, 36.851661682128906, -7.946010589599609, 8.343886375427246, 
390, 3416811593, 0.57655525, -0.6263599, -0.345417, -0.39489812, 8.12511920928955, -2.8786375522613525, 0.9342973828315735, 19.782861709594727, -12.098127365112305, 16.067983627319336, 
391, 3416828260, 0.5779257, -0.62752783, -0.3450874, -0.39131287, 7.911917686462402, -3.05055570602417, 0.40222451090812683, 9.463668823242188, -15.09877872467041, 22.17459487915039, 
392, 3416844927, 0.5788401, -0.6294869, -0.34418485, -0.387592, 7.869315147399902, -3.2292895317077637, 0.06293470412492752, 3.137072801589966, -16.640790939331055, 25.856903076171875, 
393, 3416861594, 0.57942945, -0.63182944, -0.34288388, -0.38403633, 7.881243705749512, -3.3691232204437256, -0.05355808883905411, -1.281190037727356, -16.125619888305664, 26.983795166015625, 
394, 3416878261, 0.57973194, -0.634253, -0.34127197, -0.38100857, 7.829398155212402, -3.4437971115112305, -0.1275971531867981, -4.9398345947265625, -13.482682228088379, 25.682910919189453, 
395, 3416894928, 0.5796339, -0.6366658, -0.33947793, -0.37872937, 7.68550443649292, -3.4901037216186523, -0.20107945799827576, -8.916775703430176, -10.388470649719238, 22.43545150756836, 
396, 3416911595, 0.5790992, -0.63896656, -0.33765373, -0.37730062, 7.477564334869385, -3.601767063140869, -0.3018021285533905, -12.389345169067383, -7.310108184814453, 17.79319190979004, 
397, 3416928262, 0.57838786, -0.6408069, -0.33614317, -0.37661907, 7.215240001678467, -3.805403709411621, -0.3950580656528473, -12.286231994628906, -4.477693557739258, 11.925945281982422, 
398, 3416944929, 0.57776314, -0.6418914, -0.33529449, -0.3764877, 6.835047245025635, -3.9000163078308105, -0.4070974588394165, -8.470404624938965, -2.5203676223754883, 5.305294990539551, 
399, 3416961596, 0.57725286, -0.6422116, -0.33523846, -0.37677395, 6.446767330169678, -3.9494645595550537, -0.35470327734947205, -3.8490896224975586, -1.578062653541565, -1.3167234659194946, 
400, 3416978263, 0.57694924, -0.6418951, -0.33582217, -0.3772584, 6.108300685882568, -4.123511791229248, -0.307168185710907, 0.7956010103225708, -1.1206837892532349, -5.8637213706970215, 
401, 3416994930, 0.5770407, -0.64094037, -0.33700055, -0.37769082, 5.750011444091797, -4.257471084594727, -0.29185378551483154, 6.770175933837891, -1.163226842880249, -8.743589401245117, 
402, 3417011597, 0.57771325, -0.6392802, -0.33883572, -0.3778344, 5.404999732971191, -4.1941657066345215, -0.3438281714916229, 14.483595848083496, -1.8539645671844482, -10.633917808532715, 
403, 3417028264, 0.578749, -0.6371436, -0.34135512, -0.37759003, 4.9997735023498535, -4.0495710372924805, -0.37095385789871216, 20.674144744873047, -4.204896450042725, -12.284912109375, 
404, 3417044931, 0.57984376, -0.6349046, -0.3443743, -0.3769399, 4.733297348022461, -4.067383766174316, -0.3397018015384674, 23.54146957397461, -7.541231632232666, -12.965414047241211, 
405, 3417061598, 0.58101076, -0.63260674, -0.34775463, -0.37590155, 4.73513650894165, -4.272388458251953, -0.37815868854522705, 25.953306198120117, -10.355592727661133, -12.96977424621582, 
406, 3417078265, 0.58230305, -0.6301979, -0.35138193, -0.37457255, 4.90066385269165, -4.390775203704834, -0.3737618625164032, 28.280994415283203, -12.023082733154297, -12.853271484375, 
407, 3417094932, 0.5836335, -0.6277701, -0.35502392, -0.37314186, 5.123753070831299, -4.469282150268555, -0.44678279757499695, 28.815570831298828, -12.389974594116211, -12.48574161529541, 
408, 3417111599, 0.58509743, -0.6252009, -0.35863367, -0.371708, 5.26141357421875, -4.611022472381592, -0.582298219203949, 29.862274169921875, -11.572609901428223, -12.363316535949707, 
409, 3417128266, 0.5867692, -0.62233186, -0.3623563, -0.37027425, 5.412889003753662, -4.687140464782715, -0.752997875213623, 32.263397216796875, -10.752439498901367, -13.086138725280762, 
410, 3417144933, 0.5884898, -0.61908764, -0.36659184, -0.36881018, 5.581209182739258, -4.856868743896484, -1.010759949684143, 35.01710510253906, -11.68435001373291, -15.98490047454834, 
411, 3417161600, 0.590129, -0.61536044, -0.3716844, -0.36732838, 6.35636043548584, -5.421864032745361, -1.2131353616714478, 38.84510040283203, -14.200697898864746, -21.016416549682617, 
412, 3417178267, 0.59227985, -0.61048573, -0.37778625, -0.36577258, 8.14118480682373, -6.3704071044921875, -1.4119782447814941, 48.77643585205078, -14.581465721130371, -26.673107147216797, 
413, 3417194934, 0.5959982, -0.60356987, -0.38482317, -0.36386904, 10.841256141662598, -6.960499286651611, -1.0605782270431519, 66.5608139038086, -10.447339057922363, -30.56674575805664, 
414, 3417211601, 0.6017004, -0.5945206, -0.39188793, -0.3618366, 13.674776077270508, -6.192249774932861, -0.26429417729377747, 83.94939422607422, -0.5093741416931152, -30.860639572143555, 
415, 3417228268, 0.6081832, -0.5846519, -0.3979859, -0.36042014, 14.594441413879395, -4.2103753089904785, 0.4762738049030304, 86.46665954589844, 10.135150909423828, -29.709936141967773, 
416, 3417244935, 0.613622, -0.57615644, -0.402596, -0.35976154, 13.747758865356445, -2.7780673503875732, 0.769355058670044, 70.7640151977539, 13.121892929077148, -25.672407150268555, 
417, 3417261602, 0.61705524, -0.57041734, -0.40585968, -0.3593675, 12.653260231018066, -2.2874011993408203, 0.7273074388504028, 47.12268829345703, 7.4631547927856445, -18.71538543701172, 
418, 3417278269, 0.61851573, -0.56767464, -0.40816495, -0.35858825, 13.133445739746094, -2.6468687057495117, 0.533667266368866, 25.376893997192383, -2.9010815620422363, -9.767672538757324, 
419, 3417294936, 0.6185494, -0.5672976, -0.4095586, -0.3575361, 15.117030143737793, -3.2852954864501953, 0.10835456848144531, 8.265266418457031, -9.928805351257324, -1.8662446737289429, 
420, 3417311603, 0.6181697, -0.5680797, -0.41009995, -0.35632807, 16.693267822265625, -3.855635643005371, -0.034246839582920074, 0.06752151995897293, -10.920849800109863, 4.434040069580078, 
421, 3417328270, 0.6179965, -0.5690943, -0.40999052, -0.35513404, 16.5687255859375, -3.8289597034454346, 0.09438556432723999, -1.7450838088989258, -8.078851699829102, 8.144170761108398, 
422, 3417344937, 0.6178825, -0.570193, -0.40960196, -0.35401592, 14.943709373474121, -3.4715569019317627, 0.23431330919265747, -2.7635858058929443, -6.6297607421875, 9.362348556518555, 
423, 3417361604, 0.6175975, -0.5714394, -0.40918168, -0.35298845, 12.976546287536621, -2.9428539276123047, 0.3367830216884613, -4.394321918487549, -6.977684020996094, 9.160188674926758, 
424, 3417378271, 0.6163492, -0.57372767, -0.408551, -0.35218826, 11.04188060760498, -2.3834645748138428, 0.3329225778579712, -13.753232955932617, -10.432759284973145, 9.666522026062012, 
425, 3417394938, 0.613698, -0.57762235, -0.40744576, -0.3517318, 9.669768333435059, -2.4516656398773193, 0.11506729573011398, -28.20926284790039, -14.898659706115723, 11.245052337646484, 
426, 3417411605, 0.6103116, -0.5823423, -0.40609017, -0.35140905, 8.897436141967773, -2.977085828781128, -0.11452443152666092, -35.59081268310547, -17.367984771728516, 12.242437362670898, 
427, 3417428272, 0.6070644, -0.58692676, -0.40464017, -0.3510788, 8.30606460571289, -3.2434277534484863, -0.2368960976600647, -34.670005798339844, -16.28668212890625, 12.629226684570312, 
428, 3417444939, 0.6040767, -0.5911463, -0.40309313, -0.35093194, 7.702126502990723, -3.244107484817505, -0.3048594892024994, -32.84172821044922, -13.536059379577637, 11.877699851989746, 
429, 3417461606, 0.60115236, -0.59514374, -0.40141296, -0.35112324, 7.145201683044434, -3.1557328701019287, -0.3738862872123718, -32.918434143066406, -10.897150993347168, 10.556865692138672, 
430, 3417478273, 0.59829724, -0.59889156, -0.39966062, -0.351626, 6.644561290740967, -3.2001469135284424, -0.3617883026599884, -32.635135650634766, -8.52927017211914, 9.045157432556152, 
431, 3417494940, 0.5956061, -0.60224634, -0.39796907, -0.35238263, 6.15305757522583, -3.1676578521728516, -0.29669734835624695, -30.89354705810547, -6.332403659820557, 7.066076278686523, 
432, 3417511607, 0.5931132, -0.60532624, -0.39618927, -0.35331464, 5.718958854675293, -3.241631031036377, -0.22858932614326477, -29.63985252380371, -4.036945343017578, 6.4375104904174805, 
433, 3417528274, 0.59078777, -0.60824275, -0.39421514, -0.35440823, 5.406540393829346, -3.191859006881714, -0.17974641919136047, -29.18952751159668, -1.721358060836792, 6.539333343505859, 
434, 3417544941, 0.5888406, -0.610826, -0.39207307, -0.3555802, 5.10402250289917, -3.30304217338562, -0.322781503200531, -26.877180099487305, 1.1226012706756592, 6.931756496429443, 
435, 3417561608, 0.5875225, -0.61288375, -0.38985485, -0.3566572, 5.030210971832275, -3.417018413543701, -0.41318467259407043, -22.039552688598633, 4.01331901550293, 7.742009162902832, 
436, 3417578275, 0.58675367, -0.6145053, -0.38741466, -0.35778975, 5.205358028411865, -3.265199899673462, -0.4576568901538849, -18.656871795654297, 7.686301231384277, 8.615442276000977, 
437, 3417594942, 0.5861803, -0.61594146, -0.38461077, -0.3592816, 5.4969916343688965, -3.142664909362793, -0.5762342214584351, -18.934762954711914, 11.650182723999023, 8.677170753479004, 
438, 3417611609, 0.5856359, -0.6173336, -0.38139144, -0.36120698, 5.888445854187012, -3.1270511150360107, -0.5873844623565674, -20.806453704833984, 15.34937858581543, 8.636373519897461, 
439, 3417628276, 0.58486605, -0.61893684, -0.3776635, -0.36361974, 6.267088890075684, -2.9706051349639893, -0.6729214787483215, -25.153759002685547, 18.35329818725586, 8.822819709777832, 
440, 3417644943, 0.58381104, -0.6208364, -0.37345186, -0.3664158, 6.72637414932251, -3.198590040206909, -0.7220274806022644, -29.760011672973633, 20.453420639038086, 9.399630546569824, 
441, 3417661610, 0.58265793, -0.62273973, -0.36900836, -0.36951035, 7.303073883056641, -3.22068452835083, -0.716787576675415, -31.54175567626953, 22.400922775268555, 8.95507526397705, 
442, 3417678277, 0.5812753, -0.62477934, -0.3641973, -0.37300152, 7.607663154602051, -3.253025770187378, -0.6097195148468018, -35.00856018066406, 24.64699363708496, 8.710176467895508, 
443, 3417694944, 0.5794889, -0.6271513, -0.35880196, -0.37700817, 7.4618964195251465, -3.3173420429229736, -0.5230675935745239, -40.85844802856445, 27.33673095703125, 8.965425491333008, 
444, 3417711611, 0.57697916, -0.63002044, -0.35304895, -0.38147858, 7.593664169311523, -3.533003568649292, -0.6871877312660217, -48.028236389160156, 27.689550399780273, 8.020147323608398, 
445, 3417728278, 0.57380056, -0.6330226, -0.34744272, -0.38641807, 8.632681846618652, -4.169859886169434, -1.0819172859191895, -52.204986572265625, 27.169876098632812, 4.096410274505615, 
446, 3417744945, 0.57028896, -0.6357149, -0.34231213, -0.39173925, 10.370950698852539, -5.0245747566223145, -1.4265601634979248, -52.07432556152344, 26.99114990234375, -1.1017436981201172, 
447, 3417761612, 0.5671458, -0.63730395, -0.3380271, -0.39740068, 12.387207984924316, -5.63986349105835, -1.4430710077285767, -44.65547180175781, 29.013927459716797, -7.730911731719971, 
448, 3417778279, 0.5647411, -0.63745373, -0.33473757, -0.403325, 13.231548309326172, -5.553872585296631, -1.0919764041900635, -33.692359924316406, 31.945222854614258, -14.435294151306152, 
449, 3417794946, 0.5623837, -0.63674456, -0.3323734, -0.4096447, 12.565211296081543, -5.177013874053955, -0.510608971118927, -28.489765167236328, 32.582618713378906, -21.854511260986328, 
450, 3417811613, 0.5593542, -0.6359703, -0.33075923, -0.41624886, 12.499412536621094, -5.575930118560791, -0.2773513197898865, -29.718320846557617, 29.574562072753906, -28.262866973876953, 
451, 3417828280, 0.5563464, -0.63446903, -0.3304872, -0.4227363, 14.232497215270996, -6.598323822021484, -0.5676547884941101, -22.72347640991211, 26.029582977294922, -35.266109466552734, 
452, 3417844947, 0.554593, -0.6312226, -0.33221912, -0.42850342, 16.37240219116211, -7.354000568389893, -0.2884678542613983, -3.115771532058716, 23.1468505859375, -41.570945739746094, 
453, 3417861614, 0.55489284, -0.62604135, -0.3357506, -0.43294078, 15.506756782531738, -6.540858745574951, 0.6399289965629578, 21.509502410888672, 20.902807235717773, -42.677825927734375, 
454, 3417878281, 0.55592054, -0.62075406, -0.33999875, -0.43591028, 12.394235610961914, -5.432614803314209, 1.6284195184707642, 30.562931060791016, 13.834663391113281, -38.23516082763672, 
455, 3417894948, 0.55714476, -0.6160322, -0.34447798, -0.43752584, 10.090785026550293, -4.821854114532471, 2.1171092987060547, 33.08491516113281, 5.912992000579834, -32.136810302734375, 
456, 3417911615, 0.55846876, -0.6121985, -0.34895238, -0.43767366, 8.970139503479004, -4.728859901428223, 1.9622163772583008, 33.5528450012207, -2.7530484199523926, -24.10010528564453, 
457, 3417928282, 0.55924076, -0.6102413, -0.3525148, -0.4365648, 9.325559616088867, -4.298429489135742, 1.6336402893066406, 24.282188415527344, -11.541105270385742, -12.6099271774292, 
458, 3417944949, 0.55845386, -0.6111057, -0.3539579, -0.43519345, 9.674666404724121, -3.8520283699035645, 1.1901649236679077, 1.1593725681304932, -16.763391494750977, -0.5566476583480835, 
459, 3417961616, 0.5561891, -0.61442184, -0.35319147, -0.43404534, 9.373115539550781, -4.302382469177246, 0.8273328542709351, -21.6253604888916, -18.291948318481445, 9.414669036865234, 
460, 3417978283, 0.55375695, -0.6185918, -0.351051, -0.43296736, 9.101272583007812, -5.248591423034668, 0.6632718443870544, -29.87362289428711, -15.708565711975098, 16.515644073486328, 
461, 3417994950, 0.55269575, -0.6215454, -0.34906954, -0.43169367, 8.567132949829102, -5.4453277587890625, 0.7075682282447815, -18.470083236694336, -10.227831840515137, 17.705766677856445, 
462, 3418011617, 0.5522543, -0.62356687, -0.347371, -0.43071198, 7.847595691680908, -4.607198715209961, 0.7534762620925903, -12.148774147033691, -5.8130669593811035, 14.960341453552246, 
463, 3418028284, 0.5514797, -0.6254817, -0.34575236, -0.4302303, 7.102864742279053, -4.371657848358154, 0.49178409576416016, -14.136026382446289, -4.465489864349365, 11.457502365112305, 
464, 3418044951, 0.5511135, -0.6267138, -0.34475273, -0.4297085, 6.5169782638549805, -4.375442028045654, 0.0829060897231102, -7.8698906898498535, -4.003433704376221, 8.513299942016602, 
465, 3418061618, 0.5515513, -0.6270069, -0.34460038, -0.42884076, 6.072563171386719, -4.237866401672363, -0.2233351320028305, 2.473015308380127, -4.028250694274902, 6.298990249633789, 
466, 3418078285, 0.5529094, -0.6265324, -0.34515458, -0.42733726, 5.655734539031982, -4.208147048950195, -0.39781439304351807, 12.93905258178711, -5.001766681671143, 6.535155773162842, 
467, 3418094952, 0.5550842, -0.62543243, -0.34632418, -0.42517713, 5.290690898895264, -3.9418890476226807, -0.4260542392730713, 22.201576232910156, -6.390138626098633, 7.270838737487793, 
468, 3418111619, 0.55756265, -0.6241537, -0.3479062, -0.42251322, 4.999666690826416, -3.6449155807495117, -0.5050057768821716, 26.594572067260742, -8.880461692810059, 7.860414028167725, 
469, 3418128286, 0.56009364, -0.6228627, -0.3497642, -0.41952622, 5.038570880889893, -3.526616096496582, -0.4442331790924072, 28.44329261779785, -11.158186912536621, 8.017784118652344, 
470, 3418144953, 0.5625801, -0.6216109, -0.35175687, -0.41637832, 5.298488616943359, -3.4398841857910156, -0.4608657956123352, 28.877552032470703, -12.581748962402344, 8.010127067565918, 
471, 3418161620, 0.5650652, -0.62029546, -0.3539093, -0.41313824, 5.550037860870361, -3.499073028564453, -0.5116685032844543, 29.798538208007812, -13.409682273864746, 7.512112140655518, 
472, 3418178287, 0.56755334, -0.61884576, -0.35622147, -0.4099017, 5.7357940673828125, -3.492158889770508, -0.4804340600967407, 30.78034782409668, -13.620952606201172, 6.487780570983887, 
473, 3418194954, 0.570022, -0.6173481, -0.3584638, -0.40676805, 6.01202392578125, -3.539705991744995, -0.4843771755695343, 30.437259674072266, -12.818259239196777, 6.19935417175293, 
474, 3418211621, 0.57241327, -0.6158774, -0.36039802, -0.40392014, 6.369762897491455, -3.4586238861083984, -0.5611656904220581, 28.43773651123047, -10.660539627075195, 6.227652072906494, 
475, 3418228288, 0.57452893, -0.61457, -0.36200154, -0.40146628, 6.766287326812744, -3.4019148349761963, -0.5064749717712402, 24.735469818115234, -8.821331024169922, 5.711243629455566, 
476, 3418244955, 0.5761577, -0.6135555, -0.36334357, -0.3994663, 7.23825216293335, -3.4918506145477295, -0.4879135191440582, 19.67087173461914, -7.886252403259277, 4.405308246612549, 
477, 3418261622, 0.57738376, -0.612725, -0.36461133, -0.3978124, 8.243755340576172, -3.891981840133667, -0.5059376358985901, 16.177427291870117, -7.637190818786621, 2.7015089988708496, 
478, 3418278289, 0.57863045, -0.6115715, -0.3660942, -0.3964119, 9.74190616607666, -4.434652805328369, -0.4948214590549469, 17.502647399902344, -6.484541416168213, 0.03504462167620659, 
479, 3418294956, 0.58045834, -0.6095769, -0.36800683, -0.39503813, 11.42229175567627, -4.901976585388184, -0.2399313896894455, 24.397872924804688, -4.3223958015441895, -2.407855272293091, 
480, 3418311623, 0.58317935, -0.60671043, -0.3701576, -0.39343074, 12.339044570922852, -4.694885730743408, 0.0990256518125534, 32.85981750488281, -1.6239153146743774, -2.2469849586486816, 
481, 3418328290, 0.5862138, -0.60357076, -0.37244916, -0.39158323, 12.621847152709961, -4.232337951660156, 0.46283870935440063, 36.253299713134766, -1.6568162441253662, -1.7035853862762451, 
482, 3418344957, 0.5892566, -0.6005108, -0.37475812, -0.3895126, 13.17284870147705, -4.019669532775879, 0.6964439749717712, 36.58353805541992, -2.8550097942352295, -0.6258620619773865, 
483, 3418361624, 0.59230936, -0.59768856, -0.37685043, -0.3871974, 13.791826248168945, -3.8969924449920654, 0.7593272924423218, 35.7082405090332, -3.6067070960998535, 1.9288051128387451, 
484, 3418378291, 0.5950061, -0.59535456, -0.37868756, -0.384859, 14.891305923461914, -4.038044452667236, 0.6279606819152832, 31.634920120239258, -4.8942461013793945, 3.4246418476104736, 
485, 3418394958, 0.5978047, -0.5929425, -0.38048214, -0.38246864, 16.34387969970703, -4.407405376434326, 0.5066830515861511, 32.393123626708984, -4.466385364532471, 3.918200731277466, 
486, 3418411625, 0.6012214, -0.5900477, -0.38206342, -0.38000545, 16.332395553588867, -3.8612794876098633, 0.7415574789047241, 36.525569915771484, -1.0034592151641846, 5.491946220397949, 
487, 3418428292, 0.604163, -0.5878847, -0.38277403, -0.37797207, 14.671204566955566, -2.7367682456970215, 1.080794334411621, 28.168170928955078, 1.1744033098220825, 7.979679584503174, 
488, 3418444959, 0.6055384, -0.5875052, -0.38232902, -0.37680966, 12.800165176391602, -1.9952013492584229, 1.1323106288909912, 9.1300048828125, 0.7315183877944946, 9.710760116577148, 
489, 3418461626, 0.60503834, -0.58924633, -0.38085142, -0.37639034, 11.15134334564209, -1.8090929985046387, 0.919773280620575, -11.906997680664062, -2.401987075805664, 11.555840492248535, 
490, 3418478293, 0.60267705, -0.59313536, -0.3784542, -0.3764881, 10.005243301391602, -2.0652801990509033, 0.6193591356277466, -32.118751525878906, -6.920454025268555, 13.98147964477539, 
491, 3418494960, 0.5990046, -0.59848446, -0.3754455, -0.37689584, 9.31602668762207, -2.713550090789795, 0.2975330054759979, -45.907012939453125, -10.321418762207031, 15.628870010375977, 
492, 3418511627, 0.59500533, -0.60409737, -0.3722965, -0.3773997, 8.925760269165039, -3.317203998565674, 0.09836207330226898, -48.947818756103516, -10.879764556884766, 15.661863327026367, 
493, 3418528294, 0.59127283, -0.60918885, -0.3692598, -0.37806416, 8.479586601257324, -3.6431596279144287, -0.014045268297195435, -45.827003479003906, -8.639516830444336, 13.905024528503418, 
494, 3418544961, 0.5881124, -0.6133748, -0.36643615, -0.37897187, 7.891523361206055, -3.873274803161621, -0.10791223496198654, -39.81180953979492, -4.684488296508789, 11.214645385742188, 
495, 3418561628, 0.5856216, -0.61651474, -0.36404544, -0.3800369, 7.273698806762695, -3.9265103340148926, -0.1750040054321289, -32.02726364135742, -1.3596168756484985, 7.857460975646973, 
496, 3418578295, 0.5838105, -0.61852694, -0.3621838, -0.3813303, 6.679866313934326, -3.8316843509674072, -0.20509468019008636, -23.794580459594727, 2.124161720275879, 3.640923261642456, 
497, 3418594962, 0.5825781, -0.61951345, -0.36079413, -0.3829276, 6.237388610839844, -3.8545219898223877, -0.34099477529525757, -16.735265731811523, 5.651301383972168, -0.6326215267181396, 
498, 3418611629, 0.5821396, -0.6195105, -0.35976228, -0.38456687, 6.030415058135986, -3.9768693447113037, -0.6476561427116394, -8.552162170410156, 8.97458553314209, -2.7027173042297363, 
499, 3418628296, 0.582478, -0.61886436, -0.35889444, -0.38590294, 5.872028827667236, -3.746849536895752, -0.8650845289230347, -1.484884262084961, 10.656777381896973, -1.7397689819335938, 
500, 3418644963, 0.5828134, -0.6184847, -0.3578778, -0.386948, 5.696710109710693, -3.485412836074829, -1.0110024213790894, -2.235067129135132, 9.307318687438965, 0.6956090927124023, 
501, 3418661630, 0.5830992, -0.6184455, -0.3567359, -0.387634, 5.75216817855835, -3.7264649868011475, -1.2078633308410645, -3.255797863006592, 7.266318321228027, 3.361354112625122, 
502, 3418678297, 0.5840151, -0.618011, -0.35579407, -0.3878137, 5.942746162414551, -3.892338275909424, -1.3309892416000366, 2.7864253520965576, 6.926539897918701, 5.2364983558654785, 
503, 3418694964, 0.5854844, -0.61722547, -0.35495698, -0.3876164, 6.165897846221924, -3.6270673274993896, -1.3506991863250732, 7.757610321044922, 7.209652423858643, 6.90707540512085, 
504, 3418711631, 0.586861, -0.6167083, -0.35378483, -0.38742906, 6.313259124755859, -3.254408597946167, -1.3578667640686035, 5.37642240524292, 7.674715042114258, 8.688657760620117, 
505, 3418728298, 0.5874759, -0.6170141, -0.35207728, -0.38756627, 6.399476051330566, -3.049903631210327, -1.4604374170303345, -3.387883186340332, 7.184500217437744, 9.61806583404541, 
506, 3418744965, 0.5871451, -0.61833864, -0.34980297, -0.3880155, 6.583166599273682, -3.202676773071289, -1.510686993598938, -13.771016120910645, 5.812917232513428, 10.707240104675293, 
507, 3418761632, 0.58615535, -0.62052023, -0.3469965, -0.38854867, 6.809819221496582, -3.4910073280334473, -1.5272717475891113, -21.63919448852539, 4.460186004638672, 12.934435844421387, 
508, 3418778299, 0.5849432, -0.6232006, -0.34380972, -0.3889184, 6.966693878173828, -3.6979732513427734, -1.387898325920105, -25.215858459472656, 3.4492669105529785, 15.807560920715332, 
509, 3418794966, 0.5836938, -0.62619275, -0.3402992, -0.3890768, 6.926706790924072, -3.7129199504852295, -1.1675034761428833, -26.986783981323242, 2.938652276992798, 18.679176330566406, 
510, 3418811633, 0.5820937, -0.6298347, -0.33636233, -0.38901883, 6.867450714111328, -3.627955198287964, -0.8498616814613342, -31.74636459350586, 1.1782734394073486, 21.961652755737305, 
511, 3418828300, 0.57991046, -0.63438314, -0.33186162, -0.38875434, 6.97845983505249, -3.827512502670288, -0.7333469986915588, -38.91844177246094, -1.2298351526260376, 25.765546798706055, 
512, 3418844967, 0.5773858, -0.63945156, -0.32719034, -0.38816756, 7.328314304351807, -4.285930633544922, -0.8083571195602417, -42.19260787963867, -4.122593402862549, 28.065608978271484, 
513, 3418861634, 0.57430327, -0.6448289, -0.32273453, -0.38757464, 8.5963134765625, -4.957184314727783, -0.8930579423904419, -45.281551361083984, -7.079508304595947, 26.3432559967041, 
514, 3418878301, 0.5712112, -0.64960515, -0.31911182, -0.38716742, 10.45561408996582, -6.163715839385986, -0.9887242913246155, -41.13786697387695, -7.960384845733643, 20.55560874938965, 
515, 3418894968, 0.5695525, -0.6522316, -0.31701228, -0.38692027, 12.262284278869629, -6.933394908905029, -0.4943522810935974, -22.58673858642578, -4.356961250305176, 12.217920303344727, 
516, 3418911635, 0.56955117, -0.65228677, -0.31635442, -0.38736737, 12.801429748535156, -6.465426445007324, 0.3907037675380707, -2.7662482261657715, 3.560837507247925, 1.8397537469863892, 
517, 3418928302, 0.5698777, -0.6510495, -0.31638026, -0.38894415, 11.974560737609863, -5.854011535644531, 1.0172020196914673, 3.1230671405792236, 10.090916633605957, -7.5787506103515625, 
518, 3418944969, 0.56966454, -0.6493872, -0.31700534, -0.3915178, 11.272642135620117, -5.822847366333008, 0.8743659257888794, 1.7964580059051514, 12.148575782775879, -16.523237228393555, 
519, 3418961636, 0.56871736, -0.64705, -0.31908825, -0.3950566, 12.57916259765625, -6.9014506340026855, 0.2209457904100418, 2.9718847274780273, 10.94919490814209, -30.25251579284668, 
520, 3418978303, 0.5690238, -0.64224607, -0.32353726, -0.39881805, 14.915718078613281, -8.325909614562988, 0.008592266589403152, 24.129093170166016, 12.130355834960938, -43.65584945678711, 
521, 3418994970, 0.5727075, -0.6334577, -0.330431, -0.4019368, 15.644407272338867, -8.086383819580078, 0.7972696423530579, 62.76138687133789, 18.15953826904297, -51.54399490356445, 
522, 3419011637, 0.5778088, -0.62296474, -0.33786914, -0.40484118, 13.7236328125, -6.099201202392578, 1.6697863340377808, 77.62964630126953, 23.003145217895508, -53.02291488647461, 
523, 3419028304, 0.58278537, -0.6126841, -0.3445096, -0.40778986, 11.660921096801758, -4.873693943023682, 2.1968741416931152, 73.91573333740234, 25.464651107788086, -49.62523651123047, 
524, 3419044971, 0.58709985, -0.60326326, -0.35005468, -0.41091263, 9.902328491210938, -3.6633079051971436, 2.291966676712036, 64.18785095214844, 26.586231231689453, -45.51631164550781, 
525, 3419061638, 0.5894973, -0.5962274, -0.3539445, -0.41440204, 9.00477409362793, -3.0861244201660156, 1.7981950044631958, 41.03779983520508, 23.418302536010742, -39.79448699951172, 
526, 3419078305, 0.5901601, -0.5917185, -0.35631397, -0.4178764, 8.945956230163574, -3.334231376647949, 1.1634418964385986, 19.381418228149414, 18.081193923950195, -32.2809944152832, 
527, 3419094972, 0.59032714, -0.58860856, -0.35783654, -0.42072198, 8.89529800415039, -3.690425157546997, 0.5975993275642395, 10.795178413391113, 13.71764850616455, -24.275476455688477, 
528, 3419111639, 0.5906884, -0.5861513, -0.3588768, -0.42275468, 8.68098258972168, -3.562943458557129, 0.526486873626709, 9.530545234680176, 10.977806091308594, -16.85700035095215, 
529, 3419128306, 0.59088576, -0.5845973, -0.35911825, -0.42442223, 8.480575561523438, -3.144996166229248, 0.671980619430542, 3.7873458862304688, 9.719149589538574, -10.401747703552246, 
530, 3419144973, 0.59030426, -0.58438396, -0.35824397, -0.42626005, 8.092310905456543, -2.8961946964263916, 0.7048947215080261, -8.463529586791992, 9.099832534790039, -5.569472312927246, 
531, 3419161640, 0.5887568, -0.58542013, -0.35648736, -0.42844576, 7.45495080947876, -2.938154935836792, 0.709175705909729, -20.863513946533203, 8.037067413330078, -3.185687780380249, 
532, 3419178307, 0.58652854, -0.5872403, -0.3542665, -0.43084633, 6.894844055175781, -3.2606117725372314, 0.605614185333252, -28.642642974853516, 6.787968635559082, -2.2698557376861572, 
533, 3419194974, 0.584218, -0.5892065, -0.352043, -0.43311772, 6.387578010559082, -3.6112611293792725, 0.46823960542678833, -29.279184341430664, 5.649084091186523, -1.634530782699585, 
534, 3419211641, 0.5822658, -0.5908361, -0.3502541, -0.4349726, 5.854176998138428, -3.8097922801971436, 0.38281309604644775, -24.167821884155273, 4.083217144012451, -1.483567476272583, 
535, 3419228308, 0.58076775, -0.59202117, -0.34902406, -0.4363509, 5.453222274780273, -3.970104217529297, 0.3502623736858368, -17.735031127929688, 2.336437702178955, -1.5781151056289673, 
536, 3419244975, 0.5797931, -0.59268624, -0.34841743, -0.43722817, 5.4027485847473145, -4.185924530029297, 0.28258803486824036, -10.446027755737305, 0.6203206181526184, -1.8125983476638794, 
537, 3419261642, 0.5795184, -0.59266275, -0.34850442, -0.4375545, 5.566532611846924, -4.367814064025879, 0.16119122505187988, -1.4566582441329956, -0.6384477019309998, -2.01267147064209, 
538, 3419278309, 0.58006436, -0.59180284, -0.34926715, -0.43738696, 5.835278511047363, -4.415966510772705, 0.14738237857818604, 8.439693450927734, -0.8582624197006226, -2.358308792114258, 
539, 3419294976, 0.581373, -0.5900557, -0.35070324, -0.43686062, 6.021757125854492, -4.336774826049805, 0.13541747629642487, 17.96770477294922, -0.4995890259742737, -3.528012275695801, 
540, 3419311643, 0.58327967, -0.5875774, -0.35259345, -0.43613735, 6.254396915435791, -4.113906383514404, 0.17698557674884796, 25.160327911376953, 0.5239665508270264, -4.569072723388672, 
541, 3419328310, 0.58550173, -0.5846816, -0.35461482, -0.4354122, 6.326172828674316, -3.7778513431549072, 0.23061305284500122, 28.509239196777344, 2.0108652114868164, -5.1767258644104, 
542, 3419344977, 0.5876504, -0.58172584, -0.35656515, -0.4348833, 6.335926532745361, -3.439971685409546, 0.3112095296382904, 27.753414154052734, 3.094374656677246, -6.060391426086426, 
543, 3419361644, 0.5894455, -0.5790854, -0.35820588, -0.43462956, 6.430747032165527, -3.3342080116271973, 0.26137274503707886, 23.478139877319336, 3.634110689163208, -6.226395606994629, 
544, 3419378311, 0.5908603, -0.5768733, -0.35956395, -0.4345285, 6.724959850311279, -3.394747734069824, 0.21460479497909546, 18.9989070892334, 3.177727460861206, -5.809532165527344, 
545, 3419394978, 0.59200656, -0.5749371, -0.36088938, -0.43443564, 7.075850486755371, -3.5123138427734375, 0.20221632719039917, 16.714319229125977, 1.8516526222229004, -5.840366840362549, 
546, 3419411645, 0.5930196, -0.5730855, -0.36232975, -0.43430197, 7.6003499031066895, -3.7525367736816406, 0.19965454936027527, 16.310909271240234, 0.6372126936912537, -6.322630405426025, 
547, 3419428312, 0.59389895, -0.5713134, -0.36387166, -0.43414575, 8.723566055297852, -4.164664268493652, 0.2451028823852539, 15.8052339553833, -0.4253121316432953, -6.840966701507568, 
548, 3419444979, 0.59510565, -0.5691742, -0.36553356, -0.43390706, 10.333930969238281, -4.5066938400268555, 0.3618660271167755, 19.143280029296875, 0.6883934736251831, -6.926010608673096, 
549, 3419461646, 0.5969271, -0.5664029, -0.36733738, -0.43350807, 11.483914375305176, -4.163860321044922, 0.7031989097595215, 24.98256492614746, 2.9094111919403076, -6.584400177001953, 
550, 3419478313, 0.598549, -0.56397444, -0.3689067, -0.43310493, 11.905502319335938, -3.6694979667663574, 1.0020387172698975, 22.115446090698242, 2.333378553390503, -5.378215312957764, 
551, 3419494980, 0.5996335, -0.5622717, -0.3703766, -0.43256402, 12.506063461303711, -3.9226274490356445, 1.0249587297439575, 17.053892135620117, -1.2940701246261597, -4.180380821228027, 
552, 3419511647, 0.60097086, -0.56049407, -0.3722264, -0.4314258, 13.362996101379395, -4.189017295837402, 1.0754668712615967, 20.997779846191406, -4.302364349365234, -2.6156373023986816, 
553, 3419528314, 0.60246295, -0.55854684, -0.3745666, -0.4298416, 15.077035903930664, -4.529626369476318, 1.0347881317138672, 24.911296844482422, -7.152593612670898, -2.6246931552886963, 
554, 3419544981, 0.6046819, -0.5558813, -0.37740356, -0.42769414, 18.041616439819336, -4.9418625831604, 1.197899580001831, 33.62760543823242, -7.3832621574401855, -1.8853200674057007, 
555, 3419561648, 0.6085535, -0.5516017, -0.3805557, -0.42494208, 18.675708770751953, -3.7986843585968018, 1.7151426076889038, 49.16485595703125, -1.9656633138656616, 0.11536696553230286, 
556, 3419578315, 0.6119716, -0.54811424, -0.38272807, -0.4225884, 14.967844009399414, -1.8406516313552856, 2.450507164001465, 40.19966125488281, 0.15899814665317535, 2.944472074508667, 
557, 3419594982, 0.6131575, -0.5474485, -0.38355717, -0.42097732, 11.963143348693848, -1.6010936498641968, 2.365607500076294, 13.809969902038574, -5.374656677246094, 5.8362555503845215, 
558, 3419611649, 0.61278224, -0.54910654, -0.38370574, -0.4192255, 10.72375774383545, -2.313544273376465, 1.5914790630340576, -3.345021963119507, -13.932580947875977, 10.64440631866455, 
559, 3419628316, 0.61172706, -0.5522255, -0.3835734, -0.41678348, 10.48050594329834, -2.655644416809082, 1.263553500175476, -10.912030220031738, -21.419824600219727, 16.539165496826172, 
560, 3419644983, 0.61010283, -0.5564033, -0.38311026, -0.4140248, 10.390515327453613, -2.9797627925872803, 1.1318199634552002, -17.72900390625, -25.73102569580078, 20.293201446533203, 
561, 3419661650, 0.60834473, -0.5608209, -0.38255656, -0.41115353, 10.101865768432617, -3.5374112129211426, 0.9716057777404785, -19.188329696655273, -26.82548713684082, 21.37346839904785, 
562, 3419678317, 0.6070011, -0.56454724, -0.3821872, -0.40837377, 9.568665504455566, -3.7687125205993652, 0.866531252861023, -14.356656074523926, -24.226041793823242, 19.641687393188477, 
563, 3419694984, 0.6061816, -0.5674289, -0.38192853, -0.4058313, 8.76205062866211, -3.6358256340026855, 0.7949461340904236, -9.276254653930664, -19.947341918945312, 17.461898803710938, 
564, 3419711651, 0.6054375, -0.5698669, -0.38155136, -0.40387592, 7.650829792022705, -3.201566696166992, 0.6919274926185608, -8.692864418029785, -15.864217758178711, 14.53892993927002, 
565, 3419728318, 0.60444885, -0.5722764, -0.38095784, -0.40250763, 6.583312034606934, -3.0933094024658203, 0.5650805830955505, -11.943899154663086, -13.109355926513672, 12.171231269836426, 
566, 3419744985, 0.6034202, -0.5745984, -0.38023135, -0.4014286, 5.788069248199463, -3.260807752609253, 0.31992107629776, -12.764914512634277, -11.325607299804688, 11.153225898742676, 
567, 3419761652, 0.60276043, -0.5764851, -0.37957606, -0.40033326, 5.315654754638672, -3.4054808616638184, 0.13893823325634003, -9.282230377197266, -9.510722160339355, 10.808294296264648, 
568, 3419778319, 0.6028767, -0.57766706, -0.37902024, -0.39897922, 5.119770526885986, -3.514087677001953, -0.0068713645450770855, -2.289315700531006, -7.002401351928711, 11.771163940429688, 
569, 3419794986, 0.6039574, -0.5780733, -0.3785413, -0.397207, 5.119088172912598, -3.459407091140747, -0.14473745226860046, 6.013859748840332, -4.318278789520264, 13.807657241821289, 
570, 3419811653, 0.6058917, -0.57780135, -0.37811103, -0.39506066, 5.258630752563477, -3.225830316543579, -0.31874746084213257, 13.439817428588867, -1.9785583019256592, 15.72301197052002, 
571, 3419828320, 0.60824937, -0.57724583, -0.37758726, -0.39274418, 5.473212242126465, -2.8409345149993896, -0.32769113779067993, 16.39011573791504, -0.3412898778915405, 17.20250129699707, 
572, 3419844987, 0.61065805, -0.5767972, -0.3767146, -0.39049718, 5.7777628898620605, -2.5520031452178955, -0.24654865264892578, 14.962115287780762, 1.2759567499160767, 18.704343795776367, 
573, 3419861654, 0.6125981, -0.5769925, -0.3751025, -0.38871753, 6.130854606628418, -2.152991771697998, -0.19130297005176544, 7.247285842895508, 3.2769010066986084, 20.08350944519043, 
574, 3419878321, 0.61350834, -0.5784141, -0.3722936, -0.38786888, 6.542346477508545, -1.872805118560791, -0.22294950485229492, -7.659928321838379, 6.113654136657715, 21.323631286621094, 
575, 3419894988, 0.6133007, -0.58091706, -0.36846283, -0.38811472, 6.889023780822754, -1.7990024089813232, -0.2720014750957489, -22.209835052490234, 9.046442985534668, 20.567371368408203, 
576, 3419911655, 0.61209023, -0.5842538, -0.36383265, -0.38938302, 7.110202789306641, -1.8035627603530884, -0.1734861582517624, -34.297386169433594, 11.667387962341309, 18.903888702392578, 
577, 3419928322, 0.60985065, -0.58846474, -0.35846117, -0.3915319, 7.015223979949951, -1.8419103622436523, 0.03974584862589836, -46.45942687988281, 13.495783805847168, 17.61210060119629, 
578, 3419944989, 0.606366, -0.5939041, -0.35223216, -0.39437413, 6.636208534240723, -1.9077662229537964, 0.140029177069664, -60.66919708251953, 13.526103019714355, 17.864702224731445, 
579, 3419961656, 0.6019222, -0.6002947, -0.34525007, -0.39766622, 6.117920398712158, -2.0946083068847656, 0.25244560837745667, -71.4142837524414, 13.463666915893555, 18.787729263305664, 
580, 3419978323, 0.5969231, -0.6070753, -0.33812243, -0.40101835, 5.652916431427002, -2.4996626377105713, 0.28113725781440735, -75.90113067626953, 11.945262908935547, 18.555891036987305, 
581, 3419994990, 0.59175503, -0.61374253, -0.33118245, -0.4043073, 5.910379409790039, -3.1255908012390137, 0.16268110275268555, -75.37310791015625, 10.770709991455078, 17.302433013916016, 
582, 3420011657, 0.58656186, -0.6199432, -0.32464576, -0.40770167, 7.328315258026123, -3.9765055179595947, -0.36222004890441895, -72.67809295654297, 10.799057960510254, 14.036324501037598, 
583, 3420028324, 0.5814792, -0.6253607, -0.31907034, -0.41109625, 10.194683074951172, -5.417725563049316, -0.7355720400810242, -66.65272521972656, 9.52820110321045, 8.49346923828125, 
584, 3420044991, 0.57812315, -0.62823665, -0.31529316, -0.4143459, 13.323676109313965, -6.3740081787109375, -0.6199984550476074, -43.6104621887207, 12.666101455688477, 0.6426079869270325, 
585, 3420061658, 0.5764086, -0.6281762, -0.3137509, -0.41798127, 15.504464149475098, -6.055361270904541, 0.016152288764715195, -19.31726837158203, 17.378938674926758, -12.228510856628418, 
586, 3420078325, 0.57484335, -0.6265499, -0.31375143, -0.4225523, 15.817840576171875, -5.418344497680664, 0.8322678208351135, -10.01500415802002, 20.111103057861328, -25.531494140625, 
587, 3420094992, 0.5724549, -0.62470263, -0.31426528, -0.42811155, 14.56333065032959, -5.150012969970703, 1.5860503911972046, -13.433231353759766, 21.255098342895508, -34.49294662475586, 
588, 3420111659, 0.5690569, -0.6232158, -0.31517544, -0.43409783, 13.923685073852539, -5.662938117980957, 1.9133620262145996, -18.73403549194336, 18.163360595703125, -40.048519134521484, 
589, 3420128326, 0.5660076, -0.6210154, -0.31732184, -0.4396385, 14.345019340515137, -6.608703136444092, 2.0225396156311035, -9.947089195251465, 14.3621187210083, -44.098575592041016, 
590, 3420144993, 0.564473, -0.61747915, -0.32095435, -0.44393462, 13.472183227539062, -6.632481575012207, 2.0326573848724365, 8.964529991149902, 10.57052230834961, -43.93585968017578, 
591, 3420161660, 0.5641572, -0.61331344, -0.32544696, -0.44683075, 12.205850601196289, -6.5039591789245605, 2.0132665634155273, 22.244504928588867, 5.906952857971191, -39.82786178588867, 
592, 3420178327, 0.565516, -0.6083164, -0.3308022, -0.44800985, 11.412281036376953, -6.409224033355713, 1.6874479055404663, 39.04602813720703, 1.5959486961364746, -33.53056716918945, 
593, 3420194994, 0.56849027, -0.6026619, -0.3367653, -0.44744477, 10.71660327911377, -5.700239658355713, 1.5643787384033203, 54.20408630371094, -2.3757872581481934, -25.82451057434082, 
594, 3420211661, 0.57188696, -0.5973826, -0.3424146, -0.44590575, 10.213330268859863, -4.608364105224609, 1.7142632007598877, 55.828346252441406, -5.390899181365967, -18.55771827697754, 
595, 3420228328, 0.57437086, -0.5935617, -0.34675738, -0.44445747, 10.03243350982666, -3.9134368896484375, 1.5990854501724243, 42.18060302734375, -6.532744407653809, -12.914244651794434, 
596, 3420244995, 0.5757343, -0.5911666, -0.34973243, -0.44355306, 9.77761173248291, -3.695053815841675, 1.2784905433654785, 26.38847541809082, -5.9006571769714355, -9.506897926330566, 
597, 3420261662, 0.5762463, -0.5897327, -0.35151866, -0.44338503, 9.188312530517578, -3.632209062576294, 1.0882513523101807, 13.669516563415527, -3.1614294052124023, -7.875104904174805, 
598, 3420278329, 0.5760549, -0.5889766, -0.3523871, -0.44394913, 8.382193565368652, -3.542968511581421, 0.8510439395904541, 3.523892641067505, -0.3107205331325531, -7.563817501068115, 
599, 3420294996, 0.5752262, -0.5887779, -0.35250926, -0.44518837, 7.664402484893799, -3.514831304550171, 0.7065212726593018, -5.150420188903809, 2.11993145942688, -7.812887191772461, 
600, 3420311663, 0.5737274, -0.5892571, -0.35185462, -0.44700244, 7.150829792022705, -3.6115000247955322, 0.7291496396064758, -14.200843811035156, 3.771172046661377, -7.350338935852051, 
601, 3420328330, 0.5717765, -0.59030944, -0.35052767, -0.44915143, 6.7382917404174805, -3.8696510791778564, 0.6463137269020081, -21.24126434326172, 4.951577186584473, -5.963620185852051, 
602, 3420344997, 0.5698365, -0.5914835, -0.3489739, -0.45127723, 6.317115306854248, -4.062582492828369, 0.5792108774185181, -22.42234992980957, 5.437234878540039, -4.642567157745361, 
603, 3420361664, 0.5681904, -0.59243935, -0.34758976, -0.453163, 5.923448085784912, -4.163740158081055, 0.45555514097213745, -19.152511596679688, 5.127919673919678, -4.0158209800720215, 
604, 3420378331, 0.5671345, -0.5929364, -0.3467185, -0.45450124, 5.573497772216797, -4.325030326843262, 0.3264276385307312, -12.11368465423584, 3.761451005935669, -3.2455532550811768, 
605, 3420394998, 0.5669116, -0.5927844, -0.3465836, -0.45507997, 5.477706432342529, -4.383787155151367, 0.23654918372631073, -2.0939276218414307, 1.8136670589447021, -2.2515993118286133, 
606, 3420411665, 0.5675087, -0.59199053, -0.34715712, -0.4549319, 5.631907939910889, -4.1845598220825195, 0.19879312813282013, 7.801175117492676, 0.013248171657323837, -1.2874994277954102, 
607, 3420428332, 0.56856275, -0.5908543, -0.3481301, -0.45434913, 5.916098117828369, -4.004480361938477, 0.2426888346672058, 13.260041236877441, -1.1417763233184814, -0.6259362697601318, 
608, 3420444999, 0.5699187, -0.5895549, -0.34936774, -0.45338732, 6.211498737335205, -3.840151071548462, 0.24657785892486572, 16.966962814331055, -2.5255937576293945, 0.32183027267456055, 
609, 3420461666, 0.57143277, -0.5878722, -0.35061142, -0.45270607, 6.613968372344971, -3.4547934532165527, 0.48967063426971436, 18.414138793945312, 0.182112917304039, -1.2446762323379517, 
610, 3420478333, 0.5729455, -0.5861829, -0.3517465, -0.45210335, 6.569089889526367, -3.650128126144409, 0.4300679564476013, 17.774879455566406, 0.9963287711143494, -1.147731900215149, 
611, 3420495000, 0.57465225, -0.58425, -0.35290113, -0.45153916, 6.688301086425781, -3.502504587173462, 0.5274732112884521, 19.23359489440918, 2.402531862258911, -1.3869166374206543, 
612, 3420511667, 0.57632184, -0.5824322, -0.35387993, -0.45099342, 6.572918891906738, -3.3375799655914307, 0.41760754585266113, 18.36102294921875, 2.596067428588867, -0.5828239917755127, 
613, 3420528334, 0.5776995, -0.5809205, -0.35469586, -0.4505392, 6.6046881675720215, -3.254094362258911, 0.3382725119590759, 15.298056602478027, 1.9297009706497192, -0.4589992165565491, 
614, 3420545001, 0.5789007, -0.579687, -0.3555168, -0.44993886, 6.990392208099365, -3.403975486755371, 0.1875644475221634, 13.625574111938477, 0.13006778061389923, 0.2143976390361786, 
615, 3420561668, 0.58024293, -0.57854253, -0.35654455, -0.44886842, 7.467133522033691, -3.6362557411193848, 0.1918574869632721, 15.97924518585205, -2.633026123046875, 1.9296432733535767, 
616, 3420578335, 0.581962, -0.57724917, -0.35792556, -0.44720593, 8.058043479919434, -3.602567672729492, 0.3543448746204376, 20.724040985107422, -5.053098678588867, 3.6822092533111572, 
617, 3420595002, 0.58364743, -0.57599664, -0.35952675, -0.44533604, 9.473342895507812, -3.6480181217193604, 0.4335364103317261, 21.4036808013916, -6.878341197967529, 3.6188950538635254, 
618, 3420611669, 0.5852138, -0.5746545, -0.36123946, -0.44362506, 11.939047813415527, -4.050249099731445, 0.5731508731842041, 21.112529754638672, -6.660685062408447, 1.94524347782135, 
619, 3420628336, 0.58727664, -0.57279396, -0.3628379, -0.44199786, 14.389627456665039, -3.9752814769744873, 0.8709872364997864, 24.51682472229004, -3.0173873901367188, 2.2868988513946533, 
620, 3420645003, 0.5893668, -0.5710986, -0.36377686, -0.44063583, 15.365813255310059, -2.934635877609253, 1.284491777420044, 21.523115158081055, 0.1696203649044037, 4.335711479187012, 
621, 3420661670, 0.59022, -0.5708781, -0.3637651, -0.4397879, 14.641627311706543, -1.9924124479293823, 1.5935702323913574, 6.349869728088379, -1.4496662616729736, 5.943216800689697, 
622, 3420678337, 0.58915246, -0.5729585, -0.36278674, -0.4393223, 13.799349784851074, -2.1060643196105957, 1.5754117965698242, -14.238422393798828, -7.856422424316406, 8.172951698303223, 
623, 3420695004, 0.5870299, -0.5764092, -0.3615667, -0.4386547, 15.463142395019531, -3.4007863998413086, 1.4274027347564697, -24.159252166748047, -14.45057487487793, 10.203892707824707, 
624, 3420711671, 0.58593404, -0.5792726, -0.36068296, -0.4370727, 16.783063888549805, -3.7386796474456787, 1.657910704612732, -14.522817611694336, -15.072465896606445, 14.213959693908691, 
625, 3420728338, 0.58521074, -0.5821675, -0.35968772, -0.4350104, 15.71895694732666, -2.6791441440582275, 2.0887622833251953, -12.24352741241455, -15.736289978027344, 17.820919036865234, 
626, 3420745005, 0.5834505, -0.5863134, -0.35834414, -0.43291092, 14.00482177734375, -2.6067750453948975, 2.154071092605591, -22.108867645263672, -20.911636352539062, 19.396066665649414, 
627, 3420761672, 0.5816829, -0.5906121, -0.35741365, -0.43020666, 12.79804801940918, -3.1955301761627197, 1.8375418186187744, -20.244152069091797, -25.40362548828125, 20.525501251220703, 
628, 3420778339, 0.5803304, -0.59461987, -0.35705212, -0.42679945, 11.776782035827637, -3.2002241611480713, 1.6788527965545654, -14.136439323425293, -28.598085403442383, 21.555343627929688, 
629, 3420795006, 0.578649, -0.5988147, -0.3568966, -0.42333353, 11.137739181518555, -3.1158840656280518, 1.6117885112762451, -15.435748100280762, -31.04646873474121, 20.455013275146484, 
630, 3420811673, 0.57649326, -0.602975, -0.35690266, -0.4203538, 10.594795227050781, -3.662001848220825, 1.4190040826797485, -18.04693031311035, -30.727293014526367, 16.402196884155273, 
631, 3420828340, 0.5747444, -0.60605466, -0.3575322, -0.417777, 9.928202629089355, -4.35747766494751, 1.1440939903259277, -11.265950202941895, -27.416950225830078, 10.751203536987305, 
632, 3420845007, 0.5742637, -0.6072496, -0.35913104, -0.4153239, 9.08217716217041, -4.71668815612793, 0.9829744100570679, 4.142061233520508, -22.298828125, 5.228182315826416, 
633, 3420861674, 0.57538337, -0.60639954, -0.36169007, -0.41278797, 8.178918838500977, -4.5986409187316895, 1.0209119319915771, 21.820762634277344, -16.64175033569336, 1.0594911575317383, 
634, 3420878341, 0.57789576, -0.6039084, -0.36498153, -0.41002405, 7.313610076904297, -4.447756290435791, 1.0728371143341064, 36.636253356933594, -12.317154884338379, -1.2253116369247437, 
635, 3420895008, 0.58157057, -0.6001677, -0.3688273, -0.40686712, 6.669879913330078, -4.30554723739624, 0.9830877780914307, 48.7697868347168, -9.624849319458008, -1.829927921295166, 
636, 3420911675, 0.58605087, -0.5954251, -0.37347203, -0.40315259, 6.495978355407715, -4.2071332931518555, 0.8245217204093933, 60.12853240966797, -10.453551292419434, -3.2013094425201416, 
637, 3420928342, 0.5917184, -0.58933705, -0.3789184, -0.3987131, 7.2740631103515625, -4.020493030548096, 0.780966579914093, 74.31999206542969, -9.797320365905762, -3.7325870990753174, 
638, 3420945009, 0.5986808, -0.5821629, -0.38461202, -0.3933718, 8.225536346435547, -3.8279001712799072, 0.7165524959564209, 86.89320373535156, -8.053937911987305, -0.3484189212322235, 
639, 3420961676, 0.6067248, -0.574273, -0.39019632, -0.38709497, 8.892082214355469, -3.4003469944000244, 0.5961400270462036, 96.31938934326172, -6.537818908691406, 4.973170280456543, 
