sep=,
DeviceTag:,R Foot - 1,,,,,,,,,,,,,,,,,
FirmwareVersion:,3.0.0,,,,,,,,,,,,,,,,,
AppVersion:,2023.6.1,,,,,,,,,,,,,,,,,
StartTime:,2024-05-23 12:04:51.000 +0200,,,,,,,,,,,,,,,,,
 2024,,,,,,,,,,,,,,,,,,,

PacketCounter,SampleTimeFine,Quat_W,Quat_X,Quat_Y,Quat_Z,Acc_X,Acc_Y,Acc_Z,Gyr_X,Gyr_Y,Gyr_Z,
0, 3396140651, 0.9256724, -0.2574643, -0.20128016, -0.19060154, 0.0, 0.0, 0.0, 0.0, 0.0, 0.0, 
1, 3396157318, 0.9259552, -0.25676256, -0.20149618, -0.18994573, 4.690135478973389, -4.023049354553223, 7.897848129272461, 5.910316467285156, -1.6482926607131958, 2.069089889526367, 
2, 3396173985, 0.9261597, -0.25625047, -0.20131908, -0.18982828, 4.690518379211426, -4.000351428985596, 7.918041706085205, 5.996491432189941, -1.5736573934555054, 2.117997884750366, 
3, 3396190652, 0.92653626, -0.25546664, -0.20132692, -0.18903708, 4.688748836517334, -4.013494491577148, 7.892856121063232, 5.968726634979248, -1.5496965646743774, 2.1638569831848145, 
4, 3396207319, 0.9267911, -0.25488394, -0.20134883, -0.18855044, 4.668753623962402, -4.021678924560547, 7.899825096130371, 6.007159233093262, -1.5941988229751587, 2.125502109527588, 
5, 3396223986, 0.9269426, -0.25446942, -0.20124257, -0.18847848, 4.662436008453369, -4.014824867248535, 7.87634801864624, 6.02372932434082, -1.5896779298782349, 2.210702657699585, 
6, 3396240653, 0.92713785, -0.25400445, -0.20133756, -0.18804419, 4.659515380859375, -4.019769668579102, 7.921512126922607, 5.98892879486084, -1.855064034461975, 1.831295371055603, 
7, 3396257320, 0.9272365, -0.25365528, -0.2012998, -0.18806922, 4.701204776763916, -3.957019090652466, 7.910245418548584, 5.79978609085083, -1.9166243076324463, 1.9870017766952515, 
8, 3396273987, 0.9273175, -0.25327033, -0.2013606, -0.18812385, 4.6831488609313965, -3.9711697101593018, 7.920113563537598, 5.567010402679443, -2.0128064155578613, 2.080942392349243, 
9, 3396290654, 0.92746747, -0.25283253, -0.20153359, -0.1877877, 4.6961517333984375, -3.964834451675415, 7.908011436462402, 5.213502883911133, -2.022916555404663, 2.302441120147705, 
10, 3396307321, 0.92759526, -0.25240913, -0.20168592, -0.18756285, 4.696564197540283, -3.9996209144592285, 7.8856377601623535, 5.2931013107299805, -1.963636040687561, 2.5328080654144287, 
11, 3396323988, 0.92777425, -0.2519183, -0.20192659, -0.18707761, 4.681784629821777, -4.006894111633301, 7.937349319458008, 5.525127410888672, -1.8827130794525146, 2.4394757747650146, 
12, 3396340655, 0.92787975, -0.25150758, -0.202051, -0.18697216, 4.673853397369385, -4.0051984786987305, 7.913159370422363, 5.596625804901123, -1.864015817642212, 2.4521539211273193, 
13, 3396357322, 0.92801267, -0.25106865, -0.20222494, -0.18671502, 4.662497043609619, -4.007338047027588, 7.921131610870361, 5.63637638092041, -1.9458229541778564, 2.4161298274993896, 
14, 3396373989, 0.92818224, -0.250595, -0.20243602, -0.18627815, 4.693171977996826, -4.002238750457764, 7.896587371826172, 5.674372673034668, -1.9485374689102173, 2.4750514030456543, 
15, 3396390656, 0.9284546, -0.24999426, -0.20277233, -0.18536043, 4.6796183586120605, -4.016355991363525, 7.891415119171143, 5.75847864151001, -1.7243560552597046, 2.2971138954162598, 
16, 3396407323, 0.92857826, -0.24954417, -0.20286143, -0.18525039, 4.678833961486816, -4.001288414001465, 7.898754119873047, 5.92724084854126, -1.4210631847381592, 2.250229835510254, 
17, 3396423990, 0.9287567, -0.24903598, -0.20304546, -0.18483706, 4.6785407066345215, -4.003499507904053, 7.906770706176758, 5.852861404418945, -1.4678767919540405, 2.162788152694702, 
18, 3396440657, 0.928922, -0.24853799, -0.20319629, -0.18451051, 4.654539585113525, -4.002320766448975, 7.9205241203308105, 5.927387714385986, -1.391550898551941, 2.198946475982666, 
19, 3396457324, 0.9289088, -0.24823983, -0.20312704, -0.18505374, 4.665098667144775, -4.005155563354492, 7.911099433898926, 5.830482006072998, -1.4867534637451172, 2.108457088470459, 
20, 3396473991, 0.92905146, -0.24775222, -0.20328979, -0.18481302, 4.654846668243408, -3.9847512245178223, 7.951355457305908, 5.982769012451172, -1.6061149835586548, 2.048337459564209, 
21, 3396490658, 0.92921025, -0.24726084, -0.20350187, -0.18443893, 4.667564868927002, -3.9956109523773193, 7.919919013977051, 5.86971378326416, -1.8428723812103271, 2.1919608116149902, 
22, 3396507325, 0.92939776, -0.24673668, -0.20376487, -0.18390457, 4.675009250640869, -3.9766697883605957, 7.927496910095215, 5.882565498352051, -1.9161630868911743, 2.2228686809539795, 
23, 3396523992, 0.92951506, -0.24633145, -0.20394863, -0.18365058, 4.657535076141357, -3.965900182723999, 7.923326015472412, 5.506686687469482, -2.0052058696746826, 2.380335807800293, 
24, 3396540659, 0.92965835, -0.24592803, -0.2041895, -0.18319778, 4.659708499908447, -3.958780527114868, 7.942409515380859, 5.253222942352295, -2.174992322921753, 2.5528244972229004, 
25, 3396557326, 0.92976665, -0.24560793, -0.20439735, -0.18284579, 4.652063846588135, -3.963670015335083, 7.920210361480713, 4.8938889503479, -2.315016508102417, 2.7986035346984863, 
26, 3396573993, 0.929733, -0.24546392, -0.2044325, -0.18317081, 4.652582168579102, -3.959378719329834, 7.93736457824707, 4.698291778564453, -2.4005696773529053, 2.8199968338012695, 
27, 3396590660, 0.92976874, -0.24526821, -0.20458658, -0.1830789, 4.670945167541504, -3.9805283546447754, 7.937598705291748, 4.409642696380615, -2.5268466472625732, 2.847254991531372, 
28, 3396607327, 0.9297966, -0.24510136, -0.20473003, -0.18300155, 4.661630153656006, -3.998286485671997, 7.914862632751465, 4.200969696044922, -2.5001840591430664, 2.8499507904052734, 
29, 3396623994, 0.92986846, -0.2448631, -0.20493306, -0.18272687, 4.648489475250244, -4.0231146812438965, 7.897177219390869, 4.341365814208984, -2.445712089538574, 2.6901021003723145, 
30, 3396640661, 0.9298794, -0.24467734, -0.20508583, -0.18274912, 4.6680588722229, -4.026172637939453, 7.879846572875977, 4.478476524353027, -2.6090633869171143, 2.6110804080963135, 
31, 3396657328, 0.92999583, -0.24438941, -0.2053638, -0.18222907, 4.6437578201293945, -3.9956412315368652, 7.92482852935791, 4.410731315612793, -2.5444552898406982, 2.7363393306732178, 
32, 3396673995, 0.9300699, -0.24419442, -0.2055876, -0.18185991, 4.680458068847656, -3.9736695289611816, 7.914647579193115, 4.052870273590088, -2.606489419937134, 2.9381678104400635, 
33, 3396690662, 0.9301552, -0.2440423, -0.20586893, -0.181308, 4.652441024780273, -3.9742839336395264, 7.941900253295898, 3.5791187286376953, -2.879565715789795, 3.1896395683288574, 
34, 3396707329, 0.93017834, -0.24399884, -0.2060877, -0.18099919, 4.648322105407715, -4.047734260559082, 7.90774393081665, 3.2328097820281982, -3.0234193801879883, 3.324247121810913, 
35, 3396723996, 0.930224, -0.24390467, -0.20634954, -0.18059301, 4.66221809387207, -4.076780796051025, 7.89352560043335, 3.37237286567688, -3.0226635932922363, 3.0940396785736084, 
36, 3396740663, 0.9303019, -0.24376287, -0.20663127, -0.18006049, 4.661242961883545, -4.065870761871338, 7.904287815093994, 3.53165864944458, -2.913374185562134, 3.1187305450439453, 
37, 3396757330, 0.93029636, -0.24366763, -0.20677085, -0.1800575, 4.670467853546143, -4.066537380218506, 7.867417335510254, 3.9469618797302246, -2.71293568611145, 2.9007346630096436, 
38, 3396773997, 0.93031806, -0.24349685, -0.20691648, -0.18000878, 4.644373893737793, -4.092549800872803, 7.89339017868042, 4.342402935028076, -2.5110244750976562, 2.7343223094940186, 
39, 3396790664, 0.9303391, -0.2433295, -0.2070738, -0.17994525, 4.668664932250977, -4.020461082458496, 7.916227340698242, 4.3332648277282715, -2.58402681350708, 2.730973243713379, 
40, 3396807331, 0.9304166, -0.24315642, -0.20733914, -0.1794735, 4.655895709991455, -4.018930435180664, 7.918028354644775, 3.8470916748046875, -2.8145864009857178, 3.0034737586975098, 
41, 3396823998, 0.93051827, -0.24297458, -0.20765702, -0.17882353, 4.648151397705078, -4.076174736022949, 7.896086692810059, 3.660221576690674, -2.932558298110962, 3.0760979652404785, 
42, 3396840665, 0.93064207, -0.24276617, -0.2079796, -0.17808567, 4.679118633270264, -4.045974254608154, 7.8849287033081055, 3.6481449604034424, -2.767157793045044, 3.011976718902588, 
43, 3396857332, 0.93075806, -0.24256559, -0.20825209, -0.17743325, 4.664834022521973, -4.083432674407959, 7.856714725494385, 3.713021993637085, -2.569312810897827, 3.076085329055786, 
44, 3396873999, 0.93074083, -0.2424815, -0.2083263, -0.17755114, 4.657553195953369, -4.117525577545166, 7.8617024421691895, 3.9927003383636475, -2.4006340503692627, 2.8114936351776123, 
45, 3396890666, 0.9308639, -0.24220777, -0.20857222, -0.17698991, 4.664793014526367, -4.076463222503662, 7.87374210357666, 4.1957831382751465, -2.252451181411743, 2.662555456161499, 
46, 3396907333, 0.9309538, -0.24198046, -0.20875826, -0.17660815, 4.672912120819092, -4.0761942863464355, 7.87590217590332, 4.215748310089111, -2.229771137237549, 2.8100078105926514, 
47, 3396924000, 0.9309565, -0.24186487, -0.20883477, -0.17666218, 4.638984680175781, -4.091643333435059, 7.873045921325684, 4.106677055358887, -2.256856918334961, 2.7798876762390137, 
48, 3396940667, 0.9310769, -0.24161986, -0.20908503, -0.17606612, 4.657564640045166, -4.08714485168457, 7.880754470825195, 4.0073699951171875, -2.322009325027466, 2.7903950214385986, 
49, 3396957334, 0.93112004, -0.24150266, -0.20922461, -0.17583242, 4.614854335784912, -4.118579864501953, 7.877141952514648, 3.7161850929260254, -2.3141777515411377, 2.9293630123138428, 
50, 3396974001, 0.9311702, -0.24134006, -0.2094298, -0.17554559, 4.651266098022461, -4.11081600189209, 7.88348913192749, 3.9430243968963623, -2.57576060295105, 2.693291187286377, 
51, 3396990668, 0.9312355, -0.24119547, -0.20966324, -0.17511833, 4.659186363220215, -4.068182945251465, 7.887933731079102, 3.7404403686523438, -2.710188865661621, 2.9905519485473633, 
52, 3397007335, 0.9313859, -0.24096027, -0.21004505, -0.17418264, 4.663442134857178, -4.121837615966797, 7.862514495849609, 3.613900899887085, -2.882857084274292, 3.0255391597747803, 
53, 3397024002, 0.9313767, -0.240894, -0.21019776, -0.17413896, 4.659513473510742, -4.125638484954834, 7.860299587249756, 3.8097357749938965, -2.8160972595214844, 2.9236643314361572, 
54, 3397040669, 0.93145066, -0.24072172, -0.2104642, -0.17365979, 4.659059047698975, -4.091400623321533, 7.859848976135254, 3.881207227706909, -2.8193368911743164, 2.9226138591766357, 
55, 3397057336, 0.9315385, -0.24059124, -0.21074384, -0.17302959, 4.662115097045898, -4.068936347961426, 7.8699631690979, 3.4815216064453125, -2.8746864795684814, 3.285853624343872, 
56, 3397074003, 0.93158126, -0.24055625, -0.210992, -0.17254522, 4.653110027313232, -4.134606838226318, 7.855545520782471, 3.1537435054779053, -3.0912163257598877, 3.50504732131958, 
57, 3397090670, 0.9316285, -0.24051915, -0.21125829, -0.17201416, 4.654759883880615, -4.167385578155518, 7.840505123138428, 3.079875946044922, -3.1248586177825928, 3.4472005367279053, 
58, 3397107337, 0.931645, -0.24047087, -0.21147822, -0.17172232, 4.644020080566406, -4.212731838226318, 7.827317237854004, 3.461312770843506, -3.0556397438049316, 3.183389663696289, 
59, 3397124004, 0.9317234, -0.24028264, -0.21175429, -0.17121904, 4.682005405426025, -4.1996588706970215, 7.7962727546691895, 3.9420385360717773, -2.793558359146118, 2.783050775527954, 
60, 3397140671, 0.93179125, -0.24004063, -0.2119662, -0.17092751, 4.658872127532959, -4.194532871246338, 7.817420959472656, 4.543635845184326, -2.483689546585083, 2.503417730331421, 
61, 3397157338, 0.93189865, -0.23972683, -0.21219717, -0.1704942, 4.653919219970703, -4.177692413330078, 7.8295512199401855, 4.75264835357666, -2.2575550079345703, 2.3812193870544434, 
62, 3397174005, 0.9319998, -0.23942026, -0.21243794, -0.17007141, 4.649087905883789, -4.151968002319336, 7.835557460784912, 4.7310309410095215, -2.3426785469055176, 2.3387019634246826, 
63, 3397190672, 0.93209326, -0.23913582, -0.21268913, -0.16964589, 4.669468879699707, -4.138697147369385, 7.8605499267578125, 4.621773719787598, -2.4684174060821533, 2.390202760696411, 
64, 3397207339, 0.93217593, -0.23885588, -0.21291962, -0.16929698, 4.646775722503662, -4.178554058074951, 7.7963948249816895, 4.669041633605957, -2.4066269397735596, 2.2945775985717773, 
65, 3397224006, 0.93222576, -0.23860751, -0.21308927, -0.16915862, 4.681610107421875, -4.16202974319458, 7.812262058258057, 4.815674304962158, -2.355670690536499, 2.3244423866271973, 
66, 3397240673, 0.9323157, -0.23828544, -0.2133034, -0.16884659, 4.666759967803955, -4.180211544036865, 7.848721504211426, 5.060993194580078, -2.3007187843322754, 2.282834529876709, 
67, 3397257340, 0.9324163, -0.23796012, -0.21353175, -0.1684606, 4.660444736480713, -4.167592525482178, 7.835104465484619, 4.92299747467041, -2.2504982948303223, 2.2123546600341797, 
68, 3397274007, 0.9324928, -0.23767123, -0.21376026, -0.16815521, 4.659378528594971, -4.162528038024902, 7.861339569091797, 4.84304141998291, -2.4315097332000732, 2.214717388153076, 
69, 3397290674, 0.9325583, -0.23737392, -0.21397331, -0.16794087, 4.649864196777344, -4.207123756408691, 7.81540584564209, 5.025801658630371, -2.414797782897949, 2.101356029510498, 
70, 3397307341, 0.9326631, -0.23699747, -0.21422039, -0.16757561, 4.661153793334961, -4.193248271942139, 7.815814971923828, 5.255579471588135, -2.252483606338501, 1.9049640893936157, 
71, 3397324008, 0.93277216, -0.23658149, -0.21445005, -0.16726206, 4.661221981048584, -4.197274208068848, 7.819064140319824, 5.572497844696045, -2.1102817058563232, 1.7680001258850098, 
72, 3397340675, 0.93291014, -0.23610382, -0.21472763, -0.16681045, 4.662014961242676, -4.180027484893799, 7.831815242767334, 5.768851280212402, -2.1277177333831787, 1.6451551914215088, 
73, 3397357342, 0.93299216, -0.23568887, -0.21489643, -0.16672125, 4.655754089355469, -4.16908073425293, 7.821845531463623, 5.867525100708008, -1.9479296207427979, 1.5712114572525024, 
74, 3397374009, 0.93310857, -0.23520589, -0.21511126, -0.16647455, 4.641522407531738, -4.184462547302246, 7.834707736968994, 6.081287860870361, -1.9267605543136597, 1.4795050621032715, 
75, 3397390676, 0.93321145, -0.23472703, -0.21532924, -0.1662927, 4.667184352874756, -4.154638767242432, 7.835483551025391, 6.213807582855225, -2.0643646717071533, 1.4663528203964233, 
76, 3397407343, 0.9333773, -0.23414505, -0.21559733, -0.16583352, 4.6496901512146, -4.169351100921631, 7.835260391235352, 6.4358062744140625, -1.8430452346801758, 1.379090428352356, 
77, 3397424010, 0.93351644, -0.23358878, -0.2158759, -0.16547213, 4.6578521728515625, -4.1398444175720215, 7.834625244140625, 6.461215019226074, -2.0913350582122803, 1.3166723251342773, 
78, 3397440677, 0.93360853, -0.23313384, -0.21610776, -0.16529165, 4.642390727996826, -4.1233930587768555, 7.864811897277832, 6.125456809997559, -2.2173876762390137, 1.479761004447937, 
79, 3397457344, 0.933684, -0.23271, -0.2163817, -0.165104, 4.640334606170654, -4.157344818115234, 7.846581935882568, 5.895660400390625, -2.5048906803131104, 1.352850317955017, 
80, 3397474011, 0.93375856, -0.2323018, -0.21668102, -0.1648645, 4.674814701080322, -4.143092155456543, 7.808444976806641, 5.733736991882324, -2.6342344284057617, 1.3541563749313354, 
81, 3397490678, 0.9338407, -0.23188813, -0.21695268, -0.16462412, 4.681034088134766, -4.116399765014648, 7.834894180297852, 5.81597900390625, -2.4752309322357178, 1.4750868082046509, 
82, 3397507345, 0.93393326, -0.2314879, -0.21722348, -0.16430429, 4.697463035583496, -4.099109172821045, 7.827691555023193, 5.646231174468994, -2.421194553375244, 1.6262915134429932, 
83, 3397524012, 0.9340095, -0.23114415, -0.21747802, -0.16401894, 4.661409378051758, -4.135209560394287, 7.849011421203613, 5.402416706085205, -2.4992618560791016, 1.8228625059127808, 
84, 3397540679, 0.9340857, -0.23081633, -0.21771963, -0.16372591, 4.662841796875, -4.1184983253479, 7.842044353485107, 5.28514289855957, -2.427098035812378, 1.8597509860992432, 
85, 3397557346, 0.93417853, -0.23047414, -0.2179538, -0.16336612, 4.679930686950684, -4.137897491455078, 7.8488359451293945, 5.3448004722595215, -2.3226234912872314, 2.0128445625305176, 
86, 3397574013, 0.9342769, -0.23011377, -0.2181726, -0.16301899, 4.681809902191162, -4.139895915985107, 7.832552909851074, 5.480958461761475, -2.1979026794433594, 1.9733240604400635, 
87, 3397590680, 0.93438494, -0.22973388, -0.21837091, -0.16267005, 4.664899826049805, -4.146518707275391, 7.822024345397949, 5.623396873474121, -2.036600112915039, 1.9961131811141968, 
88, 3397607347, 0.93448496, -0.22932747, -0.2185515, -0.16242501, 4.6743950843811035, -4.161917209625244, 7.8217453956604, 5.934245586395264, -1.9706095457077026, 1.8069379329681396, 
89, 3397624014, 0.9346035, -0.22888291, -0.21873756, -0.16211955, 4.686229705810547, -4.133639812469482, 7.846743106842041, 6.072457790374756, -1.8435255289077759, 1.7191052436828613, 
90, 3397640681, 0.9347224, -0.22844094, -0.21891698, -0.16181521, 4.678940296173096, -4.1122636795043945, 7.852654457092285, 6.0490546226501465, -1.7890408039093018, 1.6893115043640137, 
91, 3397657348, 0.93481094, -0.22805622, -0.21907356, -0.16163433, 4.670454502105713, -4.109458923339844, 7.85818338394165, 5.9703216552734375, -1.9501960277557373, 1.8514655828475952, 
92, 3397674015, 0.9349351, -0.22762838, -0.2192775, -0.1612425, 4.669356822967529, -4.135659694671631, 7.865189552307129, 5.984138488769531, -1.9653457403182983, 1.9287517070770264, 
93, 3397690682, 0.9350483, -0.22721867, -0.21947667, -0.16089362, 4.677791118621826, -4.128584384918213, 7.838238716125488, 5.934207439422607, -2.0055837631225586, 1.8847365379333496, 
94, 3397707349, 0.93515235, -0.22682469, -0.21964523, -0.16061392, 4.669671058654785, -4.141881465911865, 7.83659029006958, 5.936141490936279, -1.9042212963104248, 1.8794986009597778, 
95, 3397724016, 0.9352673, -0.22640969, -0.21981388, -0.16029823, 4.6581034660339355, -4.124813079833984, 7.837689399719238, 6.03144645690918, -1.8259618282318115, 1.8588422536849976, 
96, 3397740683, 0.9353758, -0.22599885, -0.21999635, -0.15999441, 4.651825904846191, -4.138088226318359, 7.85476016998291, 6.03599214553833, -1.9286428689956665, 1.7848085165023804, 
97, 3397757350, 0.9354901, -0.2255743, -0.22018445, -0.15966648, 4.662732124328613, -4.1353278160095215, 7.829494476318359, 6.085423946380615, -1.9007505178451538, 1.7180618047714233, 
98, 3397774017, 0.9356198, -0.22513014, -0.22036892, -0.1592784, 4.675217628479004, -4.1048583984375, 7.846678733825684, 6.163171768188477, -1.7950725555419922, 1.78457772731781, 
99, 3397790684, 0.93572134, -0.22471257, -0.22046928, -0.15913248, 4.662659645080566, -4.113284111022949, 7.8530378341674805, 6.305591106414795, -1.5280345678329468, 1.6699352264404297, 
100, 3397807351, 0.935843, -0.224274, -0.22058927, -0.15886986, 4.678666591644287, -4.137962341308594, 7.824878692626953, 6.3184099197387695, -1.5118345022201538, 1.7524722814559937, 
101, 3397824018, 0.93598187, -0.22378269, -0.22070417, -0.15858443, 4.656409740447998, -4.154120445251465, 7.827493190765381, 6.637341022491455, -1.3585044145584106, 1.665581464767456, 
102, 3397840685, 0.9361355, -0.22322209, -0.22082126, -0.15830497, 4.653119087219238, -4.137157917022705, 7.848615646362305, 7.064111232757568, -1.222846508026123, 1.42073655128479, 
103, 3397857352, 0.9363077, -0.22259757, -0.22095537, -0.15797816, 4.659134864807129, -4.1306352615356445, 7.840873718261719, 7.440375328063965, -1.1805598735809326, 1.3122026920318604, 
104, 3397874019, 0.9364712, -0.22196206, -0.22107098, -0.15774122, 4.6575608253479, -4.0813117027282715, 7.867316246032715, 7.629204273223877, -1.115580439567566, 1.159487009048462, 
105, 3397890686, 0.93662393, -0.22137159, -0.22119437, -0.15749186, 4.641021728515625, -4.086381912231445, 7.894986629486084, 7.403505802154541, -1.2724711894989014, 1.3247915506362915, 
106, 3397907353, 0.93675727, -0.22080359, -0.22132528, -0.15731126, 4.64531135559082, -4.089905261993408, 7.879654884338379, 7.385986328125, -1.4384286403656006, 1.2535111904144287, 
107, 3397924020, 0.9368925, -0.22022031, -0.22147399, -0.15711454, 4.666475296020508, -4.078850269317627, 7.8904218673706055, 7.482008934020996, -1.5070322751998901, 1.175482153892517, 
108, 3397940687, 0.9370468, -0.21961409, -0.22165626, -0.15678543, 4.651296615600586, -4.07601261138916, 7.886663436889648, 7.458572864532471, -1.545297622680664, 1.1838959455490112, 
109, 3397957354, 0.937195, -0.21902093, -0.22181073, -0.15651046, 4.6504225730896, -4.056005954742432, 7.885542869567871, 7.4419379234313965, -1.4289007186889648, 1.1543900966644287, 
110, 3397974021, 0.9373243, -0.21845955, -0.22195242, -0.15632012, 4.669518947601318, -4.041609287261963, 7.887451648712158, 7.416798114776611, -1.5128847360610962, 1.185791254043579, 
111, 3397990688, 0.93745416, -0.21791719, -0.22208157, -0.15611373, 4.649723529815674, -4.043110370635986, 7.8911895751953125, 7.305229663848877, -1.4591172933578491, 1.2874737977981567, 
112, 3398007355, 0.93757564, -0.21742548, -0.22222412, -0.15586762, 4.648830890655518, -4.030993461608887, 7.913983345031738, 6.957894802093506, -1.600569725036621, 1.4012837409973145, 
113, 3398024022, 0.93769336, -0.21695092, -0.22237583, -0.15560363, 4.656811714172363, -4.0224761962890625, 7.917562961578369, 6.8358378410339355, -1.6662919521331787, 1.4017703533172607, 
114, 3398040689, 0.937804, -0.21652469, -0.22252668, -0.15531531, 4.645304203033447, -4.0071797370910645, 7.907953262329102, 6.558979034423828, -1.7529656887054443, 1.590984582901001, 
115, 3398057356, 0.9379095, -0.2161186, -0.2226744, -0.1550319, 4.6513471603393555, -4.053262233734131, 7.9047393798828125, 6.4925007820129395, -1.7991454601287842, 1.6752501726150513, 
116, 3398074023, 0.9380241, -0.21568248, -0.2228281, -0.15472493, 4.64872407913208, -4.020937919616699, 7.896717071533203, 6.670009136199951, -1.7615329027175903, 1.6038931608200073, 
117, 3398090690, 0.93813205, -0.2152789, -0.22296628, -0.15443254, 4.658426284790039, -4.002108573913574, 7.926449775695801, 6.490131378173828, -1.724663496017456, 1.6550801992416382, 
118, 3398107357, 0.93822664, -0.2149109, -0.22311781, -0.15415122, 4.639246463775635, -4.028404712677002, 7.920814037322998, 6.30858850479126, -1.8896732330322266, 1.6699354648590088, 
119, 3398124024, 0.93831486, -0.21457095, -0.22326669, -0.15387265, 4.638250827789307, -4.038536548614502, 7.915950775146484, 6.1073479652404785, -1.8908896446228027, 1.6298513412475586, 
120, 3398140691, 0.9383766, -0.21426225, -0.22342268, -0.15369995, 4.6498188972473145, -3.9916954040527344, 7.9392523765563965, 6.051898002624512, -2.07441782951355, 1.465763807296753, 
121, 3398157358, 0.93843156, -0.21403708, -0.22357869, -0.15344952, 4.652655124664307, -3.9765613079071045, 7.935678005218506, 5.5068583488464355, -2.1951558589935303, 1.8433589935302734, 
122, 3398174025, 0.9384866, -0.21382944, -0.22374687, -0.15315768, 4.675838470458984, -4.01827335357666, 7.935140132904053, 5.380741119384766, -2.2818288803100586, 1.9210293292999268, 
123, 3398190692, 0.9385296, -0.21362826, -0.22390538, -0.15294361, 4.656620979309082, -4.024443626403809, 7.901267051696777, 5.431109428405762, -2.2785379886627197, 1.774704098701477, 
124, 3398207359, 0.9385844, -0.21339904, -0.2240577, -0.15270406, 4.643028736114502, -4.036282062530518, 7.904880523681641, 5.590817451477051, -2.1647024154663086, 1.7411260604858398, 
125, 3398224026, 0.9386527, -0.21314389, -0.22420523, -0.15242414, 4.634493350982666, -4.0471696853637695, 7.918561935424805, 5.69274377822876, -2.0325794219970703, 1.6863532066345215, 
126, 3398240693, 0.9387123, -0.21288572, -0.22437441, -0.15216792, 4.65362024307251, -4.0033416748046875, 7.91450834274292, 5.767212867736816, -2.189213991165161, 1.563271403312683, 
127, 3398257360, 0.9387725, -0.21265343, -0.22454879, -0.15186398, 4.652939796447754, -3.987571954727173, 7.922155380249023, 5.579868316650391, -2.2367513179779053, 1.6812433004379272, 
128, 3398274027, 0.9388267, -0.21245418, -0.2246999, -0.1515837, 4.648096561431885, -4.003148078918457, 7.924896717071533, 5.484025001525879, -2.2108564376831055, 1.8666151762008667, 
129, 3398290694, 0.93888247, -0.21225105, -0.22485234, -0.15129702, 4.668331623077393, -4.0237908363342285, 7.899349689483643, 5.5491838455200195, -2.227888822555542, 1.8899486064910889, 
130, 3398307361, 0.9389466, -0.21203697, -0.22499521, -0.15098676, 4.654791831970215, -4.017212390899658, 7.93705940246582, 5.587705612182617, -2.112657308578491, 1.872583270072937, 
131, 3398324028, 0.9390166, -0.21178481, -0.22514373, -0.15068321, 4.659832954406738, -4.036242961883545, 7.908358573913574, 5.902767658233643, -2.1216471195220947, 1.8197696208953857, 
132, 3398340695, 0.93911237, -0.21140903, -0.2253056, -0.15037179, 4.666922569274902, -4.086467266082764, 7.899402141571045, 6.761919975280762, -2.03403902053833, 1.6248440742492676, 
133, 3398357362, 0.9392733, -0.2106404, -0.22552203, -0.15012054, 4.647701263427734, -4.20384407043457, 7.846879005432129, 9.427653312683105, -1.8217743635177612, 0.6679666042327881, 
134, 3398374029, 0.9394632, -0.20966063, -0.22579193, -0.14989841, 4.653909206390381, -4.062002182006836, 7.8900532722473145, 10.78030014038086, -1.7935876846313477, -0.08210794627666473, 
135, 3398390696, 0.93965614, -0.20866705, -0.22603156, -0.14971481, 4.6355743408203125, -3.956298828125, 7.946069240570068, 10.92029857635498, -1.596062421798706, -0.1409403383731842, 
136, 3398407363, 0.93983287, -0.2077873, -0.22623955, -0.14951417, 4.668518543243408, -3.8644165992736816, 7.980681419372559, 10.17776107788086, -1.5601789951324463, 0.15841460227966309, 
137, 3398424030, 0.9399683, -0.20708711, -0.2264215, -0.14935924, 4.658764839172363, -3.8848609924316406, 7.976556301116943, 9.137999534606934, -1.749021291732788, 0.5607005953788757, 
138, 3398440697, 0.9400881, -0.2065267, -0.22661191, -0.14909266, 4.6699090003967285, -3.861997604370117, 7.9586005210876465, 8.150525093078613, -1.9578927755355835, 1.0180280208587646, 
139, 3398457364, 0.940193, -0.20609933, -0.22681005, -0.14871989, 4.664804458618164, -3.8698348999023438, 7.980152130126953, 7.218069553375244, -2.1595029830932617, 1.466058373451233, 
140, 3398474031, 0.9402663, -0.2058041, -0.2269989, -0.14837648, 4.654256343841553, -3.8879926204681396, 7.973649024963379, 6.357265472412109, -2.2954556941986084, 1.5741312503814697, 
141, 3398490698, 0.94030565, -0.2056503, -0.22715373, -0.14810339, 4.674703598022461, -3.885910987854004, 7.993916988372803, 5.644924163818359, -2.421520948410034, 1.9602553844451904, 
142, 3398507365, 0.9403276, -0.20558012, -0.22731803, -0.1478099, 4.655519962310791, -3.880523443222046, 8.006428718566895, 5.109669208526611, -2.6073150634765625, 2.1245477199554443, 
143, 3398524032, 0.9403517, -0.20557187, -0.22746249, -0.14744338, 4.661828994750977, -3.92134428024292, 7.951741695404053, 4.621466159820557, -2.5133936405181885, 2.3689186573028564, 
144, 3398540699, 0.940353, -0.20565128, -0.22759654, -0.14711824, 4.677247047424316, -3.89638090133667, 7.96943473815918, 4.158618927001953, -2.6397154331207275, 2.52689790725708, 
145, 3398557366, 0.9403466, -0.20577568, -0.2277235, -0.14678833, 4.650755882263184, -3.902327299118042, 7.959176540374756, 3.894885540008545, -2.674330949783325, 2.6454973220825195, 
146, 3398574033, 0.94034326, -0.20593366, -0.22784768, -0.1463956, 4.658060550689697, -3.9653000831604004, 7.9350762367248535, 3.5948967933654785, -2.6457347869873047, 2.7590644359588623, 
147, 3398590700, 0.94034135, -0.20608562, -0.22796623, -0.14600801, 4.6784186363220215, -3.947951078414917, 7.9658379554748535, 3.6881392002105713, -2.6247575283050537, 2.777313232421875, 
148, 3398607367, 0.9403567, -0.20620437, -0.22809221, -0.14554419, 4.675570487976074, -3.96126389503479, 7.918609142303467, 3.7795770168304443, -2.529721736907959, 2.7171108722686768, 
149, 3398624034, 0.9403632, -0.20631069, -0.22819884, -0.14518328, 4.651284217834473, -3.9581732749938965, 7.954345703125, 4.0462822914123535, -2.499319553375244, 2.6276967525482178, 
150, 3398640701, 0.9403609, -0.20643547, -0.22830164, -0.14485928, 4.682196617126465, -3.936851978302002, 7.92888069152832, 4.001754283905029, -2.5426816940307617, 2.609614133834839, 
151, 3398657368, 0.94037354, -0.20652492, -0.22838454, -0.14451827, 4.653106689453125, -3.985694169998169, 7.928181171417236, 4.195130348205566, -2.3271124362945557, 2.553535223007202, 
152, 3398674035, 0.9403938, -0.20657812, -0.22848462, -0.14415179, 4.6598076820373535, -3.980391502380371, 7.9374542236328125, 4.388339519500732, -2.344362497329712, 2.4093739986419678, 
153, 3398690702, 0.9404103, -0.20663454, -0.22858746, -0.14380042, 4.670963764190674, -3.950807571411133, 7.9346394538879395, 4.430075168609619, -2.3982901573181152, 2.4060442447662354, 
154, 3398707369, 0.9404379, -0.20667425, -0.22869277, -0.14339529, 4.665561676025391, -3.969931125640869, 7.917385101318359, 4.543962001800537, -2.382282018661499, 2.5262959003448486, 
155, 3398724036, 0.9404564, -0.20673415, -0.22878687, -0.14303607, 4.6674652099609375, -3.977306842803955, 7.929678916931152, 4.463538646697998, -2.366107940673828, 2.4612910747528076, 
156, 3398740703, 0.94048244, -0.20677204, -0.22887304, -0.14267255, 4.6875433921813965, -3.9720120429992676, 7.934081554412842, 4.646156311035156, -2.298067331314087, 2.4755184650421143, 
157, 3398757370, 0.94052136, -0.20677142, -0.22894838, -0.14229532, 4.678712844848633, -3.9943230152130127, 7.919818878173828, 4.850738048553467, -2.129612922668457, 2.3631560802459717, 
158, 3398774037, 0.94058126, -0.20671706, -0.22899404, -0.14190394, 4.678623199462891, -4.009479999542236, 7.909178733825684, 5.254112720489502, -1.8831931352615356, 2.439584255218506, 
159, 3398790704, 0.94064045, -0.20665467, -0.22901459, -0.14156882, 4.679929256439209, -3.9772939682006836, 7.924997806549072, 5.358330249786377, -1.7337429523468018, 2.3234946727752686, 
160, 3398807371, 0.94068044, -0.20664881, -0.22907037, -0.14122124, 4.648803234100342, -3.948786973953247, 7.951860427856445, 5.090869903564453, -2.100785732269287, 2.497276544570923, 
161, 3398824038, 0.9407139, -0.20665407, -0.22916576, -0.14083572, 4.681911945343018, -3.9870810508728027, 7.9441304206848145, 5.025262832641602, -2.371511697769165, 2.5203537940979004, 
162, 3398840705, 0.94075495, -0.20662333, -0.22925462, -0.14046091, 4.660811901092529, -3.987968921661377, 7.921744346618652, 5.3594069480896, -2.3330163955688477, 2.5534074306488037, 
163, 3398857372, 0.94081503, -0.20652188, -0.2293262, -0.14009012, 4.636619567871094, -4.03370475769043, 7.875172138214111, 5.824911117553711, -2.1115365028381348, 2.42295503616333, 
164, 3398874039, 0.9408974, -0.20629986, -0.22939298, -0.13975503, 4.647974491119385, -4.040314674377441, 7.873001575469971, 6.615120887756348, -1.8926825523376465, 2.044674873352051, 
165, 3398890706, 0.9409935, -0.2060268, -0.22941513, -0.13947396, 4.644281387329102, -3.9898340702056885, 7.936870098114014, 7.021838665008545, -1.5671839714050293, 1.9483330249786377, 
166, 3398907373, 0.94108546, -0.20573905, -0.22947986, -0.13917115, 4.632333278656006, -3.964587450027466, 7.971948146820068, 7.053829193115234, -1.7684102058410645, 1.7378860712051392, 
167, 3398924040, 0.94115007, -0.20554417, -0.2295541, -0.13889967, 4.634749889373779, -3.9412143230438232, 7.985898971557617, 6.488132953643799, -1.987962007522583, 1.7932862043380737, 
168, 3398940707, 0.9412044, -0.20541544, -0.22963975, -0.1385797, 4.676729679107666, -3.9330310821533203, 7.979820251464844, 5.992091178894043, -2.1121578216552734, 1.916137456893921, 
169, 3398957374, 0.9412458, -0.20532821, -0.22971986, -0.13829486, 4.657320976257324, -3.9708619117736816, 7.955872535705566, 5.790916442871094, -2.1774446964263916, 1.9575917720794678, 
170, 3398974041, 0.94129694, -0.20522897, -0.22978832, -0.1379802, 4.6474432945251465, -3.9660098552703857, 7.941824436187744, 5.8439483642578125, -2.0608556270599365, 1.9953832626342773, 
171, 3398990708, 0.9413464, -0.2051282, -0.22985972, -0.13767344, 4.654013633728027, -3.9588100910186768, 7.944377899169922, 5.865642070770264, -2.077324867248535, 1.9354623556137085, 
172, 3399007375, 0.94138193, -0.20508525, -0.22993833, -0.13736346, 4.634923458099365, -3.943530797958374, 7.977126121520996, 5.4615373611450195, -2.1832587718963623, 1.9506375789642334, 
173, 3399024042, 0.9414037, -0.20507808, -0.23001365, -0.13709874, 4.66463565826416, -3.9420464038848877, 7.960198402404785, 5.3359575271606445, -2.2832889556884766, 2.001671075820923, 
174, 3399040709, 0.9414171, -0.20511132, -0.23011017, -0.13679394, 4.643829345703125, -3.9487879276275635, 7.98576545715332, 4.968505382537842, -2.4045653343200684, 1.9618303775787354, 
175, 3399057376, 0.9414193, -0.20519848, -0.23017275, -0.13654308, 4.660733222961426, -3.929405689239502, 7.951627731323242, 4.682539939880371, -2.3023452758789062, 2.0236854553222656, 
176, 3399074043, 0.9414289, -0.2052768, -0.23026142, -0.13620839, 4.659348964691162, -3.9713056087493896, 7.952347755432129, 4.644453525543213, -2.389709711074829, 2.0559699535369873, 
177, 3399090710, 0.94142044, -0.20539202, -0.23036504, -0.13591877, 4.6385087966918945, -3.980890989303589, 7.946082592010498, 4.515827178955078, -2.6078531742095947, 2.0681357383728027, 
178, 3399107377, 0.9414189, -0.20547651, -0.23049718, -0.13557628, 4.6573638916015625, -4.002682209014893, 7.930481433868408, 4.675149917602539, -2.715925931930542, 2.0270016193389893, 
179, 3399124044, 0.9414132, -0.20555606, -0.23063688, -0.13525683, 4.6576948165893555, -3.957641124725342, 7.932508945465088, 4.7563300132751465, -2.7831339836120605, 1.9577453136444092, 
180, 3399140711, 0.9414109, -0.20562553, -0.23074667, -0.13497965, 4.64536190032959, -3.989229202270508, 7.932966709136963, 4.89990234375, -2.621812343597412, 1.9587825536727905, 
181, 3399157378, 0.94141436, -0.20567814, -0.23086311, -0.13467667, 4.651910305023193, -3.955155611038208, 7.94946813583374, 4.94867467880249, -2.592453718185425, 1.8680559396743774, 
182, 3399174045, 0.94140667, -0.2057813, -0.23098628, -0.13436069, 4.6781840324401855, -3.921943187713623, 7.948680877685547, 4.644741535186768, -2.7226812839508057, 2.0029709339141846, 
183, 3399190712, 0.9413957, -0.20592746, -0.23110057, -0.13401717, 4.666385650634766, -3.9633231163024902, 7.93893575668335, 4.388493537902832, -2.7408857345581055, 2.2210311889648438, 
184, 3399207379, 0.9413729, -0.20610902, -0.23118995, -0.1337439, 4.645471096038818, -3.9729342460632324, 7.937922477722168, 4.18690824508667, -2.6463875770568848, 2.109987497329712, 
185, 3399224046, 0.9413461, -0.2063061, -0.23130357, -0.13343169, 4.689258575439453, -3.9621689319610596, 7.934189319610596, 4.067118167877197, -2.8088362216949463, 2.158151865005493, 
186, 3399240713, 0.94131213, -0.2065325, -0.23142967, -0.13310243, 4.673133850097656, -3.9602129459381104, 7.942753314971924, 3.9372105598449707, -2.9691720008850098, 2.315657377243042, 
187, 3399257380, 0.9412757, -0.20676512, -0.2315692, -0.13275534, 4.663008213043213, -3.993382453918457, 7.933840751647949, 3.8552238941192627, -3.0342278480529785, 2.262382745742798, 
188, 3399274047, 0.9412297, -0.20701443, -0.23171781, -0.13243368, 4.689103126525879, -3.9681026935577393, 7.956970691680908, 3.8205056190490723, -3.163546323776245, 2.2701306343078613, 
189, 3399290714, 0.9411853, -0.20728187, -0.23182955, -0.13213497, 4.6955366134643555, -3.9746580123901367, 7.901626110076904, 3.7637479305267334, -2.9906351566314697, 2.3914449214935303, 
190, 3399307381, 0.9411539, -0.20754437, -0.23196135, -0.13171534, 4.684744834899902, -3.9895663261413574, 7.927504062652588, 3.5974326133728027, -2.9732697010040283, 2.420771598815918, 
191, 3399324048, 0.94111323, -0.20782241, -0.23204821, -0.13141337, 4.690218448638916, -3.974268674850464, 7.903125762939453, 3.7316038608551025, -2.862545967102051, 2.496546983718872, 
192, 3399340715, 0.9410839, -0.20809552, -0.23212712, -0.13105124, 4.683510780334473, -4.00034761428833, 7.890504837036133, 3.685821533203125, -2.7462515830993652, 2.5766122341156006, 
193, 3399357382, 0.9410517, -0.20836289, -0.2322024, -0.13072395, 4.675408840179443, -4.037736892700195, 7.917500019073486, 3.7604572772979736, -2.7381582260131836, 2.4869167804718018, 
194, 3399374049, 0.9410383, -0.20859484, -0.23227261, -0.13032559, 4.693359375, -4.009309768676758, 7.913841724395752, 3.8586432933807373, -2.5594325065612793, 2.4500598907470703, 
195, 3399390716, 0.94102305, -0.20884408, -0.23231566, -0.12995934, 4.691908836364746, -4.015626907348633, 7.897953033447266, 3.861524820327759, -2.484937906265259, 2.6000607013702393, 
196, 3399407383, 0.94101864, -0.20904325, -0.23236369, -0.12958431, 4.654163360595703, -4.063776969909668, 7.887290954589844, 4.164766311645508, -2.4266433715820312, 2.4696407318115234, 
197, 3399424050, 0.94103086, -0.20917943, -0.23242216, -0.12917122, 4.673412799835205, -4.0047993659973145, 7.897411346435547, 4.564106464385986, -2.3926169872283936, 2.420016288757324, 
198, 3399440717, 0.941036, -0.20934615, -0.23246177, -0.12879162, 4.67806339263916, -4.022378444671631, 7.899074077606201, 4.416500091552734, -2.3480889797210693, 2.466874361038208, 
199, 3399457384, 0.9410418, -0.20949288, -0.23253392, -0.12837912, 4.657442569732666, -4.0521039962768555, 7.8793134689331055, 4.501073360443115, -2.4974751472473145, 2.3736956119537354, 
200, 3399474051, 0.9410506, -0.20961279, -0.23260024, -0.12799907, 4.672625541687012, -4.046543598175049, 7.868395805358887, 4.763347625732422, -2.4799561500549316, 2.3425631523132324, 
201, 3399490718, 0.9410651, -0.20969748, -0.2326689, -0.12762746, 4.658671855926514, -4.052982807159424, 7.879976749420166, 4.988112926483154, -2.437375545501709, 2.2089803218841553, 
202, 3399507385, 0.9410751, -0.20977473, -0.23277178, -0.12723829, 4.690122604370117, -4.025293827056885, 7.902054786682129, 5.025519371032715, -2.6394076347351074, 2.135023355484009, 
203, 3399524052, 0.9410859, -0.2098599, -0.23285133, -0.1268726, 4.6780476570129395, -4.033468246459961, 7.895728588104248, 5.02512264251709, -2.5332436561584473, 2.190833806991577, 
204, 3399540719, 0.941098, -0.20994194, -0.23293684, -0.1264897, 4.677423000335693, -4.036951065063477, 7.887134552001953, 5.005503177642822, -2.5379817485809326, 2.1507112979888916, 
205, 3399557386, 0.94110346, -0.210027, -0.23303519, -0.12612507, 4.691969394683838, -4.027414798736572, 7.896090507507324, 4.983150482177734, -2.6224465370178223, 2.0345003604888916, 
206, 3399574053, 0.94111156, -0.2101159, -0.23311675, -0.1257655, 4.684290409088135, -4.025157928466797, 7.873142719268799, 5.00865364074707, -2.551518201828003, 2.134152889251709, 
207, 3399590720, 0.94111264, -0.21022193, -0.23318738, -0.12544951, 4.69537353515625, -4.018652439117432, 7.8807268142700195, 4.936451435089111, -2.531296968460083, 2.0834908485412598, 
208, 3399607387, 0.9411148, -0.21034643, -0.23325272, -0.12510285, 4.697994232177734, -4.02305269241333, 7.894073486328125, 4.846512317657471, -2.5404534339904785, 2.278301239013672, 
209, 3399624054, 0.9411637, -0.21037115, -0.23340769, -0.124401584, 4.677813529968262, -4.059707164764404, 7.880765438079834, 4.9132080078125, -2.5740320682525635, 2.1995294094085693, 
210, 3399640721, 0.9412048, -0.21040061, -0.23355117, -0.12377103, 4.6958160400390625, -4.050238132476807, 7.862814426422119, 4.997678756713867, -2.5860443115234375, 2.1526966094970703, 
211, 3399657388, 0.94124556, -0.21041983, -0.23367076, -0.12320073, 4.695379257202148, -4.022830963134766, 7.881171703338623, 5.113973140716553, -2.451129198074341, 2.0390400886535645, 
212, 3399674055, 0.94124776, -0.21052563, -0.23370281, -0.122940965, 4.698844909667969, -4.046908378601074, 7.898716926574707, 5.117737770080566, -2.4004158973693848, 2.200924873352051, 
213, 3399690722, 0.9412617, -0.21059982, -0.23377879, -0.12256278, 4.689147472381592, -4.052358627319336, 7.898543357849121, 5.120964527130127, -2.497603178024292, 2.123075008392334, 
214, 3399707389, 0.94128156, -0.21066026, -0.23388255, -0.12210703, 4.685723781585693, -4.040835380554199, 7.89546537399292, 5.083083629608154, -2.570740222930908, 2.0925447940826416, 
215, 3399724056, 0.9413248, -0.21068834, -0.2340085, -0.121483386, 4.68263578414917, -4.039106845855713, 7.868168830871582, 5.036648273468018, -2.4874095916748047, 2.1588432788848877, 
216, 3399740723, 0.941376, -0.21067284, -0.23415484, -0.12082974, 4.686248302459717, -4.053126335144043, 7.872665882110596, 5.271720886230469, -2.5261871814727783, 2.0464165210723877, 
217, 3399757390, 0.94144934, -0.21062511, -0.23431797, -0.120024145, 4.685666561126709, -4.039950847625732, 7.901261806488037, 5.196061134338379, -2.3896965980529785, 2.0254523754119873, 
218, 3399774057, 0.94150394, -0.2106039, -0.23443106, -0.11941006, 4.690216064453125, -4.057612895965576, 7.881875514984131, 5.302571773529053, -2.3008594512939453, 1.9452334642410278, 
219, 3399790724, 0.94152236, -0.21064757, -0.23447935, -0.119091496, 4.708061695098877, -4.01469087600708, 7.878756999969482, 5.305734634399414, -2.2695093154907227, 1.8304628133773804, 
220, 3399807391, 0.94158906, -0.21061449, -0.23458272, -0.11841701, 4.7083420753479, -4.044968128204346, 7.874558925628662, 5.2524614334106445, -2.129728317260742, 1.9424288272857666, 
221, 3399824058, 0.9416559, -0.21055903, -0.23467134, -0.11780793, 4.696812629699707, -4.06041955947876, 7.871689796447754, 5.492899417877197, -2.069307327270508, 1.8445751667022705, 
222, 3399840725, 0.9417215, -0.21048619, -0.23479737, -0.11715986, 4.695434093475342, -4.0450663566589355, 7.887912273406982, 5.580380439758301, -2.2734410762786865, 1.8141988515853882, 
223, 3399857392, 0.9417888, -0.21042246, -0.23487328, -0.11658115, 4.68725061416626, -4.029404163360596, 7.863032817840576, 5.652851581573486, -2.0519938468933105, 1.9057260751724243, 
224, 3399874059, 0.94186544, -0.21033344, -0.23498635, -0.115891404, 4.6858015060424805, -4.066750526428223, 7.866811752319336, 5.676389217376709, -2.161821126937866, 1.9397779703140259, 
225, 3399890726, 0.94194007, -0.2102377, -0.2350784, -0.1152713, 4.693918228149414, -4.05428409576416, 7.882793426513672, 5.788817405700684, -2.0632762908935547, 1.8256350755691528, 
226, 3399907393, 0.9420172, -0.210113, -0.23516229, -0.11469492, 4.697774887084961, -4.043813228607178, 7.875175476074219, 6.043816089630127, -2.021181583404541, 1.7335188388824463, 
227, 3399924060, 0.9421099, -0.20996438, -0.23524934, -0.11402619, 4.701586723327637, -4.04256534576416, 7.866263389587402, 6.065202713012695, -1.911136507987976, 1.788752555847168, 
228, 3399940727, 0.94219357, -0.20982015, -0.23529166, -0.113511145, 4.694940567016602, -4.047909736633301, 7.859954357147217, 6.200309753417969, -1.743834137916565, 1.607388973236084, 
229, 3399957394, 0.9422763, -0.20966353, -0.23536864, -0.112952925, 4.696648597717285, -4.014369010925293, 7.899563312530518, 6.244275093078613, -1.9268373250961304, 1.5925978422164917, 
230, 3399974061, 0.9423601, -0.2095257, -0.23544793, -0.11234175, 4.691275596618652, -4.0311079025268555, 7.886434078216553, 6.059401512145996, -1.9242630004882812, 1.7111589908599854, 
231, 3399990728, 0.94244903, -0.20936319, -0.23554014, -0.11170376, 4.668891906738281, -4.054798126220703, 7.873908519744873, 6.136585235595703, -1.9193837642669678, 1.5926618576049805, 
232, 3400007395, 0.9425301, -0.20920387, -0.23564072, -0.11110567, 4.699236869812012, -3.9901273250579834, 7.91731071472168, 6.167346477508545, -2.016622304916382, 1.511533498764038, 
233, 3400024062, 0.94259846, -0.20908764, -0.23574498, -0.11052046, 4.701110363006592, -3.987713575363159, 7.910225868225098, 5.933348655700684, -2.134812355041504, 1.6170834302902222, 
234, 3400040729, 0.94267124, -0.20898435, -0.23585428, -0.10986137, 4.678401947021484, -4.0159807205200195, 7.896960258483887, 5.769799709320068, -2.129831075668335, 1.7715795040130615, 
235, 3400057396, 0.9427351, -0.20889339, -0.23596847, -0.10923866, 4.687478065490723, -3.9961607456207275, 7.915057182312012, 5.6690263748168945, -2.1686723232269287, 1.6168402433395386, 
236, 3400074063, 0.94279224, -0.20884201, -0.23606193, -0.10864105, 4.700826644897461, -3.988262414932251, 7.907718658447266, 5.55772590637207, -2.189777135848999, 1.8872077465057373, 
237, 3400090730, 0.94284195, -0.20882967, -0.23616083, -0.10801691, 4.694374084472656, -4.0066022872924805, 7.897560119628906, 5.256853103637695, -2.2465732097625732, 1.9736250638961792, 
238, 3400107397, 0.94288176, -0.20883964, -0.23624778, -0.10745875, 4.6924872398376465, -4.01643705368042, 7.888833999633789, 5.193756580352783, -2.258406639099121, 1.9375370740890503, 
239, 3400124064, 0.94291645, -0.20886548, -0.23633805, -0.106904805, 4.689018249511719, -3.996201753616333, 7.89971923828125, 5.1739702224731445, -2.36177921295166, 2.080826997756958, 
240, 3400140731, 0.94296944, -0.20886645, -0.23643903, -0.10620893, 4.686051845550537, -4.009026050567627, 7.879203796386719, 5.1311469078063965, -2.254884719848633, 2.190833806991577, 
241, 3400157398, 0.9430086, -0.20888253, -0.23653883, -0.10560526, 4.706704616546631, -4.017375469207764, 7.884283065795898, 5.2041544914245605, -2.392514228820801, 2.169126510620117, 
242, 3400174065, 0.9430435, -0.20891774, -0.23660216, -0.1050801, 4.695702075958252, -4.0080952644348145, 7.888708591461182, 5.165685176849365, -2.240067958831787, 2.1414783000946045, 
243, 3400190732, 0.943095, -0.20889856, -0.23671006, -0.10441182, 4.690067768096924, -4.005895614624023, 7.887030124664307, 5.3058624267578125, -2.31022047996521, 2.1090776920318604, 
244, 3400207399, 0.94316036, -0.20884934, -0.23684263, -0.103615105, 4.671479225158691, -4.037436485290527, 7.86728048324585, 5.245596408843994, -2.2538344860076904, 2.0453662872314453, 
245, 3400224066, 0.9432094, -0.20882584, -0.2369561, -0.10295635, 4.704631805419922, -4.015750408172607, 7.899478435516357, 5.352632522583008, -2.3604989051818848, 2.084925413131714, 
246, 3400240733, 0.94326097, -0.2087894, -0.23707955, -0.102270454, 4.697291374206543, -4.012509822845459, 7.896132469177246, 5.388131618499756, -2.3779921531677246, 2.0590436458587646, 
247, 3400257400, 0.94330966, -0.20874825, -0.23721248, -0.101595454, 4.6914215087890625, -4.002690315246582, 7.908831596374512, 5.365898609161377, -2.399519443511963, 1.9050215482711792, 
248, 3400274067, 0.94333315, -0.20878832, -0.23725636, -0.101191334, 4.697018146514893, -4.022461414337158, 7.900040626525879, 5.329695224761963, -2.2737865447998047, 2.0826966762542725, 
249, 3400290734, 0.9433887, -0.20873515, -0.23736946, -0.10051562, 4.687078475952148, -4.017606258392334, 7.883638858795166, 5.500558376312256, -2.2984776496887207, 2.022801637649536, 
250, 3400307401, 0.9434479, -0.20866166, -0.23747517, -0.099862196, 4.676896572113037, -4.025323867797852, 7.883819103240967, 5.671069622039795, -2.2533929347991943, 1.9843379259109497, 
251, 3400324068, 0.9435118, -0.2085595, -0.23757584, -0.09922895, 4.698277950286865, -4.0388007164001465, 7.876510143280029, 5.8779425621032715, -2.2026796340942383, 1.900443434715271, 
252, 3400340735, 0.9435821, -0.20843618, -0.23768492, -0.098557174, 4.698768138885498, -4.025266647338867, 7.894967079162598, 5.923501491546631, -2.165278911590576, 1.8307833671569824, 
253, 3400357402, 0.94364494, -0.20833391, -0.23779537, -0.0979024, 4.706772327423096, -4.008917331695557, 7.894472599029541, 5.833613395690918, -2.2375833988189697, 1.8861196041107178, 
254, 3400374069, 0.94370914, -0.20821582, -0.23791243, -0.09724871, 4.693535327911377, -4.023128032684326, 7.881778240203857, 5.923871994018555, -2.254692316055298, 1.8186171054840088, 
255, 3400390736, 0.9437646, -0.20811191, -0.23799731, -0.096722834, 4.6917724609375, -4.000047206878662, 7.911121368408203, 6.0364789962768555, -2.2110612392425537, 1.7898670434951782, 
256, 3400407403, 0.94384193, -0.2079586, -0.23813489, -0.095957465, 4.698582172393799, -3.970252513885498, 7.903469085693359, 5.987212181091309, -2.2318973541259766, 1.8484686613082886, 
257, 3400424070, 0.9438974, -0.20788272, -0.23827085, -0.09523556, 4.68080472946167, -3.99069881439209, 7.921423435211182, 5.621577739715576, -2.42236590385437, 2.0814929008483887, 
258, 3400440737, 0.9439532, -0.2078112, -0.23842593, -0.094446905, 4.674040794372559, -3.9900946617126465, 7.912250995635986, 5.447347640991211, -2.452678680419922, 2.057481050491333, 
259, 3400457404, 0.94399804, -0.20778431, -0.23855397, -0.093731955, 4.697439193725586, -4.000833988189697, 7.898205757141113, 5.303417205810547, -2.441012144088745, 2.1823301315307617, 
260, 3400474071, 0.94403905, -0.20777386, -0.2386646, -0.0930583, 4.699761390686035, -4.005649089813232, 7.887829780578613, 5.28765344619751, -2.4134531021118164, 2.2542381286621094, 
261, 3400490738, 0.9440856, -0.20775038, -0.23876497, -0.09237806, 4.684787750244141, -4.005575656890869, 7.890304088592529, 5.298076152801514, -2.278435230255127, 2.1564483642578125, 
262, 3400507405, 0.9441109, -0.20777155, -0.23882371, -0.09192056, 4.69120979309082, -3.990536689758301, 7.898220062255859, 5.357305526733398, -2.312641143798828, 2.0991272926330566, 
263, 3400524072, 0.9441437, -0.20779589, -0.2388938, -0.09134329, 4.7008185386657715, -3.996835947036743, 7.911431312561035, 5.147602558135986, -2.256178140640259, 2.2120280265808105, 
264, 3400540739, 0.9441854, -0.2077895, -0.23900412, -0.09063484, 4.687933444976807, -4.018470764160156, 7.905323505401611, 5.133898735046387, -2.3345143795013428, 2.201552391052246, 
265, 3400557406, 0.94423395, -0.2077672, -0.23913158, -0.08984083, 4.709133625030518, -4.009609222412109, 7.904980659484863, 5.069791316986084, -2.3099517822265625, 2.1753761768341064, 
266, 3400574073, 0.944289, -0.20772563, -0.2392463, -0.0890497, 4.707972049713135, -3.9920411109924316, 7.8947906494140625, 5.210019588470459, -2.21441650390625, 2.1811392307281494, 
267, 3400590740, 0.9443268, -0.2077516, -0.2393005, -0.08844025, 4.709006309509277, -4.001477241516113, 7.886655807495117, 5.13181209564209, -2.1594901084899902, 2.378420829772949, 
268, 3400607407, 0.944387, -0.20770204, -0.23942362, -0.08757779, 4.691757678985596, -4.005673885345459, 7.889363765716553, 5.262923240661621, -2.267716646194458, 2.422602891921997, 
269, 3400624074, 0.94441473, -0.20773378, -0.23950091, -0.086989515, 4.685570240020752, -4.019341468811035, 7.909212112426758, 5.139764308929443, -2.36191987991333, 2.355523109436035, 
270, 3400640741, 0.9444363, -0.20777303, -0.23957339, -0.086461075, 4.702918529510498, -4.009380340576172, 7.892831802368164, 5.153953552246094, -2.3871867656707764, 2.2697973251342773, 
271, 3400657408, 0.9444728, -0.20778236, -0.23966604, -0.0857817, 4.700043678283691, -4.01113748550415, 7.904482841491699, 5.152045726776123, -2.3435816764831543, 2.40203595161438, 
272, 3400674075, 0.9445039, -0.20780395, -0.23975475, -0.08513531, 4.709721088409424, -3.985438823699951, 7.878634452819824, 5.111116886138916, -2.36309814453125, 2.3842225074768066, 
273, 3400690742, 0.9445422, -0.20782566, -0.23982947, -0.084444344, 4.70426607131958, -4.002942085266113, 7.889458179473877, 5.06108283996582, -2.234829902648926, 2.501438856124878, 
274, 3400707409, 0.9445992, -0.20779991, -0.23988822, -0.08369996, 4.702603340148926, -4.009421348571777, 7.881649017333984, 5.34478235244751, -2.0554003715515137, 2.595770835876465, 
275, 3400724076, 0.9446678, -0.20773982, -0.2399401, -0.08292353, 4.707394123077393, -4.021611213684082, 7.8785295486450195, 5.477513790130615, -1.904407024383545, 2.513765335083008, 
276, 3400740743, 0.9447099, -0.20774736, -0.23991327, -0.082502484, 4.64394474029541, -4.075714588165283, 7.882957458496094, 5.599269866943359, -1.875189185142517, 2.4434518814086914, 
277, 3400757410, 0.9447722, -0.20764679, -0.23998022, -0.081844375, 4.703848361968994, -3.9916720390319824, 7.9232869148254395, 5.873440265655518, -2.062610149383545, 2.1999900341033936, 
278, 3400774077, 0.9448165, -0.20760627, -0.24003229, -0.081280224, 4.67021369934082, -4.045652866363525, 7.900857448577881, 5.609809398651123, -2.133096218109131, 2.2277162075042725, 
279, 3400790744, 0.9448678, -0.20752268, -0.24012426, -0.080622636, 4.697651386260986, -3.988759994506836, 7.8918070793151855, 5.696661949157715, -2.209434986114502, 2.0892152786254883, 
280, 3400807411, 0.9449133, -0.20745918, -0.24021843, -0.079969645, 4.6947832107543945, -4.005037307739258, 7.921935558319092, 5.597311019897461, -2.2746834754943848, 2.169447422027588, 
281, 3400824078, 0.9449666, -0.20739171, -0.24033993, -0.07914722, 4.687171459197998, -3.985886335372925, 7.885189533233643, 5.355705261230469, -2.259981632232666, 2.2932076454162598, 
282, 3400840745, 0.94499826, -0.20736484, -0.24046779, -0.078447685, 4.6833720207214355, -4.0240020751953125, 7.905261039733887, 5.351877212524414, -2.5460758209228516, 2.354588747024536, 
283, 3400857412, 0.9450105, -0.20742634, -0.24060938, -0.07770178, 4.700619697570801, -3.913750410079956, 7.940617561340332, 4.7771782875061035, -2.7410261631011963, 2.6843771934509277, 
284, 3400874079, 0.9449605, -0.20770274, -0.24080788, -0.07695226, 4.681804180145264, -3.877530097961426, 7.948785781860352, 3.534463405609131, -3.492298126220703, 3.303295850753784, 
285, 3400890746, 0.9448174, -0.20833635, -0.24110264, -0.07606676, 4.7020134925842285, -3.8231186866760254, 7.990516662597656, 1.2516672611236572, -4.58483362197876, 4.433597564697266, 
286, 3400907413, 0.944585, -0.20928636, -0.24153623, -0.074962966, 4.681311130523682, -3.869696855545044, 7.9407525062561035, -0.9989530444145203, -5.747189521789551, 5.330055236816406, 
287, 3400924080, 0.9441982, -0.21079595, -0.24210162, -0.07377163, 4.729212284088135, -3.75421142578125, 8.010577201843262, -4.384248733520508, -7.472949504852295, 7.000644207000732, 
288, 3400940747, 0.94370127, -0.21271782, -0.24273932, -0.072509915, 4.716494083404541, -3.969792127609253, 7.913942337036133, -6.976078033447266, -8.517182350158691, 8.16133975982666, 
289, 3400957414, 0.9431542, -0.21485396, -0.24338523, -0.07115093, 4.740292549133301, -4.028689384460449, 7.858590602874756, -8.459746360778809, -8.768365859985352, 8.827178955078125, 
290, 3400974081, 0.94257313, -0.2171366, -0.24396978, -0.06991, 4.743621826171875, -4.15125846862793, 7.793874263763428, -9.209060668945312, -8.697267532348633, 9.172350883483887, 
291, 3400990748, 0.9420138, -0.21935365, -0.244568, -0.06841969, 4.750945568084717, -4.19212007522583, 7.764118671417236, -9.162215232849121, -8.440447807312012, 9.325156211853027, 
292, 3401007415, 0.941462, -0.22154954, -0.24506794, -0.06713911, 4.730555057525635, -4.365848541259766, 7.695481300354004, -8.889091491699219, -7.875636100769043, 8.937429428100586, 
293, 3401024082, 0.94096476, -0.22352006, -0.24550653, -0.06596702, 4.7324442863464355, -4.394612789154053, 7.648439884185791, -7.519591808319092, -7.146196365356445, 8.033299446105957, 
294, 3401040749, 0.9405041, -0.2253558, -0.24589404, -0.0648384, 4.724752426147461, -4.377955913543701, 7.645163536071777, -6.783263683319092, -6.546500205993652, 7.469127655029297, 
295, 3401057416, 0.94008684, -0.22700462, -0.24624117, -0.06381251, 4.677212715148926, -4.532577037811279, 7.603653430938721, -5.6437668800354, -6.011462688446045, 6.659304141998291, 
296, 3401074083, 0.9397291, -0.22838403, -0.24657318, -0.0628706, 4.773364067077637, -4.487310886383057, 7.588501930236816, -3.923450231552124, -5.591361999511719, 5.760348320007324, 
297, 3401090750, 0.93940663, -0.22963604, -0.24685553, -0.062015958, 4.780170917510986, -4.425724983215332, 7.609421253204346, -2.8770179748535156, -5.293090343475342, 5.608325004577637, 
298, 3401107417, 0.9390812, -0.23090428, -0.24713661, -0.061108183, 4.791797161102295, -4.388179302215576, 7.638603210449219, -3.1437485218048096, -5.175924777984619, 5.594135284423828, 
299, 3401124084, 0.9387521, -0.23218353, -0.24740845, -0.0602121, 4.7839837074279785, -4.462817192077637, 7.592686176300049, -3.248837471008301, -5.10843563079834, 5.553321838378906, 
300, 3401140751, 0.9384643, -0.23334529, -0.2476577, -0.05917389, 4.790974140167236, -4.503496170043945, 7.547130584716797, -2.4289743900299072, -4.871363162994385, 5.959832191467285, 
301, 3401157418, 0.93820304, -0.23447365, -0.2478059, -0.058227353, 4.837460517883301, -4.470945358276367, 7.545557975769043, -1.8121179342269897, -4.481141090393066, 6.363463401794434, 
302, 3401174085, 0.9379962, -0.2354991, -0.2478682, -0.057151232, 4.809348106384277, -4.529553413391113, 7.517430305480957, -1.1761161088943481, -3.746581554412842, 6.7197747230529785, 
303, 3401190752, 0.93782216, -0.2363717, -0.2479427, -0.056069583, 4.52607536315918, -4.834415912628174, 7.47065544128418, -0.14943093061447144, -3.6974310874938965, 6.4539666175842285, 
304, 3401207419, 0.9376755, -0.23689836, -0.24821632, -0.055082027, 4.708558559417725, -4.690115928649902, 7.51597261428833, 1.760117769241333, -4.402945518493652, 4.4890875816345215, 
305, 3401224086, 0.93754786, -0.23733611, -0.24848104, -0.054168116, 4.718802452087402, -4.610866546630859, 7.520655632019043, 2.3737213611602783, -4.281105995178223, 4.0991716384887695, 
306, 3401240753, 0.9374164, -0.23776905, -0.24876319, -0.053243253, 4.773064136505127, -4.552210330963135, 7.536398887634277, 2.5237221717834473, -4.501362323760986, 4.294315338134766, 
307, 3401257420, 0.9372841, -0.2381838, -0.24909674, -0.05214586, 4.782200813293457, -4.508682727813721, 7.550047397613525, 2.6429104804992676, -4.845736980438232, 4.814675807952881, 
308, 3401274087, 0.9371341, -0.23867013, -0.2494274, -0.05102583, 4.737606525421143, -4.572183132171631, 7.561000347137451, 2.4050521850585938, -5.10873556137085, 5.431116580963135, 
309, 3401290754, 0.9369948, -0.23914099, -0.24969135, -0.050082754, 4.7081193923950195, -4.669466495513916, 7.499258518218994, 2.6895899772644043, -4.799442291259766, 5.15866756439209, 
310, 3401307421, 0.936883, -0.23941484, -0.25004768, -0.049075674, 4.609188079833984, -4.81624698638916, 7.452365398406982, 3.6351730823516846, -4.941812038421631, 4.29709529876709, 
311, 3401324088, 0.9368209, -0.23933631, -0.25051826, -0.04823769, 4.668452739715576, -4.817116737365723, 7.465525150299072, 5.525940895080566, -5.0146026611328125, 2.102790117263794, 
312, 3401340755, 0.9368387, -0.2390774, -0.25078827, -0.04777191, 4.793970108032227, -4.77365255355835, 7.389413833618164, 6.801568984985352, -3.5123021602630615, 0.8179673552513123, 
313, 3401357422, 0.9369362, -0.23860471, -0.2509691, -0.04727123, 4.767006874084473, -4.53360652923584, 7.47023868560791, 8.015162467956543, -2.496502161026001, 0.338676780462265, 
314, 3401374089, 0.9369998, -0.23825262, -0.25117308, -0.046698853, 4.648189544677734, -4.576099872589111, 7.6026763916015625, 7.1590070724487305, -2.730333089828491, 0.7311658263206482, 
315, 3401390756, 0.9370368, -0.23802586, -0.2513884, -0.045947533, 4.8563666343688965, -4.450115203857422, 7.547812461853027, 6.029037952423096, -2.6808364391326904, 1.1630343198776245, 
316, 3401407423, 0.93706447, -0.23798418, -0.2514482, -0.045270417, 4.874721050262451, -4.473123073577881, 7.507330417633057, 5.142864227294922, -2.067310094833374, 2.0508856773376465, 
317, 3401424090, 0.9371395, -0.23791783, -0.25135124, -0.04459875, 4.83715295791626, -4.593682289123535, 7.411505222320557, 5.5154643058776855, -1.128296971321106, 2.5611672401428223, 
318, 3401440757, 0.9372987, -0.2376463, -0.25114334, -0.043865677, 4.828441143035889, -4.641306400299072, 7.4343342781066895, 6.780412197113037, -0.07250315696001053, 2.4021384716033936, 
319, 3401457424, 0.9375038, -0.23727755, -0.25083283, -0.043252837, 4.753783702850342, -4.644647598266602, 7.50224494934082, 7.507673263549805, 0.667185366153717, 2.0596582889556885, 
320, 3401474091, 0.93765193, -0.23704703, -0.25061464, -0.042566545, 4.794369220733643, -4.450842380523682, 7.604017734527588, 6.402714252471924, 0.05113575980067253, 2.17775821685791, 
321, 3401490758, 0.9376929, -0.2371191, -0.2505065, -0.041896705, 4.7525434494018555, -4.511968612670898, 7.6129961013793945, 4.481274604797363, -1.0837565660476685, 2.712448835372925, 
322, 3401507425, 0.9376535, -0.23733829, -0.25060242, -0.04094983, 4.758331775665283, -4.546408176422119, 7.621042728424072, 3.0858566761016846, -2.297619342803955, 3.0714111328125, 
323, 3401524092, 0.9375306, -0.23778346, -0.25075692, -0.040232275, 4.707493782043457, -4.617880821228027, 7.6110758781433105, 1.940840721130371, -3.232316493988037, 3.173772096633911, 
324, 3401540759, 0.9373087, -0.23848979, -0.25102398, -0.03954897, 4.764889240264893, -4.469076156616211, 7.637420177459717, 0.2554098963737488, -4.312135219573975, 3.4957239627838135, 
325, 3401557426, 0.9369556, -0.23959468, -0.25141966, -0.03871853, 4.744156360626221, -4.515069961547852, 7.617300033569336, -2.463186264038086, -5.5283989906311035, 4.551998615264893, 
326, 3401574093, 0.936576, -0.2407707, -0.25184876, -0.037809733, 4.73985481262207, -4.736562252044678, 7.463215351104736, -3.0532584190368652, -5.7404022216796875, 4.768803596496582, 
327, 3401590760, 0.9362261, -0.24178185, -0.25230157, -0.0369925, 4.729195594787598, -4.798432350158691, 7.437241554260254, -2.054029703140259, -5.67996883392334, 3.9298207759857178, 
328, 3401607427, 0.93589646, -0.24273272, -0.25269336, -0.03642894, 4.773371696472168, -4.7456865310668945, 7.429926872253418, -1.428260326385498, -5.399407386779785, 3.325758218765259, 
329, 3401624094, 0.9355917, -0.24359562, -0.25309002, -0.035738826, 4.82268762588501, -4.705263137817383, 7.424911022186279, -1.0959738492965698, -5.134315490722656, 3.2186074256896973, 
330, 3401640761, 0.9353332, -0.24433993, -0.25341663, -0.035106044, 4.802943229675293, -4.767667293548584, 7.379092693328857, -0.17341718077659607, -4.655063629150391, 3.0896215438842773, 
331, 3401657428, 0.93512744, -0.24495296, -0.2536776, -0.034421332, 4.826046943664551, -4.729000568389893, 7.364843845367432, 0.7276440262794495, -4.098909378051758, 3.155792474746704, 
332, 3401674095, 0.9350057, -0.24529901, -0.25389895, -0.033617616, 4.757392406463623, -4.933140277862549, 7.288050174713135, 2.319716691970825, -3.417585849761963, 2.8312792778015137, 
333, 3401690762, 0.9349924, -0.245313, -0.2540072, -0.033067044, 4.774548053741455, -4.918443202972412, 7.327997207641602, 4.5929083824157715, -2.3723061084747314, 1.4933358430862427, 
334, 3401707429, 0.9350645, -0.24511124, -0.25399292, -0.032626696, 4.8307342529296875, -4.81875467300415, 7.281676292419434, 6.022788047790527, -1.3030654191970825, 0.8158413767814636, 
335, 3401724096, 0.93525034, -0.24461862, -0.25383878, -0.032191247, 4.83964729309082, -4.835717678070068, 7.326200485229492, 7.95985221862793, -0.050040822476148605, 0.4089324176311493, 
336, 3401740763, 0.93553424, -0.24388896, -0.25353983, -0.031839024, 4.808466911315918, -4.829258918762207, 7.3160881996154785, 9.627419471740723, 1.1082874536514282, -0.028423702344298363, 
337, 3401757430, 0.9359791, -0.24273075, -0.25303313, -0.031639293, 4.797002792358398, -5.012373447418213, 7.262388706207275, 12.536385536193848, 2.9060440063476562, -1.069785475730896, 
338, 3401774097, 0.93655556, -0.24110423, -0.25246963, -0.03151804, 4.813035488128662, -4.56655740737915, 7.475492000579834, 15.455089569091797, 3.8952343463897705, -2.531388521194458, 
339, 3401790764, 0.9368923, -0.24024713, -0.25208825, -0.031106805, 4.786454200744629, -4.235255241394043, 7.7503252029418945, 10.510174751281738, 1.7756520509719849, 0.12066146731376648, 
340, 3401807431, 0.9370199, -0.24000315, -0.2519084, -0.030601189, 4.740334510803223, -4.37168025970459, 7.697597980499268, 6.590738296508789, -0.33970770239830017, 1.7145912647247314, 
341, 3401824098, 0.93696684, -0.24029714, -0.25190708, -0.029918954, 4.752237319946289, -4.467867851257324, 7.600815773010254, 2.9143412113189697, -1.989255428314209, 3.0707967281341553, 
342, 3401840765, 0.93678033, -0.2410479, -0.25197184, -0.029164968, 4.7742509841918945, -4.417787551879883, 7.581788063049316, -0.13411451876163483, -2.8472938537597656, 4.172501564025879, 
343, 3401857432, 0.93645054, -0.24220954, -0.25215477, -0.028544445, 4.561591148376465, -4.663144111633301, 7.60636043548584, -2.8103599548339844, -4.095592498779297, 4.472527980804443, 
344, 3401874099, 0.93595034, -0.24376915, -0.25258705, -0.027841408, 4.7374372482299805, -4.480217933654785, 7.652091026306152, -5.868990898132324, -5.8573760986328125, 4.617778778076172, 
345, 3401890766, 0.93525386, -0.2459178, -0.25317675, -0.026976995, 4.722179889678955, -4.471785068511963, 7.721712589263916, -10.168844223022461, -7.1600799560546875, 5.6296491622924805, 
346, 3401907433, 0.9343174, -0.24886122, -0.2538168, -0.026417835, 4.764149188995361, -4.561314105987549, 7.636517524719238, -15.50680923461914, -8.183042526245117, 6.040544033050537, 
347, 3401924100, 0.9332198, -0.25226226, -0.2545394, -0.025996769, 4.737916946411133, -4.869955062866211, 7.450204372406006, -19.366914749145508, -8.46497917175293, 5.149877548217773, 
348, 3401940767, 0.93204826, -0.25581154, -0.25527972, -0.026085034, 4.609471321105957, -5.194140911102295, 7.3045830726623535, -20.951154708862305, -8.2095947265625, 2.694396734237671, 
349, 3401957434, 0.93082726, -0.25916052, -0.25629973, -0.02661559, 4.545256614685059, -5.317504405975342, 7.31550407409668, -20.728260040283203, -9.035388946533203, -1.3816988468170166, 
350, 3401974101, 0.9294874, -0.26255473, -0.25759184, -0.027679166, 4.697067737579346, -5.2363128662109375, 7.317244529724121, -22.21440887451172, -9.94798755645752, -5.377071380615234, 
351, 3401990768, 0.92797875, -0.26621398, -0.25907242, -0.029472526, 4.762556076049805, -5.364034652709961, 7.1649556159973145, -25.341209411621094, -10.29919719696045, -9.759113311767578, 
352, 3402007435, 0.9264062, -0.2697133, -0.2607314, -0.03235686, 4.6826677322387695, -5.386152744293213, 7.1223249435424805, -26.136735916137695, -9.71026611328125, -17.045040130615234, 
353, 3402024102, 0.9246592, -0.27349055, -0.26255366, -0.035711195, 4.834911823272705, -5.13203763961792, 7.139013290405273, -29.03985023498535, -10.236554145812988, -19.90353775024414, 
354, 3402040769, 0.9225468, -0.27776027, -0.2649812, -0.039281562, 4.98616886138916, -5.340744495391846, 6.839656352996826, -32.635215759277344, -14.894354820251465, -20.960437774658203, 
355, 3402057436, 0.92041206, -0.28124964, -0.2679103, -0.044336926, 3.444789171218872, -5.9049391746521, 7.52897310256958, -30.864891052246094, -14.509256362915039, -33.576351165771484, 
356, 3402074103, 0.9175071, -0.284525, -0.2734374, -0.04959218, 5.55429220199585, -5.377967357635498, 7.162616729736328, -30.69667625427246, -31.819730758666992, -40.69837188720703, 
357, 3402090770, 0.91413176, -0.28762373, -0.2805612, -0.054058395, 4.909858226776123, -4.770864486694336, 7.39762020111084, -28.520605087280273, -44.2082633972168, -39.3846549987793, 
358, 3402107437, 0.9102197, -0.29069006, -0.2893075, -0.05746394, 5.3623504638671875, -4.905261039733887, 7.202718257904053, -27.09597396850586, -57.22501754760742, -36.61439895629883, 
359, 3402124104, 0.9061605, -0.2926982, -0.29922816, -0.060537584, 4.837810516357422, -5.890804290771484, 6.553320407867432, -18.932899475097656, -65.75200653076172, -38.162559509277344, 
360, 3402140771, 0.9025174, -0.29314274, -0.30898845, -0.063697144, 6.01839017868042, -5.550393581390381, 5.395115852355957, -9.177966117858887, -62.58292770385742, -42.117591857910156, 
361, 3402157438, 0.89953727, -0.29258415, -0.3174176, -0.06689155, 6.5591349601745605, -5.006070613861084, 5.107161045074463, -2.3278019428253174, -52.33342742919922, -41.55195236206055, 
362, 3402174105, 0.89735514, -0.29113132, -0.32424143, -0.069748566, 6.591036796569824, -4.818271636962891, 5.040266513824463, 5.196259021759033, -41.20277404785156, -37.39655685424805, 
363, 3402190772, 0.89594597, -0.2889043, -0.32959974, -0.071973674, 6.651013374328613, -4.689526081085205, 5.667480945587158, 12.46749210357666, -31.4763126373291, -31.67470932006836, 
364, 3402207439, 0.894946, -0.28547335, -0.3348861, -0.07368089, 6.001121997833252, -5.7434401512146, 6.01496696472168, 20.927087783813477, -29.865293502807617, -31.750110626220703, 
365, 3402224106, 0.8936106, -0.2811347, -0.3415969, -0.075737365, 6.1509904861450195, -6.003917217254639, 6.93577241897583, 24.63277244567871, -37.4782829284668, -40.07365417480469, 
366, 3402240773, 0.8905974, -0.2770421, -0.35183808, -0.07933961, 5.430152416229248, -6.438783168792725, 8.454962730407715, 19.750408172607422, -61.42170715332031, -55.10293960571289, 
367, 3402257440, 0.88469034, -0.27319783, -0.3681657, -0.08450509, 4.852263450622559, -6.75114631652832, 9.68753719329834, 12.38129997253418, -102.98738098144531, -77.17574310302734, 
368, 3402274107, 0.87442416, -0.27041855, -0.39228624, -0.091481246, 4.890086650848389, -6.279813766479492, 10.931900024414062, -0.8235137462615967, -159.6006622314453, -101.48666381835938, 
369, 3402290774, 0.8577354, -0.26930252, -0.42635977, -0.09992475, 4.019677639007568, -5.879513263702393, 12.12160587310791, -25.058359146118164, -232.84213256835938, -131.82647705078125, 
370, 3402307441, 0.831647, -0.27044082, -0.47172216, -0.112714164, 2.5921432971954346, -6.868283748626709, 12.07307243347168, -61.208412170410156, -320.75714111328125, -178.1741180419922, 
371, 3402324108, 0.7951219, -0.26706392, -0.5284893, -0.13098826, 0.94063401222229, -11.328568458557129, 10.221349716186523, -62.81574630737305, -407.09808349609375, -252.79710388183594, 
372, 3402340775, 0.74991685, -0.24735129, -0.5949085, -0.15008987, 2.4203662872314453, -10.154937744140625, 6.91246223449707, 11.831171989440918, -474.71002197265625, -343.52734375, 
373, 3402357442, 0.70344424, -0.21670543, -0.65517056, -0.17016917, 26.066225051879883, -5.821766376495361, 2.4913129806518555, 61.452693939208984, -436.7790222167969, -382.7828369140625, 
374, 3402374109, 0.6748602, -0.18577018, -0.6898365, -0.18487771, 27.347814559936523, -16.876951217651367, 5.239964485168457, 84.69371032714844, -239.77513122558594, -298.7109680175781, 
375, 3402390776, 0.6612726, -0.15024182, -0.7108356, -0.18670702, 13.87748908996582, -12.857268333435059, 9.61622142791748, 168.4215087890625, -115.911865234375, -224.4689483642578, 
376, 3402407443, 0.6698862, -0.12761576, -0.70681393, -0.18810031, 15.124402046203613, -5.5356903076171875, 13.230613708496094, 102.69288635253906, 89.06832122802734, -105.2740707397461, 
377, 3402424110, 0.6936223, -0.10564376, -0.6821982, -0.20575222, -12.808637619018555, -3.704806327819824, 4.551194667816162, 7.516923904418945, 270.56805419921875, -139.49624633789062, 
378, 3402440777, 0.71436346, -0.073414505, -0.6621107, -0.21425557, -4.625490665435791, -10.111959457397461, -0.3064703643321991, 103.87259674072266, 242.66883850097656, -151.47911071777344, 
379, 3402457444, 0.73569316, -0.057423063, -0.6381524, -0.21959192, -3.816068410873413, 4.196506500244141, 1.8237745761871338, 33.34687423706055, 238.80775451660156, -59.25787353515625, 
380, 3402474111, 0.7547348, -0.05609335, -0.61623627, -0.21790533, -3.8627943992614746, -8.944917678833008, -0.8113795518875122, -7.691885948181152, 193.4601593017578, 36.54399871826172, 
381, 3402490778, 0.7711144, -0.06381149, -0.59927607, -0.20537673, -1.4584842920303345, -3.7001404762268066, 0.5923231840133667, -2.205409526824951, 138.72633361816406, 125.13594818115234, 
382, 3402507445, 0.78664327, -0.079249375, -0.5828797, -0.18752038, 1.2066675424575806, -2.803229808807373, 2.003850221633911, -20.740114212036133, 118.96278381347656, 183.7386474609375, 
383, 3402524112, 0.80191, -0.09851849, -0.564726, -0.16828519, 1.5698895454406738, -2.0142409801483154, 3.3904523849487305, -38.35726547241211, 121.6840591430664, 207.1591339111328, 
384, 3402540779, 0.8170128, -0.11715885, -0.5442332, -0.15024972, 2.8997914791107178, -2.534456729888916, 4.047374725341797, -42.382015228271484, 135.42117309570312, 199.48695373535156, 
385, 3402557446, 0.832159, -0.13229893, -0.5209338, -0.13651839, 4.67299747467041, -2.155818223953247, 4.058433532714844, -41.67903137207031, 158.37684631347656, 164.4911651611328, 
386, 3402574113, 0.84704036, -0.14342692, -0.4958313, -0.12689818, 5.477176666259766, -2.677489995956421, 3.66859769821167, -35.343040466308594, 175.21929931640625, 127.98960876464844, 
387, 3402590780, 0.8599897, -0.15206926, -0.4720877, -0.120111, 4.296485900878906, -1.8780581951141357, 3.051143169403076, -31.18421173095703, 165.67176818847656, 99.9941177368164, 
388, 3402607447, 0.8694021, -0.16189349, -0.4521852, -0.11601705, 4.209184169769287, -0.4656420946121216, 1.8929133415222168, -47.39007568359375, 133.32191467285156, 80.98509979248047, 
389, 3402624114, 0.87409186, -0.1737793, -0.4391778, -0.11352559, 4.797422885894775, -0.46393927931785583, 0.4144172966480255, -64.43712615966797, 77.60710906982422, 66.39962768554688, 
390, 3402640781, 0.8737595, -0.18758711, -0.43515286, -0.10953659, 7.909463882446289, 0.3102283179759979, 0.040423206984996796, -70.4711685180664, 5.265685081481934, 66.56253814697266, 
391, 3402657448, 0.86954993, -0.20603119, -0.43723047, -0.10131299, 13.613859176635742, 0.4981408417224884, -0.045774392783641815, -86.13729858398438, -51.80667495727539, 95.1103515625, 
392, 3402674115, 0.8639471, -0.2263077, -0.4411602, -0.08808426, 18.16694450378418, -1.2384995222091675, -0.9012100696563721, -82.84112548828125, -75.23176574707031, 127.014892578125, 
393, 3402690782, 0.85839856, -0.24375407, -0.445607, -0.07191044, 19.111129760742188, -1.0891414880752563, -1.5523600578308105, -56.78352737426758, -80.75682830810547, 135.23780822753906, 
394, 3402707449, 0.8533279, -0.25530836, -0.45129666, -0.054604053, 19.301273345947266, -0.15938355028629303, -1.5365777015686035, -17.191497802734375, -85.37039184570312, 122.14397430419922, 
395, 3402724116, 0.8481762, -0.26560646, -0.4567291, -0.038075406, 20.482473373413086, 3.8336212635040283, -0.5532095432281494, -12.539169311523438, -82.0557861328125, 114.26728820800781, 
396, 3402740783, 0.841851, -0.27918896, -0.46118233, -0.025541183, 19.26530647277832, 6.754609107971191, 0.37452712655067444, -46.72998809814453, -73.38520050048828, 103.02323150634766, 
397, 3402757450, 0.8338556, -0.295725, -0.46560925, -0.020987034, 18.348295211791992, 8.53318977355957, 0.6970210075378418, -92.4477767944336, -63.54541778564453, 66.2554702758789, 
398, 3402774117, 0.8260778, -0.31049833, -0.4696018, -0.025712695, 20.112808227539062, 7.007192611694336, 0.5007838606834412, -111.77101135253906, -41.06958770751953, 8.656722068786621, 
399, 3402790784, 0.823543, -0.3158329, -0.4696303, -0.03840257, 19.180313110351562, 4.314637184143066, -0.26650941371917725, -73.44842529296875, 17.207622528076172, -57.3242073059082, 
400, 3402807451, 0.8239383, -0.31493226, -0.46788168, -0.055055816, 14.814029693603516, 5.46396017074585, -2.2924351692199707, -45.08269119262695, 47.13848114013672, -94.9798355102539, 
401, 3402824118, 0.8207077, -0.31352797, -0.472548, -0.06955829, 10.251379013061523, 2.614734172821045, -5.425137042999268, -40.76287841796875, -5.1873087882995605, -99.41896057128906, 
402, 3402840785, 0.8187592, -0.31083104, -0.47867906, -0.06232708, 19.37590789794922, -18.54545783996582, -10.04496955871582, 40.63417053222656, -55.35332489013672, 16.626989364624023, 
403, 3402857452, 0.8342933, -0.30050912, -0.45988852, -0.04639391, 29.904916763305664, 12.350245475769043, 7.763181209564209, 139.13330078125, 127.48079681396484, 101.14862823486328, 
404, 3402874119, 0.851407, -0.30235416, -0.42706367, -0.036135808, 18.996471405029297, -26.07909393310547, 8.914353370666504, 50.01153564453125, 220.92933654785156, 137.07525634765625, 
405, 3402890786, 0.87677866, -0.28120118, -0.38974938, -0.016778288, -6.048581600189209, -14.221756935119629, 11.849044799804688, 227.65211486816406, 258.3440856933594, 133.9849090576172, 
406, 3402907453, 0.8930433, -0.26682657, -0.36215526, -0.01103757, 11.635397911071777, -4.971391201019287, 7.832354545593262, 133.78256225585938, 200.55740356445312, 49.87739562988281, 
407, 3402924120, 0.90604395, -0.26174432, -0.33227643, -0.012944269, 3.0401692390441895, -3.6100759506225586, 8.966418266296387, 51.49019241333008, 219.79415893554688, 30.05643653869629, 
408, 3402940787, 0.9160554, -0.26234066, -0.30292344, -0.016063705, 6.483384132385254, -2.5240373611450195, 8.021900177001953, 7.967311382293701, 211.27244567871094, 34.26166534423828, 
409, 3402957454, 0.92551255, -0.25797603, -0.27673724, -0.017094016, 3.2883121967315674, -6.0371928215026855, 10.093257904052734, 42.8737678527832, 186.92303466796875, 31.362735748291016, 
410, 3402974121, 0.9334862, -0.24877056, -0.25764093, -0.018401023, 2.1182522773742676, -9.219348907470703, 11.143559455871582, 71.34343719482422, 139.96302795410156, 7.608916282653809, 
411, 3402990788, 0.93968195, -0.23476441, -0.24779664, -0.021937052, 1.7799592018127441, -6.524600982666016, 12.803461074829102, 96.36383056640625, 81.76200866699219, -31.32998275756836, 
412, 3403007455, 0.9413055, -0.22966906, -0.24624379, -0.02368699, 4.252408504486084, 0.2376728355884552, 11.965579986572266, 35.686424255371094, 16.072818756103516, -18.732988357543945, 
413, 3403024122, 0.940977, -0.2301526, -0.24702875, -0.02386998, 5.268427848815918, -1.5754163265228271, 9.185677528381348, -0.5748450756072998, -5.801321506500244, -3.115842580795288, 
414, 3403040789, 0.9400452, -0.23352626, -0.24744983, -0.023455527, 5.405854225158691, -3.587465524673462, 7.7485527992248535, -19.326086044311523, -5.901988506317139, 6.165318965911865, 
415, 3403057456, 0.939261, -0.23747136, -0.24668396, -0.023325382, 5.8254828453063965, -3.326267719268799, 7.406818866729736, -23.469482421875, 2.390592098236084, 7.246026515960693, 
416, 3403074123, 0.938305, -0.2424602, -0.24552032, -0.022746094, 4.979442119598389, -3.5751242637634277, 7.9283037185668945, -29.807472229003906, 3.78316330909729, 12.558965682983398, 
417, 3403090790, 0.93701494, -0.24788044, -0.24515626, -0.0213949, 4.612704753875732, -4.604866027832031, 7.626189231872559, -31.734798431396484, -3.296196699142456, 16.894866943359375, 
418, 3403107457, 0.935789, -0.25248554, -0.24524021, -0.020205662, 4.239424705505371, -5.588415622711182, 7.251475811004639, -26.58114242553711, -5.682419300079346, 13.721792221069336, 
419, 3403124124, 0.9348055, -0.25559276, -0.24582833, -0.01950573, 4.48436164855957, -5.437983512878418, 7.198672771453857, -17.2615966796875, -7.464390277862549, 7.192248821258545, 
420, 3403140791, 0.9341164, -0.25755924, -0.24643548, -0.01898148, 4.837900161743164, -5.018791198730469, 7.080541610717773, -9.694674491882324, -6.628781795501709, 4.131369113922119, 
421, 3403157458, 0.9337422, -0.25866508, -0.24672799, -0.018548343, 4.962647438049316, -4.7787981033325195, 7.0935540199279785, -3.8002912998199463, -3.795987844467163, 2.6841087341308594, 
422, 3403174125, 0.9336982, -0.25893238, -0.24664064, -0.018202107, 4.8084588050842285, -4.870622158050537, 7.171998023986816, 1.9759814739227295, -0.5302021503448486, 1.4239764213562012, 
423, 3403190792, 0.9338495, -0.25850788, -0.24652229, -0.018064432, 4.734013080596924, -4.903478145599365, 7.296571254730225, 6.409719467163086, 0.46069568395614624, -1.007290005683899, 
424, 3403207459, 0.93405944, -0.25768277, -0.24657203, -0.018317368, 4.573160171508789, -4.953826904296875, 7.527587890625, 8.445917129516602, 0.22408556938171387, -4.48882532119751, 
425, 3403224126, 0.9341714, -0.25682092, -0.2469917, -0.019051433, 4.586587429046631, -4.922587871551514, 7.548879146575928, 7.738918781280518, -1.4627994298934937, -8.31368637084961, 
426, 3403240793, 0.93443406, -0.25521293, -0.24756305, -0.020321243, 4.62841272354126, -5.267655849456787, 7.202900409698486, 11.90720272064209, -1.141937017440796, -13.272174835205078, 
427, 3403257460, 0.93504995, -0.25264218, -0.24770792, -0.02225351, 5.024622917175293, -4.669288635253906, 7.096042633056641, 17.532419204711914, 3.4983699321746826, -18.37782859802246, 
428, 3403274127, 0.935778, -0.24987487, -0.24757233, -0.024310797, 5.1047468185424805, -3.9683029651641846, 7.559637546539307, 18.73453712463379, 5.746851921081543, -19.00950813293457, 
429, 3403290794, 0.9360806, -0.24816236, -0.24794753, -0.026296303, 4.745993614196777, -4.021207809448242, 8.150230407714844, 11.413678169250488, 1.4382834434509277, -17.69309425354004, 
430, 3403307461, 0.9356529, -0.24760151, -0.24982356, -0.028914798, 4.265472412109375, -4.849024772644043, 8.25307559967041, 1.932847261428833, -8.601198196411133, -22.490610122680664, 
431, 3403324128, 0.934458, -0.2473353, -0.2540288, -0.03291761, 4.197474956512451, -5.716289043426514, 8.246965408325195, -3.1881284713745117, -22.617759704589844, -35.01662826538086, 
432, 3403340795, 0.93239146, -0.24683167, -0.2612221, -0.03852548, 4.104395389556885, -6.199305057525635, 8.478381156921387, -5.264430522918701, -40.56953430175781, -51.043983459472656, 
433, 3403357462, 0.92943585, -0.24475105, -0.2723609, -0.045455582, 4.130932331085205, -6.113112449645996, 8.80055046081543, 2.0143492221832275, -64.8158950805664, -69.31485748291016, 
434, 3403374129, 0.9253512, -0.24127443, -0.2877006, -0.05235799, 5.1094818115234375, -4.9805908203125, 9.208681106567383, 10.4061861038208, -93.41036987304688, -79.20891571044922, 
435, 3403390796, 0.9199116, -0.23634772, -0.30732352, -0.058783416, 4.235358715057373, -4.796978950500488, 9.913893699645996, 19.857725143432617, -123.63496398925781, -86.6556167602539, 
436, 3403407463, 0.9118322, -0.23086205, -0.33323237, -0.06497703, 5.025861740112305, -4.022837162017822, 10.980087280273438, 22.11403465270996, -169.18133544921875, -97.6833267211914, 
437, 3403424130, 0.89999807, -0.2246344, -0.36670008, -0.07123793, 3.2806081771850586, -4.966723442077637, 11.442255020141602, 23.995588302612305, -224.8197021484375, -113.51073455810547, 
438, 3403440797, 0.88302064, -0.21728009, -0.4085464, -0.0784522, 3.3857920169830322, -5.7475457191467285, 11.720794677734375, 24.697038650512695, -287.755859375, -137.78353881835938, 
439, 3403457464, 0.859556, -0.20733951, -0.4586401, -0.08845275, 3.4109129905700684, -5.911228656768799, 11.390022277832031, 27.307880401611328, -350.69061279296875, -177.8971405029297, 
440, 3403474131, 0.82808906, -0.19615178, -0.5152103, -0.10174504, 2.1176490783691406, -5.924277305603027, 9.542763710021973, 16.79703712463379, -408.98699951171875, -215.523681640625, 
441, 3403490798, 0.7914573, -0.17788698, -0.57295805, -0.11692468, 10.397936820983887, -6.9025349617004395, 6.475675106048584, 44.2608642578125, -426.6814880371094, -256.69073486328125, 
442, 3403507465, 0.7579742, -0.1539941, -0.6207801, -0.12803839, 17.874109268188477, -8.307074546813965, 3.9300317764282227, 86.78141784667969, -360.6330261230469, -242.08042907714844, 
443, 3403524132, 0.7318298, -0.12529255, -0.65644133, -0.13346487, 11.550162315368652, -6.767377853393555, 2.646197557449341, 133.16671752929688, -267.60784912109375, -213.65550231933594, 
444, 3403540799, 0.7141198, -0.093184866, -0.68086004, -0.1333421, 10.855631828308105, -8.296784400939941, 3.452548027038574, 172.27488708496094, -174.60020446777344, -183.72430419921875, 
445, 3403557466, 0.7073853, -0.058889054, -0.69359255, -0.12275317, 12.154806137084961, -12.08018684387207, 6.502858638763428, 228.31591796875, -70.59002685546875, -125.11517333984375, 
446, 3403574133, 0.72310024, -0.03594479, -0.67994773, -0.11621497, -5.079150199890137, 5.241816997528076, 10.581276893615723, 140.59193420410156, 156.70431518554688, -61.2249755859375, 
447, 3403590800, 0.73930186, -0.028016062, -0.66132, -0.12371236, -15.829156875610352, -0.46157243847846985, 4.183600425720215, -3.474562883377075, 175.01702880859375, -59.0670051574707, 
448, 3403607467, 0.76145244, -0.027032426, -0.6344662, -0.13005036, -6.787687301635742, -9.766143798828125, 0.2351110577583313, -39.29337692260742, 237.69192504882812, -14.925920486450195, 
449, 3403624134, 0.7804869, -0.016322361, -0.610767, -0.13243192, -2.515087366104126, -4.589035511016846, 1.2715717554092407, 31.210275650024414, 215.52540588378906, -40.16262435913086, 
450, 3403640801, 0.80040586, -0.017827008, -0.58382106, -0.13485742, -1.7869200706481934, -3.0468809604644775, 2.6290321350097656, -37.315738677978516, 225.53428649902344, 12.01364803314209, 
451, 3403657468, 0.8184737, -0.026485216, -0.55795366, -0.1344913, -0.9769012928009033, -6.0410847663879395, 1.4328612089157104, -64.64553833007812, 205.16041564941406, 54.20388412475586, 
452, 3403674135, 0.8333228, -0.038102895, -0.53608733, -0.12935518, 0.49156275391578674, -4.478189468383789, 2.433371067047119, -59.82968521118164, 166.67970275878906, 88.59719848632812, 
453, 3403690802, 0.84511524, -0.054717097, -0.5179213, -0.12060088, 2.8433995246887207, -3.9887280464172363, 3.773749828338623, -72.59969329833984, 128.80702209472656, 123.98106384277344, 
454, 3403707469, 0.8550653, -0.07423115, -0.50162613, -0.10828208, 5.127593040466309, -5.14042854309082, 5.063133239746094, -75.88654327392578, 107.61970520019531, 152.7169189453125, 
455, 3403724136, 0.8639363, -0.09423942, -0.4857479, -0.0937163, 7.309054374694824, -3.6597578525543213, 5.782845973968506, -71.2735595703125, 99.92497253417969, 166.5266876220703, 
456, 3403740803, 0.8705716, -0.11649928, -0.4713871, -0.079549745, 8.894722938537598, -0.3679395914077759, 4.344146728515625, -86.4609146118164, 82.25792694091797, 169.18869018554688, 
457, 3403757470, 0.87228626, -0.14001635, -0.46393824, -0.06537791, 10.280817031860352, 1.1954529285430908, 2.7188355922698975, -94.16839599609375, 24.28618621826172, 165.06103515625, 
458, 3403774137, 0.8693974, -0.1618219, -0.46444088, -0.04751376, 15.047677040100098, 0.23233118653297424, 2.468245029449463, -73.04961395263672, -40.793880462646484, 172.06072998046875, 
459, 3403790804, 0.86379117, -0.18232358, -0.46903834, -0.025038868, 19.165111541748047, 0.7093696594238281, 2.4707040786743164, -52.2910041809082, -78.54065704345703, 190.08218383789062, 
460, 3403807471, 0.85720533, -0.20169637, -0.47383317, -9.539779E-4, 22.73457908630371, 0.8244662880897522, 1.1393883228302002, -41.66421127319336, -84.55805206298828, 195.6996307373047, 
461, 3403824138, 0.8512741, -0.21921276, -0.47630918, 0.020216467, 23.7470703125, 1.6673684120178223, -0.16941174864768982, -39.369022369384766, -64.52861785888672, 175.843994140625, 
462, 3403840805, 0.8462045, -0.23608333, -0.47650337, 0.03388292, 23.199682235717773, 5.389229774475098, -0.7526920437812805, -58.56254959106445, -36.94612503051758, 133.31700134277344, 
463, 3403857472, 0.84076434, -0.25516167, -0.4760224, 0.037568577, 21.6382999420166, 8.220757484436035, -1.8784109354019165, -104.55907440185547, -17.3480167388916, 83.92699432373047, 
464, 3403874139, 0.8349739, -0.2725412, -0.47687322, 0.033657573, 19.37744903564453, 7.121133327484131, -2.9540798664093018, -120.5623779296875, -13.155163764953613, 32.51490020751953, 
465, 3403890806, 0.8300771, -0.2837917, -0.47926855, 0.027142672, 17.251283645629883, 5.410332679748535, -3.9588773250579834, -92.57809448242188, -15.497847557067871, -5.346695423126221, 
466, 3403907473, 0.8263515, -0.28765386, -0.48375225, 0.019573446, 13.998662948608398, 4.665646553039551, -4.322621822357178, -51.95944595336914, -22.756141662597656, -39.76080322265625, 
467, 3403924140, 0.82127976, -0.29145446, -0.49025273, 0.0143839205, 14.351611137390137, -3.755801200866699, -5.316280364990234, -46.596649169921875, -43.2989616394043, -30.05286407470703, 
468, 3403940807, 0.82395834, -0.28190088, -0.49077362, 0.027688399, 26.297391891479492, -2.97367787361145, 1.4129940271377563, 107.3468017578125, -21.646329879760742, 40.653343200683594, 
469, 3403957474, 0.8419183, -0.28942317, -0.4544688, 0.029443108, 22.327388763427734, -14.614627838134766, 6.830348968505859, 8.287598609924316, 264.3523254394531, 101.52606964111328, 
470, 3403974141, 0.86539954, -0.27483192, -0.41571152, 0.052304607, 0.7886584401130676, -17.76322364807129, 12.522622108459473, 213.8243408203125, 249.429443359375, 158.40660095214844, 
471, 3403990808, 0.88110745, -0.26389897, -0.38699907, 0.06511468, 7.84828519821167, -1.0708720684051514, 7.368413925170898, 144.9486541748047, 187.58404541015625, 92.56608581542969, 
472, 3404007475, 0.8942604, -0.26578292, -0.35389286, 0.06647202, 5.063337802886963, -7.227311611175537, 6.292069911956787, 34.078094482421875, 233.9053192138672, 66.4551010131836, 
473, 3404024142, 0.9051661, -0.2665097, -0.32472017, 0.06484315, 4.863258361816406, -4.456544399261475, 9.376945495605469, 28.00950050354004, 209.15219116210938, 39.0758056640625, 
474, 3404040809, 0.9157325, -0.26219043, -0.2977925, 0.06333098, 4.115746021270752, -7.384597301483154, 9.057482719421387, 58.00273132324219, 191.9113311767578, 24.568185806274414, 
475, 3404057476, 0.9251521, -0.2519793, -0.27690008, 0.06266772, 1.1499067544937134, -7.1588263511657715, 11.201456069946289, 92.12498474121094, 147.43267822265625, 7.421252250671387, 
476, 3404074143, 0.9311774, -0.24176575, -0.2660754, 0.060521867, 3.7224228382110596, -4.170173168182373, 13.690190315246582, 79.06926727294922, 79.42324829101562, -18.0629940032959, 
477, 3404090810, 0.9331418, -0.2369591, -0.26385617, 0.058968388, 3.2258217334747314, -2.5487730503082275, 12.045501708984375, 35.14564514160156, 18.097387313842773, -16.998945236206055, 
478, 3404107477, 0.9327804, -0.23657613, -0.26557282, 0.058518026, 4.79477596282959, -3.1827147006988525, 8.996856689453125, 3.325747013092041, -11.435494422912598, -7.359294891357422, 
479, 3404124144, 0.9317777, -0.2383471, -0.2675958, 0.05808853, 5.518451690673828, -3.794914960861206, 7.6925740242004395, -11.638505935668945, -13.757486343383789, -3.5155069828033447, 
480, 3404140811, 0.93073344, -0.24107522, -0.26891237, 0.057488922, 5.33789587020874, -4.64344596862793, 7.078609466552734, -17.87731170654297, -8.64868450164795, -1.652604103088379, 
481, 3404157478, 0.9302417, -0.24325505, -0.26880023, 0.0567874, 5.590879917144775, -4.228087425231934, 6.536881446838379, -13.074464797973633, 1.4720267057418823, -1.1616454124450684, 
482, 3404174145, 0.92994934, -0.24526756, -0.26799908, 0.056704633, 5.0181427001953125, -4.030510425567627, 7.49752950668335, -10.255989074707031, 5.156709671020508, 3.5735363960266113, 
483, 3404190812, 0.929388, -0.24726321, -0.26802114, 0.05713598, 4.59257173538208, -4.952520370483398, 7.533633708953857, -9.982714653015137, -1.4814711809158325, 5.557356357574463, 
484, 3404207479, 0.92907274, -0.24826056, -0.26811156, 0.057511363, 5.048774242401123, -4.89783239364624, 6.970151424407959, -3.313572645187378, -1.76776921749115, 3.1448423862457275, 
485, 3404224146, 0.9290756, -0.24871603, -0.26756433, 0.05804278, 5.253073215484619, -4.259304046630859, 7.1019439697265625, 1.2347882986068726, 2.414547920227051, 4.105947017669678, 
486, 3404240813, 0.9291869, -0.24908744, -0.26666334, 0.058811877, 5.062162399291992, -4.35194206237793, 7.318326473236084, 2.5319437980651855, 4.435544013977051, 6.041934490203857, 
487, 3404257480, 0.92938477, -0.24935122, -0.2655461, 0.0596174, 4.995169639587402, -4.498179912567139, 7.30072021484375, 3.5192112922668457, 5.869804382324219, 6.419453144073486, 
488, 3404274147, 0.92958266, -0.24968918, -0.26436734, 0.060349025, 4.8711161613464355, -4.400448322296143, 7.576077938079834, 2.932629346847534, 6.418877124786377, 6.19507360458374, 
489, 3404290814, 0.92948186, -0.25060427, -0.26369885, 0.061031405, 4.652596950531006, -4.280160427093506, 7.901858329772949, -1.5749958753585815, 2.9353442192077637, 6.183829307556152, 
490, 3404307481, 0.9289861, -0.25231317, -0.26364878, 0.061751526, 4.7407660484313965, -4.310971260070801, 7.778583526611328, -7.526236534118652, -1.4751192331314087, 6.970588684082031, 
491, 3404324148, 0.9283403, -0.25433645, -0.26384234, 0.06232969, 4.546286106109619, -4.725861549377441, 7.454904079437256, -10.162079811096191, -2.9318039417266846, 6.282042503356934, 
492, 3404340815, 0.92766196, -0.25623402, -0.26430959, 0.06267887, 4.694178104400635, -4.89992618560791, 7.430829048156738, -9.950211524963379, -4.396876335144043, 4.129025459289551, 
493, 3404357482, 0.92693037, -0.25806004, -0.2650615, 0.06283678, 4.798520088195801, -4.756165504455566, 7.423581600189209, -10.058414459228516, -6.0086469650268555, 2.303774118423462, 
494, 3404374149, 0.9262217, -0.2595607, -0.26608008, 0.062799536, 4.584163665771484, -5.178467750549316, 7.359982967376709, -8.415970802307129, -7.464190483093262, -0.012595050036907196, 
495, 3404390816, 0.9254777, -0.2607136, -0.26769614, 0.06212146, 4.478421688079834, -5.218843460083008, 7.4918131828308105, -7.6919779777526855, -10.34608268737793, -5.782371520996094, 
496, 3404407483, 0.9245319, -0.26185215, -0.2701492, 0.060784318, 4.434427261352539, -5.223300933837891, 7.517907619476318, -9.530749320983887, -14.874731063842773, -11.420675277709961, 
497, 3404424150, 0.92341995, -0.26272357, -0.273545, 0.05870347, 4.620843887329102, -5.418313503265381, 7.289721488952637, -9.90605354309082, -19.957862854003906, -18.275409698486328, 
498, 3404440817, 0.9223556, -0.26236504, -0.27811864, 0.05545845, 4.592075347900391, -6.140770435333252, 7.385717868804932, -4.671621799468994, -25.745981216430664, -30.131181716918945, 
499, 3404457484, 0.92107403, -0.26080933, -0.28458488, 0.051122908, 4.230149745941162, -6.307590484619141, 8.043514251708984, -0.2689298987388611, -36.658267974853516, -42.67961883544922, 
500, 3404474151, 0.91922337, -0.25746274, -0.29439023, 0.045571107, 4.426017761230469, -6.305680751800537, 8.421947479248047, 6.506332874298096, -57.37990951538086, -59.69472122192383, 
501, 3404490818, 0.9163978, -0.25267968, -0.30796614, 0.039061297, 4.366400241851807, -6.340693950653076, 8.56071662902832, 10.745421409606934, -81.95645141601562, -75.04605865478516, 
502, 3404507485, 0.9121867, -0.24607353, -0.32609463, 0.0320408, 5.327783107757568, -5.661936283111572, 8.720991134643555, 17.528640747070312, -113.20211029052734, -89.69035339355469, 
503, 3404524152, 0.90573907, -0.23866987, -0.34937745, 0.024692005, 4.523969650268555, -4.909345626831055, 9.83047866821289, 16.882076263427734, -150.19000244140625, -101.78025817871094, 
504, 3404540819, 0.8958411, -0.23085551, -0.37933603, 0.016718002, 3.986534595489502, -5.005589008331299, 10.835201263427734, 11.140576362609863, -199.1603240966797, -117.05217742919922, 
505, 3404557486, 0.8809828, -0.22229207, -0.41762233, 0.00692459, 4.131065845489502, -4.991497993469238, 11.431732177734375, 2.174811840057373, -260.6960144042969, -142.9063262939453, 
506, 3404574153, 0.8598243, -0.21079051, -0.46500584, -0.006324291, 3.6846442222595215, -7.160154342651367, 11.211377143859863, -0.01445283368229866, -328.9116516113281, -185.95545959472656, 
507, 3404590820, 0.8308264, -0.19463035, -0.5208642, -0.023404906, 1.6740374565124512, -7.201990127563477, 9.78707218170166, 4.294291973114014, -398.5414733886719, -236.2796630859375, 
508, 3404607487, 0.79491, -0.17063116, -0.58063763, -0.043173786, 4.66789436340332, -6.640998363494873, 6.70133113861084, 30.8448543548584, -441.04571533203125, -286.2545166015625, 
509, 3404624154, 0.7577622, -0.14129284, -0.634028, -0.061986078, 15.00151538848877, -5.373025417327881, 3.544719696044922, 60.53908920288086, -410.6133117675781, -295.2787780761719, 
510, 3404640821, 0.7273471, -0.10913492, -0.6737086, -0.071927354, 17.942716598510742, -6.4265570640563965, 1.318209171295166, 114.62954711914062, -317.0735778808594, -245.07183837890625, 
511, 3404657488, 0.7064376, -0.075050645, -0.6995683, -0.076931044, 11.50874137878418, -5.278892993927002, 2.3841278553009033, 147.39991760253906, -206.55380249023438, -214.22000122070312, 
512, 3404674155, 0.6932153, -0.041963205, -0.71577597, -0.073193416, 11.8142728805542, -7.917801380157471, 2.781092882156372, 183.44764709472656, -127.72261047363281, -157.93177795410156, 
513, 3404690822, 0.6923446, -0.015719304, -0.71897024, -0.059114438, 15.159445762634277, -5.711470603942871, 10.369011878967285, 198.67373657226562, -11.359886169433594, -65.05897521972656, 
514, 3404707489, 0.7211802, -0.010134187, -0.689953, -0.06133625, -15.663409233093262, 4.622957229614258, 6.6790618896484375, 9.800074577331543, 282.10430908203125, -25.066741943359375, 
515, 3404724156, 0.7362656, 0.005839157, -0.6733884, -0.0665417, -9.825234413146973, -5.747036933898926, 2.147568941116333, 51.528812408447266, 159.57080078125, -95.73657989501953, 
516, 3404740823, 0.76063293, 0.007582345, -0.64488024, -0.07423271, -4.7588210105896, -4.654797077178955, 2.4951722621917725, -37.87203598022461, 256.40045166015625, -38.746910095214844, 
517, 3404757490, 0.78317887, 0.0125831505, -0.616725, -0.07825384, -1.8869625329971313, -7.427175045013428, 1.5719739198684692, -4.269392490386963, 248.29025268554688, -34.985225677490234, 
518, 3404774157, 0.80480367, 0.011560928, -0.587818, -0.081413165, -0.9855711460113525, -3.13570237159729, 2.544309139251709, -33.36838912963867, 245.24647521972656, -5.4811110496521, 
519, 3404790824, 0.8247105, -0.0012947307, -0.55965006, -0.081508845, 1.6987273693084717, -4.826929092407227, 2.96932315826416, -85.90249633789062, 227.8131561279297, 58.3413200378418, 
520, 3404807491, 0.8427277, -0.020178484, -0.5326755, -0.07523541, 3.2326557636260986, -5.85683536529541, 3.3416266441345215, -94.9170150756836, 210.3356475830078, 116.49132537841797, 
521, 3404824158, 0.8585404, -0.0450052, -0.5069221, -0.06255963, 4.999324321746826, -4.144570350646973, 4.089284420013428, -105.58030700683594, 191.2380828857422, 173.94224548339844, 
522, 3404840825, 0.8710243, -0.07470552, -0.48318747, -0.047608584, 4.988099098205566, -3.5303497314453125, 4.053691387176514, -126.58814239501953, 164.9397430419922, 202.2233123779297, 
523, 3404857492, 0.87931025, -0.10511341, -0.4633101, -0.03330334, 6.758747577667236, -3.6743650436401367, 3.6512176990509033, -133.86376953125, 128.01364135742188, 197.2648468017578, 
524, 3404874159, 0.8832744, -0.12945734, -0.45024398, -0.018665016, 8.545516967773438, -3.423403739929199, 2.335850954055786, -97.69181823730469, 74.25163269042969, 173.96421813964844, 
525, 3404890826, 0.8825137, -0.14496614, -0.4473754, -0.0032777605, 9.451148986816406, -1.1136398315429688, 2.2662951946258545, -44.61058044433594, -1.7748607397079468, 141.4357147216797, 
526, 3404907493, 0.8775678, -0.16020368, -0.4517419, 0.011801586, 13.029159545898438, 1.50912606716156, 4.19080114364624, -47.942893981933594, -58.17366409301758, 131.4536590576172, 
527, 3404924160, 0.87060827, -0.17882648, -0.45740622, 0.0290323, 20.388538360595703, -1.5981736183166504, 3.652639865875244, -64.04849243164062, -74.29557800292969, 153.78158569335938, 
528, 3404940827, 0.86479384, -0.19583787, -0.4597322, 0.049257863, 22.70656394958496, -2.8309414386749268, 1.4051250219345093, -42.915870666503906, -54.60268020629883, 170.6210479736328, 
529, 3404957494, 0.85962653, -0.21002686, -0.4606308, 0.06892838, 20.793014526367188, -0.5152122378349304, -0.4865584373474121, -26.50738525390625, -44.14511489868164, 160.22015380859375, 
530, 3404974161, 0.85318404, -0.22418052, -0.4632173, 0.085150756, 19.272478103637695, 2.140212059020996, -0.82297682762146, -39.82319641113281, -53.078887939453125, 138.0481414794922, 
531, 3404990828, 0.8446665, -0.24022982, -0.4683598, 0.097304404, 18.55931282043457, 3.1009349822998047, -0.2660198211669922, -68.55606079101562, -67.20975494384766, 117.6842269897461, 
532, 3405007495, 0.8353726, -0.25772682, -0.4740323, 0.10499386, 17.734546661376953, 3.534609317779541, 0.31963133811950684, -92.93428039550781, -64.37995910644531, 96.26859283447266, 
533, 3405024162, 0.8265842, -0.2739688, -0.4795766, 0.1081973, 15.845987319946289, 3.6112895011901855, 0.889277458190918, -99.30831146240234, -54.920860290527344, 66.48529815673828, 
534, 3405040829, 0.81995934, -0.2861145, -0.4842251, 0.106450945, 14.838125228881836, 3.1465342044830322, 0.6619555354118347, -87.56476593017578, -36.411773681640625, 25.119626998901367, 
535, 3405057496, 0.81613255, -0.29322034, -0.48791197, 0.099460386, 13.351762771606445, 3.4962682723999023, 0.12787963449954987, -70.36283874511719, -15.04992961883545, -21.199378967285156, 
536, 3405074163, 0.8142007, -0.2950666, -0.49241593, 0.086835586, 11.567593574523926, 4.4111223220825195, 0.46656060218811035, -56.4529914855957, -5.522117614746094, -73.23200225830078, 
537, 3405090830, 0.8141276, -0.2905803, -0.4966632, 0.078012824, 12.529751777648926, -6.045288562774658, -1.8937057256698608, -4.174490451812744, -9.298718452453613, -73.81407928466797, 
538, 3405107497, 0.82340384, -0.26902917, -0.4920296, 0.08681643, 28.707740783691406, -7.813955307006836, 1.9496591091156006, 175.0457763671875, 28.049190521240234, -20.65625762939453, 
539, 3405124164, 0.8524242, -0.26608533, -0.43916607, 0.09851648, 23.80350685119629, -15.495258331298828, 2.381404399871826, 144.88623046875, 373.9716491699219, 136.3546905517578, 
540, 3405140831, 0.87538725, -0.23802526, -0.40273613, 0.1218427, -4.033295154571533, -4.704463005065918, 15.857810020446777, 305.0268249511719, 221.1302947998047, 102.677001953125, 
541, 3405157498, 0.890639, -0.23181754, -0.3696744, 0.12792441, 7.935337543487549, -3.520540475845337, 7.346179485321045, 110.05421447753906, 225.8597412109375, 60.20249557495117, 
542, 3405174165, 0.90352154, -0.23169838, -0.33733985, 0.12715177, 2.0433950424194336, -9.654532432556152, 8.224189758300781, 50.8565559387207, 231.65994262695312, 34.657493591308594, 
543, 3405190832, 0.91471875, -0.22792235, -0.3091161, 0.12565461, 4.983884811401367, -2.3604776859283447, 10.744640350341797, 65.56932830810547, 200.14813232421875, 16.496891021728516, 
544, 3405207499, 0.92479604, -0.21938533, -0.2844465, 0.12535375, 2.5402352809906006, -4.621330738067627, 12.521676063537598, 93.15288543701172, 169.39076232910156, 9.316312789916992, 
545, 3405224166, 0.9308052, -0.21067394, -0.27159068, 0.124328546, 2.841737985610962, -3.89152455329895, 15.7962064743042, 76.46026611328125, 87.20589447021484, -9.97728157043457, 
546, 3405240833, 0.9314581, -0.20886059, -0.2710589, 0.123656206, 3.4828379154205322, 0.14863121509552002, 13.504594802856445, 14.623022079467773, 3.648993968963623, -8.119573593139648, 
547, 3405257500, 0.9293149, -0.21301751, -0.27478334, 0.12446766, 4.631616115570068, -3.007434844970703, 9.073009490966797, -28.53451156616211, -25.9431209564209, 8.819524765014648, 
548, 3405274167, 0.9270033, -0.21841908, -0.278248, 0.12464692, 5.298410415649414, -4.832827568054199, 6.918254852294922, -37.71236038208008, -22.637235641479492, 7.675616264343262, 
549, 3405290834, 0.92561406, -0.22250395, -0.27997762, 0.123870485, 5.567563056945801, -5.592963218688965, 6.131890773773193, -28.264997482299805, -9.510735511779785, 0.8846269845962524, 
550, 3405307501, 0.9252973, -0.22474429, -0.2796059, 0.12302985, 5.789514541625977, -3.921663522720337, 6.5815935134887695, -13.201493263244629, 4.463323593139648, -0.7768786549568176, 
551, 3405324168, 0.92488086, -0.22726206, -0.27884158, 0.123271435, 5.132397174835205, -3.8831050395965576, 7.574252128601074, -12.70663070678711, 5.334091663360596, 7.351016998291016, 
552, 3405340835, 0.9243527, -0.22923197, -0.27863672, 0.12404497, 4.818547248840332, -4.798704147338867, 7.636117458343506, -8.853449821472168, 0.2587268054485321, 8.917936325073242, 
553, 3405357502, 0.92382485, -0.23070087, -0.27875242, 0.12499092, 4.862253665924072, -4.667037487030029, 7.531376838684082, -5.6096367835998535, -2.483529567718506, 8.548266410827637, 
554, 3405374169, 0.9231838, -0.23213987, -0.27927446, 0.12589493, 4.709120273590088, -4.4173264503479, 7.826289176940918, -6.026177883148193, -5.245950222015381, 7.681814670562744, 
555, 3405390836, 0.9223265, -0.2339082, -0.28030354, 0.12661625, 4.699294090270996, -4.430222034454346, 7.799596786499023, -9.250627517700195, -8.313867568969727, 6.537594795227051, 
556, 3405407503, 0.92143685, -0.2357022, -0.28154024, 0.1270225, 4.742886543273926, -4.691177845001221, 7.502720355987549, -10.252700805664062, -9.174302101135254, 4.288299083709717, 
557, 3405424170, 0.9206603, -0.23729853, -0.28270644, 0.12709047, 4.953996181488037, -4.657381534576416, 7.304958343505859, -9.407665252685547, -8.141192436218262, 1.7815241813659668, 
558, 3405440837, 0.9200602, -0.23860766, -0.28361076, 0.12697066, 5.067529201507568, -4.594458103179932, 7.234813213348389, -7.433966159820557, -6.091744899749756, 0.3134482800960541, 
559, 3405457504, 0.9195548, -0.23973328, -0.28436533, 0.12682408, 5.022946357727051, -4.55864953994751, 7.230782985687256, -6.03639554977417, -5.080106735229492, -0.04374009370803833, 
560, 3405474171, 0.9192622, -0.24022335, -0.2848981, 0.12682143, 5.011767387390137, -4.778113842010498, 7.004072666168213, -1.1912529468536377, -4.057595729827881, -0.1908722221851349, 
561, 3405490838, 0.9194223, -0.23974732, -0.2847612, 0.12686893, 5.058877468109131, -4.987118721008301, 6.71431827545166, 6.3470964431762695, 0.13681025803089142, -1.0520994663238525, 
562, 3405507505, 0.9201193, -0.23837507, -0.28367808, 0.12682965, 5.26604700088501, -4.803859233856201, 6.823061466217041, 13.55920696258545, 6.532472610473633, -2.260047197341919, 
563, 3405524172, 0.92125386, -0.23653431, -0.28167737, 0.12649761, 5.2297282218933105, -4.5739054679870605, 7.027750015258789, 17.471580505371094, 13.268041610717773, -3.8972671031951904, 
564, 3405540839, 0.9225964, -0.2346836, -0.27916798, 0.12572132, 5.027039527893066, -4.292932510375977, 7.354331016540527, 17.454273223876953, 17.609525680541992, -6.076120376586914, 
565, 3405557506, 0.9237014, -0.23323458, -0.27729237, 0.12444751, 4.426451206207275, -4.287550926208496, 8.27407169342041, 13.016022682189941, 14.279717445373535, -9.2661714553833, 
566, 3405574173, 0.9240241, -0.23300226, -0.27704304, 0.1230344, 4.328132629394531, -4.111289024353027, 8.44389820098877, 2.36920166015625, 3.7147269248962402, -9.769949913024902, 
567, 3405590840, 0.92358285, -0.23388512, -0.278511, 0.12134649, 4.371373176574707, -4.2569899559021, 8.411084175109863, -7.921792030334473, -7.283894062042236, -11.491333961486816, 
568, 3405607507, 0.92245615, -0.23614216, -0.2814564, 0.118721515, 4.539618492126465, -4.720055103302002, 8.027461051940918, -20.764928817749023, -15.360516548156738, -16.581438064575195, 
569, 3405624174, 0.9206724, -0.23948058, -0.28609845, 0.11471572, 4.364824295043945, -5.24241304397583, 8.02389144897461, -32.75469970703125, -24.27219009399414, -25.486974716186523, 
570, 3405640841, 0.9183318, -0.24228299, -0.29331905, 0.10922659, 4.192350387573242, -6.41246223449707, 7.780460357666016, -35.23111343383789, -39.67971420288086, -39.764095306396484, 
571, 3405657508, 0.91561437, -0.24295112, -0.3037454, 0.10180807, 3.702535629272461, -6.350510597229004, 8.383227348327637, -28.648740768432617, -59.099361419677734, -61.30699920654297, 
572, 3405674175, 0.9116099, -0.2419272, -0.31880763, 0.093815155, 4.747888088226318, -5.260891914367676, 9.105025291442871, -24.559301376342773, -91.23213958740234, -75.31095123291016, 
573, 3405690842, 0.905807, -0.23842736, -0.33938253, 0.08652362, 4.585348129272461, -5.573072910308838, 9.907462120056152, -13.998074531555176, -132.55052185058594, -84.31934356689453, 
574, 3405707509, 0.89721197, -0.23266411, -0.3667421, 0.07987011, 4.172301769256592, -5.295181751251221, 11.231795310974121, -6.941391944885254, -183.8003692626953, -95.04657745361328, 
575, 3405724176, 0.88386875, -0.22525887, -0.4034547, 0.072525375, 3.1576600074768066, -6.263317584991455, 12.717610359191895, -11.02786636352539, -253.5110321044922, -115.60858917236328, 
576, 3405740843, 0.8636606, -0.21582839, -0.4511683, 0.062901385, 2.801851749420166, -6.322805404663086, 12.571394920349121, -22.1093692779541, -336.385986328125, -149.75582885742188, 
577, 3405757510, 0.8358028, -0.20153053, -0.5083428, 0.04906904, 1.722935438156128, -8.022135734558105, 10.715889930725098, -20.737709045410156, -412.9226989746094, -199.93153381347656, 
578, 3405774177, 0.8002881, -0.17899328, -0.5713842, 0.031958986, 1.7316396236419678, -8.611502647399902, 6.666934490203857, 2.2411608695983887, -471.67095947265625, -253.5824432373047, 
579, 3405790844, 0.76187015, -0.14879723, -0.63028556, 0.012411166, 9.726362228393555, -7.942835330963135, 2.614891290664673, 34.471160888671875, -459.6795654296875, -290.7237548828125, 
580, 3405807511, 0.72989506, -0.11665776, -0.673517, -0.0044513685, 20.221498489379883, -8.698309898376465, 0.455954909324646, 60.741050720214844, -351.4230041503906, -270.6083984375, 
581, 3405824178, 0.7078942, -0.08056165, -0.70150787, -0.01682974, 9.496443748474121, -10.46790599822998, 1.5798364877700806, 107.8933334350586, -232.03199768066406, -253.9102020263672, 
582, 3405840845, 0.69495445, -0.042174008, -0.71733093, -0.026393062, 4.270710468292236, -10.931328773498535, 2.54026460647583, 138.88412475585938, -130.60543823242188, -243.2071075439453, 
583, 3405857512, 0.6932963, -0.006848673, -0.72011393, -0.027017824, 2.3665030002593994, -5.88852071762085, 6.993618965148926, 168.93231201171875, -15.763503074645996, -179.65878295898438, 
584, 3405874179, 0.7094057, 0.009005332, -0.7035454, -0.04107508, -8.494423866271973, 1.8636759519577026, 9.748896598815918, 6.6481828689575195, 161.4143829345703, -143.1332550048828, 
585, 3405890846, 0.7362949, 0.020410897, -0.6746291, -0.048267026, -0.44613882899284363, -11.899599075317383, 3.9624907970428467, 13.978715896606445, 272.8953552246094, -85.8449478149414, 
586, 3405907513, 0.76493883, 0.01591736, -0.6412897, -0.05799659, -8.897802352905273, -0.428079754114151, 2.8667430877685547, -80.06879425048828, 297.7781677246094, -25.125640869140625, 
587, 3405924180, 0.7873417, 0.015361509, -0.6131375, -0.06261237, -2.033576726913452, -9.348159790039062, 0.6101414561271667, -34.04317855834961, 245.02162170410156, -17.53188133239746, 
588, 3405940847, 0.80711955, 0.00617328, -0.5872198, -0.06077548, -0.1324268877506256, -3.553443670272827, 2.79022216796875, -52.391204833984375, 218.80734252929688, 52.7602424621582, 
589, 3405957514, 0.8234355, -0.01756942, -0.56481785, -0.051255167, 1.6071213483810425, -3.6128177642822266, 4.402864456176758, -100.55514526367188, 179.55474853515625, 152.8113250732422, 
590, 3405974181, 0.83536637, -0.05002824, -0.5463365, -0.034317724, 3.499086856842041, -4.742367267608643, 4.824338912963867, -120.2944564819336, 136.35610961914062, 226.57614135742188, 
591, 3405990848, 0.8432707, -0.08380761, -0.53079975, -0.011107715, 6.543537139892578, -5.842394828796387, 5.975705146789551, -105.0606689453125, 101.85581970214844, 265.5138244628906, 
592, 3406007515, 0.84894884, -0.1137968, -0.51586974, 0.014680077, 7.549538612365723, -5.1656494140625, 6.626029014587402, -74.9542007446289, 89.03734588623047, 265.9996643066406, 
593, 3406024182, 0.8518808, -0.1382319, -0.5036783, 0.038730863, 8.60167407989502, -2.607985019683838, 6.971232891082764, -51.15324020385742, 64.12603759765625, 234.19308471679688, 
594, 3406040849, 0.8541535, -0.15336756, -0.49354583, 0.05756508, 11.150768280029297, -3.0703980922698975, 7.099404811859131, -15.937825202941895, 52.27219009399414, 169.60789489746094, 
595, 3406057516, 0.8567964, -0.16137734, -0.4848223, 0.06932176, 10.139469146728516, -1.2086435556411743, 8.367426872253418, 1.7213926315307617, 49.90463638305664, 102.22534942626953, 
596, 3406074183, 0.8582429, -0.16953245, -0.4784952, 0.07563763, 12.265298843383789, -1.3221005201339722, 8.940848350524902, -19.740873336791992, 37.889827728271484, 68.60488891601562, 
597, 3406090850, 0.85821116, -0.1820147, -0.47287348, 0.08207285, 17.532917022705078, -2.748955249786377, 7.672195911407471, -46.969791412353516, 30.970792770385742, 83.54574584960938, 
598, 3406107517, 0.8569767, -0.19899572, -0.46635497, 0.092225134, 20.551462173461914, -3.474551200866699, 5.263456344604492, -62.41019821166992, 30.27080535888672, 121.99064636230469, 
599, 3406124184, 0.8559558, -0.21345082, -0.45860955, 0.10703529, 21.849842071533203, -5.112321376800537, 2.815013885498047, -31.480451583862305, 30.26880645751953, 142.98764038085938, 
600, 3406140851, 0.8542579, -0.22681816, -0.45127934, 0.12306411, 18.663949966430664, 1.2638672590255737, 1.5984917879104614, -22.483470916748047, 23.178071975708008, 146.73101806640625, 
601, 3406157518, 0.84852993, -0.2462866, -0.44835085, 0.13536008, 18.30175018310547, 5.369160175323486, 0.84453284740448, -79.85566711425781, -4.159161567687988, 140.4635009765625, 
602, 3406174185, 0.8406155, -0.26756927, -0.4486235, 0.14321443, 17.029876708984375, 3.4733481407165527, -0.1186756044626236, -110.75135803222656, -20.362443923950195, 116.98421478271484, 
603, 3406190852, 0.8344118, -0.28041184, -0.45005327, 0.15026265, 16.81791114807129, 3.457482099533081, -1.1998724937438965, -62.3759651184082, -28.60108757019043, 82.663818359375, 
604, 3406207519, 0.8310974, -0.28502503, -0.4512459, 0.1562559, 15.899847984313965, 6.5383195877075195, -2.9912123680114746, -12.53443431854248, -24.77422523498535, 48.81161117553711, 
605, 3406224186, 0.829344, -0.28665662, -0.45314473, 0.15709087, 14.635939598083496, 9.704057693481445, -4.506941318511963, -9.11740493774414, -17.071901321411133, 7.232480525970459, 
606, 3406240853, 0.82893884, -0.28489062, -0.45747524, 0.14971654, 12.383228302001953, 10.552595138549805, -4.251596927642822, -15.19902229309082, -14.248856544494629, -56.191654205322266, 
607, 3406257520, 0.82766587, -0.27805138, -0.4679639, 0.13662887, 12.525367736816406, 8.973511695861816, -2.855088710784912, -12.204050064086914, -46.130828857421875, -115.6928482055664, 
608, 3406274187, 0.827897, -0.26628175, -0.47140548, 0.14648582, 20.87204360961914, -24.78017807006836, -10.344361305236816, 99.2618179321289, -49.685272216796875, 11.243603706359863, 
609, 3406290854, 0.8553145, -0.2592241, -0.4173802, 0.16442262, 37.41230773925781, -2.915767192840576, 6.4289398193359375, 206.4342803955078, 355.9670104980469, 150.34535217285156, 
610, 3406307521, 0.87096477, -0.24109636, -0.38339308, 0.1905357, -0.2495509684085846, -19.171419143676758, 15.751236915588379, 251.31436157226562, 177.16465759277344, 144.50343322753906, 
611, 3406324188, 0.88357955, -0.23638107, -0.35390005, 0.19536327, 2.4898364543914795, -11.309687614440918, 8.408716201782227, 103.76336669921875, 195.1153564453125, 48.63959884643555, 
612, 3406340855, 0.8972556, -0.2306652, -0.32511702, 0.18980451, 1.3053007125854492, -9.682962417602539, 9.423089027404785, 85.25996398925781, 208.9538116455078, -19.60391616821289, 
613, 3406357522, 0.90919566, -0.2204754, -0.3009987, 0.1848089, 7.521476745605469, 0.022706851363182068, 10.06679630279541, 105.21318817138672, 169.56832885742188, -31.37898826599121, 
614, 3406374189, 0.91857105, -0.208575, -0.28108758, 0.18361497, 2.167093515396118, -3.8282461166381836, 14.21230697631836, 114.4753646850586, 130.01077270507812, -14.230399131774902, 
615, 3406390856, 0.92295057, -0.19807485, -0.27529982, 0.1820432, 1.3383654356002808, -2.748882293701172, 14.4044828414917, 79.84883117675781, 33.43397521972656, -27.905332565307617, 
616, 3406407523, 0.9231346, -0.1949707, -0.27714655, 0.18165836, 5.18693733215332, -0.17055325210094452, 10.577032089233398, 19.863237380981445, -15.35040283203125, -11.561288833618164, 
617, 3406424190, 0.921876, -0.19511253, -0.2812631, 0.18156993, 4.778750896453857, -4.215432167053223, 8.349417686462402, -4.952544689178467, -28.87516212463379, -4.722029685974121, 
618, 3406440857, 0.920512, -0.19604453, -0.28541157, 0.1810115, 5.299630641937256, -4.160012245178223, 7.480123996734619, -11.039321899414062, -27.6712646484375, -6.113945007324219, 
619, 3406457524, 0.9196651, -0.19648476, -0.28834176, 0.18019366, 5.552280902862549, -4.282994270324707, 6.85772180557251, -6.2119035720825195, -19.211406707763672, -7.749358654022217, 
620, 3406474191, 0.9192204, -0.1970499, -0.28982195, 0.17946908, 5.557543754577637, -3.877809762954712, 7.039280414581299, -4.4657745361328125, -9.215818405151367, -5.473519325256348, 
621, 3406490858, 0.9188262, -0.19766101, -0.29086217, 0.17913243, 5.175044059753418, -3.5889194011688232, 7.816674709320068, -3.363774061203003, -6.802984237670898, -2.4168853759765625, 
622, 3406507525, 0.9182159, -0.19827761, -0.29225573, 0.17931283, 5.087061405181885, -3.9374186992645264, 7.8881425857543945, -3.0895779132843018, -10.168878555297852, 0.6263459324836731, 
623, 3406524192, 0.91738796, -0.19897512, -0.29418865, 0.17961624, 5.035919189453125, -4.218176364898682, 7.761398792266846, -4.3104987144470215, -14.0838623046875, 1.0767970085144043, 
624, 3406540859, 0.9165617, -0.19973508, -0.29625162, 0.17960028, 5.1685943603515625, -4.522880554199219, 7.433891773223877, -5.504090309143066, -14.389079093933105, -1.0173051357269287, 
625, 3406557526, 0.91579545, -0.20077224, -0.29834315, 0.1788894, 4.947939872741699, -4.03348970413208, 7.7285943031311035, -8.611452102661133, -13.152536392211914, -4.970296382904053, 
626, 3406574193, 0.9147097, -0.20231624, -0.30093747, 0.17835875, 5.35422945022583, -3.5755064487457275, 7.744635581970215, -12.490405082702637, -16.603620529174805, -3.1186649799346924, 
627, 3406590860, 0.91339076, -0.20454584, -0.30349976, 0.17823368, 5.252401828765869, -3.3769824504852295, 7.607430934906006, -16.24272918701172, -16.614625930786133, 1.165021538734436, 
628, 3406607527, 0.91188943, -0.20740286, -0.3057594, 0.17875652, 5.431338787078857, -3.4192216396331787, 7.342990398406982, -18.713489532470703, -15.24445629119873, 7.176484107971191, 
629, 3406624194, 0.91039294, -0.21041466, -0.30754468, 0.17979859, 5.385345458984375, -3.815866231918335, 7.1757588386535645, -17.999984741210938, -12.8161039352417, 11.415541648864746, 
630, 3406640861, 0.9090371, -0.21342736, -0.30874115, 0.1810527, 5.475592613220215, -4.226968288421631, 6.843957424163818, -16.62173080444336, -9.141413688659668, 13.40412425994873, 
631, 3406657528, 0.9080313, -0.21626285, -0.3090232, 0.18224941, 5.521557807922363, -4.441596508026123, 6.565638065338135, -13.980334281921387, -2.8223891258239746, 13.559049606323242, 
632, 3406674195, 0.90760654, -0.21856177, -0.30800956, 0.18333621, 5.505082607269287, -5.044469833374023, 6.285470008850098, -8.374560356140137, 5.994722843170166, 12.91006851196289, 
633, 3406690862, 0.90790576, -0.2199362, -0.30576816, 0.18396169, 5.444221496582031, -5.0213212966918945, 6.4787278175354, -0.943143904209137, 14.720606803894043, 8.985124588012695, 
634, 3406707529, 0.908683, -0.22048469, -0.30269912, 0.18454166, 5.288040637969971, -4.685256481170654, 6.9047698974609375, 5.886359214782715, 19.92106819152832, 7.5901312828063965, 
635, 3406724196, 0.909664, -0.2203746, -0.2993565, 0.18529186, 5.022802829742432, -4.604581832885742, 7.3412580490112305, 11.010090827941895, 20.963747024536133, 7.422512531280518, 
636, 3406740863, 0.9105337, -0.22033828, -0.2963097, 0.18595923, 5.088867664337158, -4.290462493896484, 7.743282318115234, 9.830184936523438, 19.104751586914062, 6.729889869689941, 
637, 3406757530, 0.9111416, -0.22044726, -0.29389676, 0.1866803, 4.863399982452393, -4.434128284454346, 7.878773212432861, 7.8216142654418945, 14.707005500793457, 6.723494052886963, 
638, 3406774197, 0.9114553, -0.2208627, -0.29205748, 0.1875424, 5.058687210083008, -4.040139198303223, 7.92473030090332, 5.002738952636719, 10.699466705322266, 7.717686176300049, 
639, 3406790864, 0.91149396, -0.22180843, -0.29062867, 0.1884558, 5.0971221923828125, -4.398286819458008, 7.66692590713501, 0.8334248065948486, 8.177754402160645, 8.824821472167969, 
640, 3406807531, 0.9115893, -0.22265515, -0.2890416, 0.1894344, 5.151347637176514, -4.548069953918457, 7.439833164215088, 1.8751132488250732, 9.053421974182129, 9.192421913146973, 
641, 3406824198, 0.9117833, -0.22353943, -0.28711182, 0.19039191, 5.04668664932251, -4.5477213859558105, 7.31476354598999, 2.1954901218414307, 11.481380462646484, 9.518754005432129, 
642, 3406840865, 0.9121289, -0.22405288, -0.28509265, 0.19116548, 4.670812129974365, -5.069608211517334, 7.291831970214844, 4.50687837600708, 12.137969017028809, 7.561335563659668, 
643, 3406857532, 0.91256803, -0.22401752, -0.28335038, 0.19170123, 4.69210958480835, -4.864261150360107, 7.4172139167785645, 7.2624077796936035, 10.232547760009766, 4.429693222045898, 
644, 3406874199, 0.91294014, -0.22377235, -0.28184956, 0.19242749, 4.836019515991211, -4.365467071533203, 7.606691837310791, 8.529289245605469, 8.020352363586426, 4.916501045227051, 
