sep=,
DeviceTag:,R Lower Leg - 3,,,,,,,,,,,,,,,,,
FirmwareVersion:,3.0.0,,,,,,,,,,,,,,,,,
AppVersion:,2023.6.1,,,,,,,,,,,,,,,,,
StartTime:,2024-05-23 12:04:51.000 +0200,,,,,,,,,,,,,,,,,
 2024,,,,,,,,,,,,,,,,,,,

PacketCounter,SampleTimeFine,Quat_W,Quat_X,Quat_Y,Quat_Z,Acc_X,Acc_Y,Acc_Z,Gyr_X,Gyr_Y,Gyr_Z,
0, 3400688726, 0.5245303, 0.31022164, -0.7183434, 0.33557892, 0.0, 0.0, 0.0, 0.0, 0.0, 0.0, 
1, 3400705393, 0.5241806, 0.31034228, -0.7183766, 0.33594278, 9.613070487976074, -1.575645923614502, -2.306431770324707, 0.5015414953231812, -0.8426579236984253, 1.1522961854934692, 
2, 3400722060, 0.5236062, 0.31037095, -0.7188206, 0.33586237, 9.632246971130371, -1.5424392223358154, -2.301055431365967, 0.6351500749588013, -0.872227668762207, 1.2547084093093872, 
3, 3400738727, 0.52315813, 0.31065717, -0.71910834, 0.33567986, 9.652961730957031, -1.6077418327331543, -2.3351991176605225, 0.7498949766159058, -0.8526467084884644, 1.1964523792266846, 
4, 3400755394, 0.5227334, 0.31065875, -0.7194615, 0.3355833, 9.610868453979492, -1.624540090560913, -2.36210560798645, 0.8009283542633057, -0.46998023986816406, 1.039766788482666, 
5, 3400772061, 0.5221869, 0.31080654, -0.7197393, 0.33570167, 9.650146484375, -1.647047519683838, -2.4179015159606934, 0.5641645193099976, -0.21495456993579865, 0.7857270836830139, 
6, 3400788728, 0.5217031, 0.3108342, -0.7200282, 0.33580887, 9.6205472946167, -1.666258692741394, -2.506021499633789, 1.0474376678466797, 0.394185870885849, 0.5654323697090149, 
7, 3400805395, 0.52104074, 0.31110156, -0.72026265, 0.3360868, 9.633780479431152, -1.5735386610031128, -2.473729133605957, 1.4321659803390503, 0.7206965088844299, 0.49366554617881775, 
8, 3400822062, 0.5206507, 0.31112933, -0.7205447, 0.3360608, 9.63611888885498, -1.5377668142318726, -2.3952677249908447, 0.7204148173332214, 1.0961660146713257, 0.5166401863098145, 
9, 3400838729, 0.5203744, 0.31131595, -0.720637, 0.33611792, 9.594625473022461, -1.591025948524475, -2.3431389331817627, 0.8452255725860596, 1.2999790906906128, 0.40820878744125366, 
10, 3400855396, 0.5201606, 0.31154537, -0.7206042, 0.33630642, 9.626497268676758, -1.5818943977355957, -2.3033030033111572, 1.904887080192566, 1.2614575624465942, 0.2597448229789734, 
11, 3400872063, 0.5200075, 0.31177303, -0.7204867, 0.3365839, 9.649246215820312, -1.5316530466079712, -2.2086315155029297, 2.4219818115234375, 1.202650785446167, 0.3393362760543823, 
12, 3400888730, 0.5199396, 0.31201047, -0.72029704, 0.33687443, 9.646090507507324, -1.5597658157348633, -2.202423572540283, 2.084867477416992, 1.0179319381713867, 0.344510018825531, 
13, 3400905397, 0.5199232, 0.31223494, -0.7200649, 0.33718786, 9.641891479492188, -1.6006669998168945, -2.234288454055786, 2.119931221008301, 0.9137523174285889, 0.32998761534690857, 
14, 3400922064, 0.51992136, 0.31238914, -0.71984786, 0.33751115, 9.62952995300293, -1.5396007299423218, -2.138758659362793, 2.118042230606079, 0.8052505254745483, 0.5433478355407715, 
15, 3400938731, 0.5199301, 0.31254098, -0.71964467, 0.33779052, 9.651686668395996, -1.5224756002426147, -2.1352698802948, 1.3002222776412964, 0.42154020071029663, 0.6037105321884155, 
16, 3400955398, 0.5199267, 0.31270787, -0.71943605, 0.33808538, 9.644194602966309, -1.5449050664901733, -2.1450295448303223, 0.8882740139961243, 0.22457213699817657, 0.8326559662818909, 
17, 3400972065, 0.51997524, 0.31272677, -0.7193108, 0.33825988, 9.653044700622559, -1.5386220216751099, -2.1929636001586914, 0.39839908480644226, -0.019977904856204987, 0.974018931388855, 
18, 3400988732, 0.52009606, 0.31259045, -0.71925837, 0.33831176, 9.635176658630371, -1.564828872680664, -2.256887912750244, 0.4245625436306, -0.06929516792297363, 0.9454991221427917, 
19, 3401005399, 0.5200662, 0.31272507, -0.71909726, 0.3385757, 9.648477554321289, -1.589338779449463, -2.283243179321289, 0.9301572442054749, -0.12037970125675201, 0.9468311667442322, 
20, 3401022066, 0.5200505, 0.3128166, -0.718945, 0.3388383, 9.648897171020508, -1.604106068611145, -2.3184797763824463, 1.540303111076355, 0.018178613856434822, 0.882863461971283, 
21, 3401038733, 0.52002406, 0.312917, -0.7187975, 0.33909887, 9.632280349731445, -1.567667007446289, -2.353560209274292, 1.4118808507919312, 0.11093501001596451, 0.8373752236366272, 
22, 3401055400, 0.5199608, 0.3130876, -0.71862304, 0.33940813, 9.620063781738281, -1.58389413356781, -2.3623528480529785, 1.330291748046875, 0.26367637515068054, 0.8531526923179626, 
23, 3401072067, 0.5199704, 0.31313637, -0.71849597, 0.33961737, 9.651126861572266, -1.5706993341445923, -2.323615550994873, 1.086778998374939, 0.5148088932037354, 0.7733178734779358, 
24, 3401088734, 0.51993954, 0.31324732, -0.71834487, 0.33988184, 9.648499488830566, -1.5412254333496094, -2.2893402576446533, 1.174521565437317, 0.5484063625335693, 0.8306455016136169, 
25, 3401105401, 0.51994324, 0.31324401, -0.7182537, 0.34007192, 9.628358840942383, -1.5097581148147583, -2.2108874320983887, 1.1816035509109497, 0.48333728313446045, 0.9571466445922852, 
26, 3401122068, 0.5200089, 0.31307912, -0.71827775, 0.34007266, 9.644411087036133, -1.5323410034179688, -2.188431739807129, 0.10285419225692749, 0.18440502882003784, 1.016433596611023, 
27, 3401138735, 0.52016336, 0.31272557, -0.71839136, 0.33992195, 9.645280838012695, -1.6435524225234985, -2.2383930683135986, -0.2047223150730133, 0.12484270334243774, 1.041803002357483, 
28, 3401155402, 0.52015966, 0.31265622, -0.71837586, 0.3400239, 9.636737823486328, -1.6315486431121826, -2.2345778942108154, 0.07219579070806503, 0.13685505092144012, 1.188730239868164, 
29, 3401172069, 0.52020735, 0.3124766, -0.71841145, 0.34004068, 9.618500709533691, -1.5713016986846924, -2.2503790855407715, -0.5095261931419373, 0.20968477427959442, 1.2591266632080078, 
30, 3401188736, 0.5202054, 0.31238133, -0.71842635, 0.34009984, 9.625553131103516, -1.5617612600326538, -2.3235182762145996, -1.0204485654830933, 0.15288862586021423, 1.3366949558258057, 
31, 3401205403, 0.5202526, 0.31219542, -0.71847856, 0.34008798, 9.64525032043457, -1.5683592557907104, -2.3700506687164307, -0.8521472811698914, 0.20105329155921936, 1.2514557838439941, 
32, 3401222070, 0.5203345, 0.3119392, -0.7185504, 0.34004623, 9.628301620483398, -1.5849287509918213, -2.343114137649536, -0.5483678579330444, 0.33181893825531006, 1.2594468593597412, 
33, 3401238737, 0.5203471, 0.3118113, -0.71857196, 0.3400988, 9.679390907287598, -1.5504169464111328, -2.3058812618255615, -0.8130494952201843, 0.36853471398353577, 1.3499748706817627, 
34, 3401255404, 0.5205125, 0.31139073, -0.7187097, 0.33993945, 9.65363883972168, -1.627413272857666, -2.283454418182373, -1.2400516271591187, 0.5698120594024658, 1.4052727222442627, 
35, 3401272071, 0.52058035, 0.31122, -0.7187136, 0.33998376, 9.589841842651367, -1.6811230182647705, -2.294728994369507, -1.2494194507598877, 0.8451934456825256, 1.3895143270492554, 
36, 3401288738, 0.5206832, 0.3109909, -0.71872604, 0.3400098, 9.626195907592773, -1.629947304725647, -2.351618528366089, -0.6668779253959656, 0.9353951811790466, 1.26870596408844, 
37, 3401305405, 0.52086866, 0.3106061, -0.71879405, 0.33993384, 9.589731216430664, -1.6083240509033203, -2.295515298843384, -0.7053866386413574, 1.0970369577407837, 1.2656452655792236, 
38, 3401322072, 0.5210247, 0.3103595, -0.71878594, 0.339937, 9.66307258605957, -1.651846170425415, -2.3660340309143066, -0.5869022011756897, 1.2586658000946045, 1.0005923509597778, 
39, 3401338739, 0.5212033, 0.31008133, -0.7187581, 0.33997598, 9.639883041381836, -1.6376545429229736, -2.360822916030884, 0.5215322375297546, 1.4426417350769043, 0.9258415699005127, 
40, 3401355406, 0.52131003, 0.3099656, -0.718658, 0.34012955, 9.65146541595459, -1.6146149635314941, -2.2971270084381104, 0.3171044886112213, 1.5290206670761108, 0.9259824156761169, 
41, 3401372073, 0.52143323, 0.30987334, -0.7185357, 0.34028283, 9.628242492675781, -1.6309754848480225, -2.2826240062713623, 0.01431109569966793, 1.7114981412887573, 0.8148615956306458, 
42, 3401388740, 0.521614, 0.30965328, -0.7184638, 0.34035805, 9.582656860351562, -1.6552929878234863, -2.2267513275146484, 0.06524194031953812, 1.7564483880996704, 0.8648319244384766, 
43, 3401405407, 0.52177143, 0.3094932, -0.71837175, 0.3404568, 9.662025451660156, -1.6649295091629028, -2.217646837234497, -0.18224716186523438, 1.731476068496704, 0.8043988347053528, 
44, 3401422074, 0.5218465, 0.30953616, -0.7181765, 0.34071454, 9.641448020935059, -1.621021032333374, -2.223240375518799, 0.2038194239139557, 1.8140382766723633, 0.6889238357543945, 
45, 3401438741, 0.52205974, 0.30925676, -0.7181332, 0.3407326, 9.59646224975586, -1.5797560214996338, -2.158205986022949, 0.12580956518650055, 1.6851747035980225, 0.7415515780448914, 
46, 3401455408, 0.52216655, 0.3091414, -0.7180553, 0.34083778, 9.649365425109863, -1.630361795425415, -2.1093294620513916, 0.2045622169971466, 1.282984972000122, 0.7160990834236145, 
47, 3401472075, 0.5223287, 0.3088443, -0.7180661, 0.34083596, 9.678321838378906, -1.5351392030715942, -2.0954198837280273, 0.06519071757793427, 1.1674972772598267, 0.9667832851409912, 
48, 3401488742, 0.5224281, 0.30855623, -0.71813846, 0.34079197, 9.638826370239258, -1.4683451652526855, -2.0759165287017822, -1.4137697219848633, 0.7210038900375366, 1.3665591478347778, 
49, 3401505409, 0.52243054, 0.30845797, -0.71817875, 0.34079263, 9.651524543762207, -1.6028246879577637, -2.1969821453094482, -2.5034749507904053, 0.3764362633228302, 1.3034367561340332, 
50, 3401522076, 0.52247566, 0.30827558, -0.7182098, 0.34082288, 9.626630783081055, -1.7128289937973022, -2.2829575538635254, -0.7530516982078552, 0.5347995162010193, 1.2502901554107666, 
51, 3401538743, 0.5225396, 0.30805543, -0.7182554, 0.34082797, 9.671520233154297, -1.6225740909576416, -2.2637486457824707, -0.2578238546848297, 0.482645720243454, 1.121349573135376, 
52, 3401555410, 0.5226008, 0.30786702, -0.7182801, 0.34085208, 9.632328033447266, -1.681517481803894, -2.2900617122650146, -0.5994524955749512, 0.6252700686454773, 1.1318252086639404, 
53, 3401572077, 0.5227154, 0.307612, -0.7183049, 0.3408545, 9.598563194274902, -1.6831092834472656, -2.306802988052368, -0.11703722923994064, 0.8493234515190125, 1.028433084487915, 
54, 3401588744, 0.5227176, 0.30759758, -0.71821487, 0.3410538, 9.62787914276123, -1.5963327884674072, -2.2478508949279785, 0.37125611305236816, 0.9045765995979309, 0.9845778346061707, 
55, 3401605411, 0.5227633, 0.30745962, -0.7182214, 0.34109414, 9.66600513458252, -1.5801284313201904, -2.1711511611938477, -0.6554418802261353, 0.6411691308021545, 1.0100560188293457, 
56, 3401622078, 0.5228323, 0.30729017, -0.71825093, 0.34107915, 9.65166187286377, -1.6797877550125122, -2.177342414855957, -0.9857560992240906, 0.5943747758865356, 0.9332178235054016, 
57, 3401638745, 0.52291024, 0.30707094, -0.71830964, 0.34103337, 9.645469665527344, -1.6920483112335205, -2.130781888961792, -0.8065183162689209, 0.47582629323005676, 0.9638634920120239, 
58, 3401655412, 0.5230049, 0.30684954, -0.718375, 0.34094992, 9.643755912780762, -1.6981403827667236, -2.1673059463500977, -1.1985589265823364, 0.47213804721832275, 0.8374136090278625, 
59, 3401672079, 0.5230687, 0.3067157, -0.71838796, 0.34094515, 9.615432739257812, -1.7030080556869507, -2.1839747428894043, -1.1334130764007568, 0.6117656826972961, 0.8276038765907288, 
60, 3401688746, 0.5231299, 0.30659983, -0.7184015, 0.3409269, 9.637127876281738, -1.6853728294372559, -2.2168965339660645, -1.0548206567764282, 0.5091933012008667, 0.670835018157959, 
61, 3401705413, 0.5232244, 0.3064654, -0.7184072, 0.34089062, 9.645256042480469, -1.6601775884628296, -2.243173122406006, -0.9053193926811218, 0.6478093266487122, 0.5139700770378113, 
62, 3401722080, 0.5232739, 0.3064017, -0.7183877, 0.340913, 9.653422355651855, -1.6140518188476562, -2.2258188724517822, -0.5070289969444275, 0.5345562696456909, 0.49570178985595703, 
63, 3401738747, 0.523361, 0.3062564, -0.71840966, 0.34086347, 9.639684677124023, -1.6070098876953125, -2.2070257663726807, -0.9375593662261963, 0.5441033840179443, 0.5540924072265625, 
64, 3401755414, 0.5234699, 0.30607823, -0.7184518, 0.34076756, 9.599660873413086, -1.6684993505477905, -2.23563551902771, -1.1054824590682983, 0.5126638412475586, 0.4844129681587219, 
65, 3401772081, 0.5235614, 0.30596837, -0.7184407, 0.34074894, 9.640873908996582, -1.7079753875732422, -2.268690586090088, -0.40131261944770813, 0.6416173577308655, 0.3691750764846802, 
66, 3401788748, 0.5236547, 0.30584455, -0.71844035, 0.34071752, 9.631016731262207, -1.660068154335022, -2.2112226486206055, 0.026893336325883865, 0.5270965695381165, 0.2741071283817291, 
67, 3401805415, 0.52375674, 0.30574402, -0.71843344, 0.34066558, 9.6544828414917, -1.6795300245285034, -2.190201759338379, 0.004078822210431099, 0.496700644493103, 0.049426108598709106, 
68, 3401822082, 0.5237812, 0.30580026, -0.7183603, 0.3407317, 9.672807693481445, -1.675338625907898, -2.1565709114074707, 0.38820528984069824, 0.42276960611343384, -0.014727301895618439, 
69, 3401838749, 0.52384686, 0.30574667, -0.7183354, 0.3407313, 9.630486488342285, -1.6335256099700928, -2.1292309761047363, -0.15413722395896912, 0.49748826026916504, 0.20178966224193573, 
70, 3401855416, 0.523917, 0.30566975, -0.7183564, 0.34064803, 9.64122486114502, -1.6451336145401, -2.1778924465179443, -0.88298499584198, 0.24891060590744019, 0.133973628282547, 
71, 3401872083, 0.5239546, 0.30564895, -0.71835387, 0.3406142, 9.637417793273926, -1.6459243297576904, -2.165064573287964, -0.681797206401825, 0.207815021276474, 0.14663910865783691, 
72, 3401888750, 0.52395797, 0.3057354, -0.7182954, 0.34065482, 9.634788513183594, -1.5873887538909912, -2.2382051944732666, -0.45750683546066284, 0.2729225158691406, 0.015092281624674797, 
73, 3401905417, 0.5240292, 0.30565375, -0.71831244, 0.34058273, 9.63074016571045, -1.622779130935669, -2.2440378665924072, -0.34692397713661194, 0.2195328325033188, 0.08463076502084732, 
74, 3401922084, 0.5240558, 0.30571973, -0.7182386, 0.34063825, 9.650885581970215, -1.6845084428787231, -2.2505686283111572, 0.3752964735031128, 0.3850677013397217, -0.09895467013120651, 
75, 3401938751, 0.5240556, 0.30578363, -0.7181546, 0.3407583, 9.633270263671875, -1.6030712127685547, -2.229771852493286, 1.225599765777588, 0.3563559055328369, 0.07821479439735413, 
76, 3401955418, 0.52403855, 0.3058992, -0.7180614, 0.3408772, 9.644569396972656, -1.563873529434204, -2.1700656414031982, 0.8354926109313965, 0.29826629161834717, -0.013382635079324245, 
77, 3401972085, 0.52403384, 0.30597106, -0.7180092, 0.34092984, 9.650201797485352, -1.5906895399093628, -2.219240188598633, 0.6151721477508545, 0.10509530454874039, -0.057910311967134476, 
78, 3401988752, 0.5240184, 0.3060595, -0.7179547, 0.340989, 9.676143646240234, -1.6283724308013916, -2.2856462001800537, 0.9294912219047546, 0.004667914472520351, -0.13373669981956482, 
79, 3402005419, 0.5240584, 0.3060952, -0.7179049, 0.34100038, 9.657225608825684, -1.607926607131958, -2.2803471088409424, 0.5273014307022095, 0.266333669424057, -0.19719856977462769, 
80, 3402022086, 0.52415085, 0.30607623, -0.7178553, 0.34097964, 9.610695838928223, -1.6427308320999146, -2.321927785873413, 0.38563117384910583, 0.5363875031471252, -0.23371586203575134, 
81, 3402038753, 0.52422774, 0.3061177, -0.7177604, 0.34102395, 9.623825073242188, -1.614720106124878, -2.2951736450195312, 0.3922520577907562, 0.7502918839454651, -0.2045173943042755, 
82, 3402055420, 0.52433777, 0.30614057, -0.7176618, 0.34104177, 9.647175788879395, -1.5970505475997925, -2.2589497566223145, 0.05666809156537056, 0.9383723735809326, -0.27411991357803345, 
83, 3402072087, 0.52449906, 0.30606785, -0.71759635, 0.34099704, 9.628704071044922, -1.563915729522705, -2.2174055576324463, 0.11387407779693604, 1.0141092538833618, -0.2746962308883667, 
84, 3402088754, 0.5246017, 0.3060844, -0.71751076, 0.34100392, 9.643627166748047, -1.6144274473190308, -2.1661899089813232, 0.1080663800239563, 0.8313817977905273, -0.2572155296802521, 
85, 3402105421, 0.52467006, 0.3061435, -0.71741474, 0.34104782, 9.645010948181152, -1.5873892307281494, -2.1296274662017822, 0.628125786781311, 0.6596165895462036, -0.29446280002593994, 
86, 3402122088, 0.5246964, 0.30620828, -0.71735, 0.34108514, 9.628201484680176, -1.5347007513046265, -2.0965943336486816, 0.45956218242645264, 0.33922094106674194, -0.13765545189380646, 
87, 3402138755, 0.52472556, 0.30620492, -0.71735024, 0.34104294, 9.661674499511719, -1.5343037843704224, -2.1123759746551514, -0.3306087255477905, 0.10291822999715805, 0.04998958483338356, 
88, 3402155422, 0.5246979, 0.3062581, -0.7173393, 0.34106103, 9.628287315368652, -1.5540122985839844, -2.1703035831451416, -0.073341965675354, -0.08019336313009262, 0.19306212663650513, 
89, 3402172089, 0.5246371, 0.30635864, -0.71731514, 0.34111482, 9.647809982299805, -1.5475927591323853, -2.1932132244110107, 0.2715522348880768, -0.21435266733169556, 0.17022840678691864, 
90, 3402188756, 0.52461565, 0.3063559, -0.71734107, 0.3410958, 9.651360511779785, -1.5575348138809204, -2.212831974029541, 0.29605716466903687, -0.2775968313217163, 0.2221645563840866, 
91, 3402205423, 0.52459735, 0.30631587, -0.7173903, 0.34105638, 9.62930965423584, -1.5973379611968994, -2.210872173309326, 0.4079270362854004, -0.370231568813324, 0.28866150975227356, 
92, 3402222090, 0.52456367, 0.30630085, -0.71742857, 0.3410413, 9.65794849395752, -1.608038067817688, -2.203054666519165, 0.40770289301872253, -0.3644174635410309, 0.3296354115009308, 
93, 3402238757, 0.52449745, 0.30636796, -0.7174318, 0.3410759, 9.646535873413086, -1.6228222846984863, -2.2186286449432373, 0.4229040741920471, -0.36549320816993713, 0.2616977393627167, 
94, 3402255424, 0.52440834, 0.306491, -0.717415, 0.34113777, 9.629785537719727, -1.6125226020812988, -2.211480140686035, 0.5000623464584351, -0.4155275821685791, 0.1762537658214569, 
95, 3402272091, 0.5243055, 0.3066551, -0.71737844, 0.34122503, 9.644699096679688, -1.6310083866119385, -2.2130463123321533, 0.528434693813324, -0.39538320899009705, 0.12721186876296997, 
96, 3402288758, 0.5242184, 0.3067846, -0.7173544, 0.34129313, 9.643925666809082, -1.5876390933990479, -2.189387083053589, 0.528454065322876, -0.37073102593421936, 0.1566728800535202, 
97, 3402305425, 0.5240912, 0.3070023, -0.7172942, 0.34141937, 9.638922691345215, -1.5271978378295898, -2.2390527725219727, 0.27445927262306213, -0.3430308401584625, 0.18284264206886292, 
98, 3402322092, 0.5240527, 0.3070642, -0.7173037, 0.3414028, 9.631237983703613, -1.5826970338821411, -2.23972487449646, -0.12716704607009888, -0.29860565066337585, 0.11461041867733002, 
99, 3402338759, 0.5240527, 0.30705366, -0.7173302, 0.34135658, 9.6505765914917, -1.6560696363449097, -2.2414073944091797, 0.819388747215271, -0.31720051169395447, -0.01869727298617363, 
100, 3402355426, 0.5238863, 0.30738106, -0.7172058, 0.34157887, 9.634730339050293, -1.6072685718536377, -2.1587228775024414, 1.6741421222686768, -0.39715051651000977, -0.10902044922113419, 
101, 3402372093, 0.5238254, 0.3074462, -0.7172123, 0.3415996, 9.644925117492676, -1.5603282451629639, -2.1190578937530518, 1.2878000736236572, -0.5245224833488464, 0.018396321684122086, 
102, 3402388760, 0.52370554, 0.30758664, -0.7171987, 0.34168544, 9.632183074951172, -1.547561764717102, -2.1405351161956787, 1.0980805158615112, -0.6239573955535889, 0.20112372934818268, 
103, 3402405427, 0.5235581, 0.30777055, -0.71718866, 0.34176686, 9.635807991027832, -1.5728956460952759, -2.2131147384643555, 1.1532437801361084, -0.8633273243904114, 0.07922648638486862, 
104, 3402422094, 0.52340585, 0.30796653, -0.7171609, 0.34188193, 9.651960372924805, -1.574755072593689, -2.247995615005493, 1.7422269582748413, -0.8350956439971924, 0.044924668967723846, 
105, 3402438761, 0.5231819, 0.308282, -0.71708345, 0.34210277, 9.657350540161133, -1.5953036546707153, -2.237287759780884, 1.9576363563537598, -0.8891833424568176, 0.12835164368152618, 
106, 3402455428, 0.5229941, 0.30849653, -0.7170585, 0.342249, 9.638372421264648, -1.5922304391860962, -2.2375476360321045, 2.062251329421997, -0.9973969459533691, 0.1580367535352707, 
107, 3402472095, 0.5228201, 0.30867925, -0.71705, 0.34236765, 9.620158195495605, -1.5589518547058105, -2.2554049491882324, 1.8047795295715332, -0.9784947037696838, 0.20571480691432953, 
108, 3402488762, 0.52261776, 0.3089308, -0.7170149, 0.34252313, 9.633191108703613, -1.5616514682769775, -2.256131887435913, 1.545143485069275, -0.9597845673561096, 0.19932439923286438, 
109, 3402505429, 0.5225015, 0.30901673, -0.7170512, 0.34254712, 9.634688377380371, -1.6157886981964111, -2.298848867416382, 1.502063274383545, -0.950615406036377, 0.14660069346427917, 
110, 3402522096, 0.5223861, 0.30915305, -0.7170286, 0.3426476, 9.63394546508789, -1.5891847610473633, -2.3271830081939697, 2.0271875858306885, -0.6540074944496155, 0.0872560665011406, 
111, 3402538763, 0.5222986, 0.30925897, -0.7170174, 0.34270856, 9.651630401611328, -1.5406029224395752, -2.314725637435913, 1.478281855583191, -0.5317965149879456, 0.09207125008106232, 
112, 3402555430, 0.52227145, 0.30925116, -0.7170535, 0.34268177, 9.640052795410156, -1.5564954280853271, -2.3256235122680664, 0.8953367471694946, -0.4046934247016907, 0.19097469747066498, 
113, 3402572097, 0.5221391, 0.30949193, -0.7169688, 0.3428432, 9.63634204864502, -1.595993161201477, -2.3274950981140137, 0.961532711982727, -0.26778078079223633, 0.15368260443210602, 
114, 3402588764, 0.521964, 0.30981222, -0.7168538, 0.3430609, 9.638609886169434, -1.5703074932098389, -2.2492787837982178, 1.2954134941101074, -0.3604987561702728, 0.0943443775177002, 
115, 3402605431, 0.52189267, 0.3099437, -0.71681935, 0.34312272, 9.639283180236816, -1.5175378322601318, -2.251343250274658, 0.9520047903060913, -0.2895643413066864, 0.05047622695565224, 
116, 3402622098, 0.5218621, 0.3099655, -0.71683675, 0.34311295, 9.628451347351074, -1.5691219568252563, -2.275679588317871, 0.45552825927734375, -0.24533121287822723, 0.25276532769203186, 
117, 3402638765, 0.5218196, 0.3100267, -0.7168379, 0.34312, 9.659697532653809, -1.6028525829315186, -2.283712387084961, 0.5295617580413818, -0.26127511262893677, 0.16550283133983612, 
118, 3402655432, 0.5218297, 0.31001624, -0.71684563, 0.34309804, 9.635207176208496, -1.5888373851776123, -2.306575059890747, 0.7800347208976746, -0.04983590543270111, 0.13182856142520905, 
119, 3402672099, 0.52180684, 0.3100769, -0.71682334, 0.34312433, 9.652247428894043, -1.5552747249603271, -2.308445453643799, 0.26397088170051575, 0.037490591406822205, 0.23460592329502106, 
120, 3402688766, 0.5218398, 0.31007022, -0.7168233, 0.34308043, 9.650148391723633, -1.5513908863067627, -2.375145196914673, 0.10658083856105804, 0.14140130579471588, 0.09798778593540192, 
121, 3402705433, 0.5218359, 0.3101294, -0.7167951, 0.34309155, 9.627715110778809, -1.5804007053375244, -2.2811620235443115, 0.3201906979084015, 0.11075571179389954, 0.1032767966389656, 
122, 3402722100, 0.52181286, 0.3102512, -0.7167351, 0.3431418, 9.631524085998535, -1.5567551851272583, -2.2470884323120117, 0.25955912470817566, 0.17494754493236542, 0.052595674991607666, 
123, 3402738767, 0.52182114, 0.31025904, -0.716736, 0.34312037, 9.623459815979004, -1.5335813760757446, -2.210228443145752, -0.19523277878761292, 0.13974928855895996, 0.3030814528465271, 
124, 3402755434, 0.5218265, 0.31024426, -0.7167589, 0.3430778, 9.634842872619629, -1.5582858324050903, -2.206770181655884, -0.461259126663208, 0.058441780507564545, 0.406403124332428, 
125, 3402772101, 0.5218136, 0.31028333, -0.71674365, 0.34309393, 9.661295890808105, -1.5514910221099854, -2.2908897399902344, -0.029172861948609352, 0.13361506164073944, 0.36129915714263916, 
126, 3402788768, 0.52174276, 0.3104265, -0.71668375, 0.3431973, 9.645149230957031, -1.4882279634475708, -2.302462339401245, 0.03431461378931999, 0.12194846570491791, 0.42890384793281555, 
127, 3402805435, 0.52179676, 0.31032214, -0.7167421, 0.3430877, 9.620835304260254, -1.5520167350769043, -2.2887446880340576, -0.37399667501449585, 0.08456674218177795, 0.3796122372150421, 
128, 3402822102, 0.5218117, 0.3103243, -0.71673614, 0.3430755, 9.6309232711792, -1.608302354812622, -2.316283941268921, 0.5746721625328064, 0.1112743690609932, 0.19965098798274994, 
129, 3402838769, 0.52183676, 0.31027547, -0.71673954, 0.34307444, 9.613299369812012, -1.5405675172805786, -2.2547826766967773, 0.9556930065155029, 0.17991000413894653, 0.36090216040611267, 
130, 3402855436, 0.52178174, 0.31033525, -0.7167241, 0.3431363, 9.637675285339355, -1.5245335102081299, -2.280994176864624, 0.5684546828269958, -0.03839343413710594, 0.5030013918876648, 
131, 3402872103, 0.52170324, 0.3104136, -0.71669495, 0.34324566, 9.657264709472656, -1.5833368301391602, -2.2779977321624756, 1.335682988166809, -0.11044195294380188, 0.5285243988037109, 
132, 3402888770, 0.52159053, 0.31056625, -0.71661454, 0.34344637, 9.652121543884277, -1.5931193828582764, -2.1756904125213623, 2.3068013191223145, -0.08358705043792725, 0.4511100947856903, 
133, 3402905437, 0.5213334, 0.31098205, -0.7164081, 0.34389147, 9.619057655334473, -1.6514661312103271, -2.1183974742889404, 3.6132094860076904, -0.19080181419849396, 0.43774667382240295, 
134, 3402922104, 0.52099323, 0.3114471, -0.71620333, 0.344412, 9.598493576049805, -1.5189110040664673, -2.1308319568634033, 4.629528045654297, -0.6202116012573242, 0.5942211151123047, 
135, 3402938771, 0.5207148, 0.31169114, -0.71615905, 0.3447043, 9.65349292755127, -1.3993560075759888, -2.154959201812744, 3.301156997680664, -1.054276466369629, 0.8201443552970886, 
136, 3402955438, 0.52041143, 0.31191146, -0.7161744, 0.34493098, 9.623187065124512, -1.4833977222442627, -2.247645854949951, 2.043726921081543, -1.3467029333114624, 1.077539086341858, 
137, 3402972105, 0.5201798, 0.3120298, -0.71622145, 0.34507564, 9.658629417419434, -1.5631881952285767, -2.3347697257995605, 2.146324872970581, -1.2317404747009277, 0.9433733820915222, 
138, 3402988772, 0.5198847, 0.31227508, -0.7162013, 0.34534043, 9.619955062866211, -1.5691572427749634, -2.361245632171631, 2.333054304122925, -1.1361920833587646, 1.0260895490646362, 
139, 3403005439, 0.51964396, 0.31245026, -0.7162198, 0.3455061, 9.644207954406738, -1.5485235452651978, -2.387514591217041, 1.389949917793274, -1.0447676181793213, 0.9746528267860413, 
140, 3403022106, 0.5195623, 0.3123414, -0.71634513, 0.34546727, 9.648268699645996, -1.5887824296951294, -2.420468330383301, 0.6208133697509766, -0.7265169024467468, 1.0767579078674316, 
141, 3403038773, 0.5194906, 0.31228402, -0.71641517, 0.3454815, 9.60422420501709, -1.5934867858886719, -2.4241132736206055, 0.6175222396850586, -0.3763658106327057, 1.0027884244918823, 
142, 3403055440, 0.5193874, 0.31231517, -0.7164358, 0.34556597, 9.612020492553711, -1.6137704849243164, -2.3904590606689453, 0.5697993636131287, -0.24392251670360565, 0.9972111582756042, 
143, 3403072107, 0.5193558, 0.31225452, -0.7164681, 0.3456013, 9.61469841003418, -1.544288992881775, -2.360722303390503, 0.4471721351146698, 0.0761977881193161, 0.9869982004165649, 
144, 3403088774, 0.5193048, 0.3122579, -0.7164858, 0.34563798, 9.630840301513672, -1.5718401670455933, -2.326904058456421, -0.22727428376674652, 0.0692567378282547, 0.9255405068397522, 
145, 3403105441, 0.5193692, 0.3120551, -0.71657366, 0.3455422, 9.602554321289062, -1.5989668369293213, -2.326162815093994, -0.3183274269104004, 0.2894298732280731, 0.9541178941726685, 
146, 3403122108, 0.51934034, 0.31204745, -0.71657467, 0.34559065, 9.622051239013672, -1.618037223815918, -2.327585220336914, 0.08228720724582672, 0.24549132585525513, 0.8741039037704468, 
147, 3403138775, 0.5194239, 0.31180787, -0.71666175, 0.3455007, 9.65500545501709, -1.559596061706543, -2.2810211181640625, 0.13198864459991455, 0.3926747441291809, 0.9793720841407776, 
148, 3403155442, 0.5194038, 0.31176946, -0.716674, 0.34554026, 9.620601654052734, -1.5382393598556519, -2.2827775478363037, -0.4859113395214081, 0.37404149770736694, 1.0903006792068481, 
149, 3403172109, 0.51938975, 0.31170076, -0.7167056, 0.34555772, 9.621312141418457, -1.5843771696090698, -2.3031535148620605, -0.5596631169319153, 0.32468581199645996, 1.1495428085327148, 
150, 3403188776, 0.519382, 0.31158957, -0.71676433, 0.34554788, 9.612581253051758, -1.5837455987930298, -2.2743544578552246, -0.5282618999481201, 0.23483002185821533, 1.2177685499191284, 
151, 3403205443, 0.519411, 0.31144208, -0.71683544, 0.3454897, 9.627148628234863, -1.5925146341323853, -2.3330564498901367, -0.8644670844078064, 0.32997483015060425, 1.1359679698944092, 
152, 3403222110, 0.51945776, 0.31124026, -0.7169208, 0.34542403, 9.63797664642334, -1.5889675617218018, -2.328787326812744, -0.7901902794837952, 0.417352557182312, 1.28216552734375, 
153, 3403238777, 0.5195724, 0.31090426, -0.71706784, 0.3452488, 9.618916511535645, -1.6109883785247803, -2.335110902786255, -0.7690854072570801, 0.38043826818466187, 1.2203172445297241, 
154, 3403255444, 0.5195688, 0.3108314, -0.71708, 0.3452946, 9.631317138671875, -1.609356164932251, -2.29764986038208, -0.1887015700340271, 0.4963420629501343, 1.1773581504821777, 
155, 3403272111, 0.5195664, 0.3107438, -0.7171101, 0.3453148, 9.622465133666992, -1.5742497444152832, -2.2486300468444824, 0.1742175668478012, 0.31511300802230835, 1.0609291791915894, 
156, 3403288778, 0.51953316, 0.3106246, -0.71717757, 0.3453319, 9.623541831970215, -1.5442893505096436, -2.20658802986145, 0.1281019151210785, 0.07815715670585632, 1.3400307893753052, 
157, 3403305445, 0.5194463, 0.31055737, -0.7172517, 0.3453689, 9.609185218811035, -1.5456453561782837, -2.197619915008545, 0.06978180259466171, -0.21473047137260437, 1.4048694372177124, 
158, 3403322112, 0.5193172, 0.31046286, -0.71738565, 0.34536994, 9.60090446472168, -1.5599960088729858, -2.239051103591919, -0.09398581087589264, -0.6819125413894653, 1.6086057424545288, 
159, 3403338779, 0.51917654, 0.3103262, -0.7175449, 0.34537357, 9.658524513244629, -1.49579918384552, -2.269538402557373, -0.08217833936214447, -0.7566119432449341, 1.872506022453308, 
160, 3403355446, 0.5189575, 0.31028652, -0.71770084, 0.34541455, 9.612144470214844, -1.5912365913391113, -2.252758264541626, -0.19496387243270874, -1.130967140197754, 1.9067440032958984, 
161, 3403372113, 0.518607, 0.31043229, -0.71777827, 0.34564847, 9.567244529724121, -1.7002935409545898, -2.2680375576019287, 1.4218376874923706, -1.4457217454910278, 1.9381259679794312, 
162, 3403388780, 0.51822996, 0.31051767, -0.7178973, 0.34589043, 9.5620756149292, -1.5972963571548462, -2.147294282913208, 2.7975473403930664, -1.8550512790679932, 2.042203426361084, 
163, 3403405447, 0.5177833, 0.31056458, -0.718121, 0.3460527, 9.569610595703125, -1.5102787017822266, -2.121349811553955, 2.043790817260742, -2.6340036392211914, 2.3696868419647217, 
164, 3403422114, 0.5172871, 0.3105244, -0.7184494, 0.34614965, 9.58240795135498, -1.5917803049087524, -2.232374429702759, 2.018902063369751, -3.332289218902588, 2.74084734916687, 
165, 3403438781, 0.5167443, 0.31054834, -0.71874076, 0.34633353, 9.679306983947754, -1.6527155637741089, -2.316098690032959, 2.655249834060669, -3.3611037731170654, 2.8182358741760254, 
166, 3403455448, 0.5162247, 0.3106409, -0.71896625, 0.3465571, 9.691383361816406, -1.7054671049118042, -2.436309814453125, 2.7983474731445312, -3.0149986743927, 2.522921323776245, 
167, 3403472115, 0.51575065, 0.31072503, -0.7191538, 0.3467984, 9.64903450012207, -1.7117047309875488, -2.4969937801361084, 2.509660482406616, -2.5266032218933105, 2.5201869010925293, 
168, 3403488782, 0.5153766, 0.31074587, -0.7193407, 0.3469481, 9.620490074157715, -1.7782549858093262, -2.5026421546936035, 1.570276141166687, -2.0529346466064453, 2.280644178390503, 
169, 3403505449, 0.51510507, 0.31070557, -0.7194983, 0.3470607, 9.614869117736816, -1.8251910209655762, -2.52146053314209, 1.5436900854110718, -1.467089056968689, 2.0153350830078125, 
170, 3403522116, 0.5148903, 0.3107059, -0.7195809, 0.34720755, 9.581801414489746, -1.7525452375411987, -2.5104312896728516, 1.68516206741333, -0.8898748755455017, 1.6870061159133911, 
171, 3403538783, 0.5147211, 0.31070927, -0.7196379, 0.34733716, 9.615516662597656, -1.7004632949829102, -2.4809672832489014, 1.3581455945968628, -0.5675390362739563, 1.500769853591919, 
172, 3403555450, 0.5146144, 0.3106491, -0.7197103, 0.34739938, 9.63609504699707, -1.6892677545547485, -2.468353033065796, 0.9676092267036438, -0.3587762713432312, 1.3823299407958984, 
173, 3403572117, 0.51453924, 0.31058875, -0.71975785, 0.34746626, 9.590930938720703, -1.7012571096420288, -2.4491074085235596, 0.7901966571807861, -0.06203395873308182, 1.3202130794525146, 
174, 3403588784, 0.51456267, 0.310383, -0.71986914, 0.34738466, 9.639103889465332, -1.649722695350647, -2.424678325653076, -0.1518833190202713, 0.10845057666301727, 1.256091594696045, 
175, 3403605451, 0.5146269, 0.31011665, -0.72001153, 0.34723225, 9.599496841430664, -1.6926870346069336, -2.4335451126098633, -0.7556962370872498, 0.1760616898536682, 1.2492209672927856, 
176, 3403622118, 0.51464593, 0.3099724, -0.7200987, 0.34715217, 9.608987808227539, -1.7492601871490479, -2.4246742725372314, -1.1070770025253296, 0.2790631651878357, 1.224760890007019, 
177, 3403638785, 0.51471275, 0.30981606, -0.7201547, 0.34707674, 9.632267951965332, -1.758867621421814, -2.4219729900360107, -0.5648177266120911, 0.5526580214500427, 0.9789045453071594, 
178, 3403655452, 0.5147551, 0.30973426, -0.7201563, 0.34708348, 9.582493782043457, -1.7204158306121826, -2.432405471801758, -0.17230942845344543, 0.7145751118659973, 0.9516847133636475, 
179, 3403672119, 0.5147437, 0.3097742, -0.7201045, 0.34717217, 9.584073066711426, -1.7079460620880127, -2.4518866539001465, -0.16366516053676605, 0.7361154556274414, 0.917811930179596, 
180, 3403688786, 0.5148637, 0.3096286, -0.7201004, 0.34713268, 9.591595649719238, -1.7614911794662476, -2.516101598739624, -0.030594371259212494, 1.04027259349823, 0.7296546101570129, 
181, 3403705453, 0.5149479, 0.30964613, -0.71998554, 0.3472304, 9.593762397766113, -1.7497025728225708, -2.539067506790161, 0.09474137425422668, 1.4536871910095215, 0.613897979259491, 
182, 3403722120, 0.5151197, 0.30955535, -0.7198856, 0.3472637, 9.587733268737793, -1.736885905265808, -2.526400327682495, 0.21974414587020874, 1.760386347770691, 0.4880499541759491, 
183, 3403738787, 0.5153703, 0.3094195, -0.71976143, 0.3472702, 9.592999458312988, -1.7055572271347046, -2.490952730178833, -0.3469560444355011, 2.3329713344573975, 0.4185371696949005, 
184, 3403755454, 0.51572615, 0.30913135, -0.71970385, 0.347118, 9.59463119506836, -1.7055895328521729, -2.5048904418945312, -1.126990795135498, 2.468590497970581, 0.2752853035926819, 
185, 3403772121, 0.5160323, 0.3090511, -0.71950233, 0.34715232, 9.574922561645508, -1.7648628950119019, -2.4861369132995605, -0.29256105422973633, 2.8936009407043457, 0.03569769486784935, 
186, 3403788788, 0.5163697, 0.30895323, -0.71929425, 0.34716892, 9.611568450927734, -1.7400003671646118, -2.428370714187622, -0.102924644947052, 3.0100619792938232, -0.12507963180541992, 
187, 3403805455, 0.5167212, 0.3088741, -0.71906286, 0.3471957, 9.6249418258667, -1.7336392402648926, -2.390237808227539, 0.26350346207618713, 3.1038241386413574, -0.31615039706230164, 
188, 3403822122, 0.51705325, 0.30882147, -0.7188067, 0.34727862, 9.611113548278809, -1.6881605386734009, -2.3278136253356934, 0.676777184009552, 3.160555839538574, -0.2449086308479309, 
189, 3403838789, 0.5173885, 0.30875167, -0.7185741, 0.3473228, 9.602029800415039, -1.616438627243042, -2.2672019004821777, 0.3280218541622162, 3.060026168823242, -0.2433270364999771, 
190, 3403855456, 0.51773334, 0.30859503, -0.7184117, 0.34728363, 9.61673355102539, -1.6461639404296875, -2.27085280418396, -0.22758807241916656, 2.8181653022766113, -0.05988889932632446, 
191, 3403872123, 0.5180361, 0.3084445, -0.71826315, 0.347273, 9.606287002563477, -1.6132173538208008, -2.208832025527954, -0.4552657902240753, 2.6952948570251465, 0.2504858374595642, 
192, 3403888790, 0.51828545, 0.3083364, -0.7181549, 0.34722078, 9.613595008850098, -1.6262973546981812, -2.1935691833496094, -1.4174132347106934, 2.2724356651306152, 0.33359259366989136, 
193, 3403905457, 0.5186339, 0.30798444, -0.7181643, 0.3469935, 9.633357048034668, -1.6327108144760132, -2.229052782058716, -1.6457632780075073, 2.159586191177368, 0.4608108699321747, 
194, 3403922124, 0.5188387, 0.30783415, -0.71811956, 0.34691325, 9.615276336669922, -1.618739128112793, -2.186196804046631, -1.4643933773040771, 1.7979604005813599, 0.6162030696868896, 
195, 3403938791, 0.51899797, 0.30773783, -0.7180777, 0.34684703, 9.605561256408691, -1.6231673955917358, -2.1582746505737305, -1.1923799514770508, 1.4752529859542847, 0.5404663681983948, 
196, 3403955458, 0.5190937, 0.30769742, -0.71802795, 0.34684294, 9.613201141357422, -1.605092167854309, -2.156834363937378, -0.478189080953598, 1.1733497381210327, 0.6164271831512451, 
197, 3403972125, 0.5191755, 0.307575, -0.71803457, 0.34681556, 9.619829177856445, -1.5493087768554688, -2.1760025024414062, 0.07440488785505295, 0.8361650109291077, 0.8427346348762512, 
198, 3403988792, 0.5191811, 0.30753705, -0.71804357, 0.34682217, 9.646994590759277, -1.677366018295288, -2.1835014820098877, 0.06528677046298981, 0.43845099210739136, 0.8898620009422302, 
199, 3404005459, 0.5191837, 0.30743203, -0.71807444, 0.3468473, 9.635819435119629, -1.705552577972412, -2.193836212158203, 1.2090667486190796, 0.2857672870159149, 1.030290126800537, 
200, 3404022126, 0.51915646, 0.30735156, -0.7181165, 0.3468723, 9.605817794799805, -1.6427234411239624, -2.171940565109253, 0.7922008037567139, 0.13798841834068298, 1.1284699440002441, 
201, 3404038793, 0.51907974, 0.30739576, -0.7181242, 0.34693208, 9.635852813720703, -1.6945905685424805, -2.274179697036743, 0.4120570719242096, 0.015918292105197906, 0.9609500169754028, 
202, 3404055460, 0.51902544, 0.30741927, -0.7181292, 0.346982, 9.626678466796875, -1.7405931949615479, -2.2975716590881348, 0.663253664970398, 0.08263937383890152, 0.8716641664505005, 
203, 3404072127, 0.51896393, 0.3074472, -0.7181354, 0.34703648, 9.611979484558105, -1.70771062374115, -2.281606674194336, 0.6257311105728149, 0.06336581707000732, 0.9077141284942627, 
204, 3404088794, 0.51887953, 0.30755505, -0.7181115, 0.34711662, 9.610858917236328, -1.7044966220855713, -2.347148895263672, 0.40050581097602844, 0.07053738087415695, 0.771672248840332, 
205, 3404105461, 0.5189575, 0.30739662, -0.7181818, 0.34699494, 9.615408897399902, -1.7108038663864136, -2.365231990814209, 0.023768585175275803, 0.33400240540504456, 0.680708646774292, 
206, 3404122128, 0.5189482, 0.30741593, -0.7181726, 0.34701043, 9.605997085571289, -1.7120555639266968, -2.3525149822235107, 0.16356267035007477, 0.35743802785873413, 0.6936686635017395, 
207, 3404138795, 0.5190084, 0.30737054, -0.7181554, 0.34699646, 9.600240707397461, -1.743494987487793, -2.3494021892547607, 0.6176502108573914, 0.6381659507751465, 0.5023418068885803, 
208, 3404155462, 0.5190555, 0.30739516, -0.7180964, 0.34702656, 9.62331485748291, -1.751976490020752, -2.3032238483428955, 1.035854458808899, 0.6898781657218933, 0.2946997582912445, 
209, 3404172129, 0.5191361, 0.3074021, -0.7180349, 0.34702665, 9.614033699035645, -1.7378123998641968, -2.2817530632019043, 0.8437463045120239, 0.8276872038841248, 0.16786563396453857, 
210, 3404188796, 0.51918745, 0.30748907, -0.71794003, 0.3470691, 9.5924711227417, -1.69844651222229, -2.2840797901153564, 0.9253612756729126, 0.810565173625946, 0.05143030360341072, 
211, 3404205463, 0.51926124, 0.30750686, -0.71789545, 0.34703517, 9.601272583007812, -1.6810212135314941, -2.2509007453918457, 0.4524867534637451, 0.6827192902565002, 0.09962058812379837, 
212, 3404222130, 0.5193089, 0.3076115, -0.7178046, 0.3470591, 9.645668983459473, -1.7401440143585205, -2.2679314613342285, 0.7087802290916443, 0.7336629629135132, -0.04179352521896362, 
213, 3404238797, 0.5193347, 0.30778575, -0.7176738, 0.34713677, 9.604131698608398, -1.69259774684906, -2.258124828338623, 1.2823383808135986, 0.7357120513916016, -0.20645759999752045, 
214, 3404255464, 0.519304, 0.30805063, -0.7175268, 0.34725133, 9.629173278808594, -1.642454981803894, -2.2190122604370117, 0.7469815015792847, 0.6061117053031921, -0.14323261380195618, 
215, 3404272131, 0.5193492, 0.30811742, -0.71749604, 0.34718797, 9.629077911376953, -1.693058729171753, -2.2254059314727783, 0.12429842352867126, 0.38682860136032104, -0.05904367193579674, 
216, 3404288798, 0.51936, 0.30822, -0.7174571, 0.34716117, 9.616018295288086, -1.7243293523788452, -2.2181320190429688, 0.12429842352867126, 0.31288471817970276, 0.0542604997754097, 
217, 3404305465, 0.5193557, 0.3083597, -0.71741277, 0.34713525, 9.630029678344727, -1.6641770601272583, -2.2341530323028564, 0.14905311167240143, 0.19758915901184082, -0.07031966745853424, 
218, 3404322132, 0.5194201, 0.3083514, -0.7174374, 0.3469954, 9.615878105163574, -1.6532055139541626, -2.2267005443573, -0.28334689140319824, 0.21448074281215668, 0.014663268812000751, 
219, 3404338799, 0.5194483, 0.30836976, -0.717466, 0.34687757, 9.616278648376465, -1.64959716796875, -2.233656167984009, -0.41106465458869934, 0.08043669164180756, 0.15151193737983704, 
220, 3404355466, 0.5194569, 0.3083995, -0.71749413, 0.34678018, 9.606371879577637, -1.6834602355957031, -2.277775764465332, -0.27706536650657654, 0.00964958406984806, 0.22644828259944916, 
221, 3404372133, 0.51946896, 0.30846134, -0.71750635, 0.34668195, 9.621359825134277, -1.6745197772979736, -2.2797319889068604, -0.09274358302354813, 5.058508249931037E-4, 0.013184135779738426, 
222, 3404388800, 0.51945865, 0.30853084, -0.717515, 0.34661764, 9.627997398376465, -1.6492252349853516, -2.283998489379883, 0.17658674716949463, -0.04956057295203209, 0.1372968703508377, 
223, 3404405467, 0.51944965, 0.3086067, -0.71752584, 0.34654123, 9.604144096374512, -1.6883200407028198, -2.2201993465423584, 0.18927787244319916, -0.10095886141061783, 0.051955364644527435, 
224, 3404422134, 0.5194342, 0.30868194, -0.7175327, 0.3464831, 9.637992858886719, -1.6941494941711426, -2.237135887145996, 0.5992538928985596, -0.1342233419418335, 0.060490790754556656, 
225, 3404438801, 0.5193722, 0.30880588, -0.71753484, 0.34646103, 9.622315406799316, -1.6292768716812134, -2.1787259578704834, 0.7062061429023743, -0.32173386216163635, 0.12938253581523895, 
226, 3404455468, 0.5193552, 0.30879664, -0.7176267, 0.34630463, 9.630561828613281, -1.6039828062057495, -2.1835250854492188, -0.4548623263835907, -0.44675594568252563, 0.3262161314487457, 
227, 3404472135, 0.5192906, 0.30883566, -0.7177228, 0.34616745, 9.634932518005371, -1.6583951711654663, -2.254520893096924, -0.6913570761680603, -0.6593412160873413, 0.42066293954849243, 
228, 3404488802, 0.51920736, 0.30891266, -0.7178017, 0.34606007, 9.627138137817383, -1.6421858072280884, -2.284013271331787, -0.5718355178833008, -0.672775149345398, 0.4053337872028351, 
229, 3404505469, 0.51916623, 0.3089033, -0.71791357, 0.3458978, 9.631682395935059, -1.6337801218032837, -2.3058528900146484, -0.41014254093170166, -0.6690100431442261, 0.3950246274471283, 
230, 3404522136, 0.5191895, 0.30876136, -0.7180711, 0.34566253, 9.622468948364258, -1.6706430912017822, -2.2905499935150146, -0.13191820681095123, -0.6107987761497498, 0.4176342487335205, 
231, 3404538803, 0.5191346, 0.30877528, -0.7181723, 0.3455224, 9.637099266052246, -1.666258692741394, -2.375602960586548, -0.04130047559738159, -0.7293344140052795, 0.34192314743995667, 
232, 3404555470, 0.5191099, 0.3087359, -0.71827775, 0.3453754, 9.618678092956543, -1.631487250328064, -2.3742618560791016, -0.3347323536872864, -0.47967463731765747, 0.5161727666854858, 
233, 3404572137, 0.5190838, 0.3087291, -0.71836275, 0.34524384, 9.609188079833984, -1.6688235998153687, -2.405536413192749, -0.5926330089569092, -0.3587890863418579, 0.48984286189079285, 
234, 3404588804, 0.5191497, 0.30859458, -0.7184696, 0.34504265, 9.575095176696777, -1.6718661785125732, -2.4031970500946045, -0.6561269760131836, -0.007536537013947964, 0.47099196910858154, 
235, 3404605471, 0.51920134, 0.30853617, -0.7185254, 0.34490132, 9.621953964233398, -1.6564956903457642, -2.4417810440063477, -0.604632556438446, 0.18300272524356842, 0.3902606964111328, 
236, 3404622138, 0.5192664, 0.30847657, -0.7185656, 0.34477264, 9.610981941223145, -1.666011929512024, -2.4112648963928223, -0.45694974064826965, 0.32693326473236084, 0.3591668903827667, 
237, 3404638805, 0.5193441, 0.30845752, -0.7185521, 0.34470075, 9.61275577545166, -1.6626110076904297, -2.390497922897339, -0.27334514260292053, 0.674638569355011, 0.2954680919647217, 
238, 3404655472, 0.51944053, 0.30839792, -0.7185469, 0.3446195, 9.604809761047363, -1.6397303342819214, -2.37937593460083, 0.12814033031463623, 0.6959354281425476, 0.2833404839038849, 
239, 3404672139, 0.5195182, 0.30839023, -0.7185131, 0.3445802, 9.621187210083008, -1.6626571416854858, -2.350029230117798, 0.3276568651199341, 0.7285723686218262, 0.23190376162528992, 
240, 3404688806, 0.5195569, 0.30847463, -0.71841985, 0.3446404, 9.61890983581543, -1.6838481426239014, -2.3370251655578613, 0.9670778512954712, 0.8221355676651001, 0.19366401433944702, 
241, 3404705473, 0.5195747, 0.30855712, -0.7183235, 0.3447405, 9.618635177612305, -1.6141014099121094, -2.2576498985290527, 1.2001469135284424, 0.8243191242218018, 0.3889032006263733, 
242, 3404722140, 0.51963335, 0.30856407, -0.7182802, 0.34473604, 9.622915267944336, -1.5923187732696533, -2.259805202484131, 0.40917566418647766, 0.7496964931488037, 0.35427480936050415, 
243, 3404738807, 0.5196567, 0.3086133, -0.7182345, 0.34475207, 9.635631561279297, -1.6508574485778809, -2.277894973754883, 0.5125485062599182, 0.5686659216880798, 0.3557731807231903, 
244, 3404755474, 0.51965845, 0.30869186, -0.7181676, 0.34481838, 9.622641563415527, -1.6016924381256104, -2.2341394424438477, 0.7425249218940735, 0.6205060482025146, 0.45119327306747437, 
245, 3404772141, 0.51967794, 0.30868912, -0.7181565, 0.34481466, 9.613786697387695, -1.6072479486465454, -2.2608249187469482, 0.27994677424430847, 0.48359331488609314, 0.598543107509613, 
246, 3404788808, 0.5196736, 0.30865315, -0.71818465, 0.34479466, 9.63045597076416, -1.6299210786819458, -2.274369955062866, 0.3192238509654999, 0.21697796881198883, 0.7802652716636658, 
247, 3404805475, 0.51964766, 0.30864638, -0.71819276, 0.3448231, 9.636421203613281, -1.6125125885009766, -2.259474277496338, 0.5415292382240295, 0.25328394770622253, 0.869307816028595, 
248, 3404822142, 0.5195652, 0.30867755, -0.7182103, 0.3448831, 9.602869987487793, -1.5680197477340698, -2.2278079986572266, 0.4318685233592987, 0.00997614674270153, 1.0692405700683594, 
249, 3404838809, 0.51949584, 0.30862212, -0.7182953, 0.34486005, 9.610538482666016, -1.6311368942260742, -2.2271955013275146, 0.2149033397436142, -0.269234299659729, 1.153993010520935, 
250, 3404855476, 0.51938736, 0.30860078, -0.7183677, 0.34489164, 9.638516426086426, -1.613856554031372, -2.239792585372925, 0.5422849655151367, -0.3537690043449402, 1.2864875793457031, 
251, 3404872143, 0.5192747, 0.30854595, -0.71846575, 0.34490615, 9.636289596557617, -1.640167236328125, -2.287025213241577, 0.6547886729240417, -0.4938192665576935, 1.3720722198486328, 
252, 3404888810, 0.5191026, 0.30861786, -0.7184999, 0.34502974, 9.638418197631836, -1.666233777999878, -2.3128926753997803, 0.8219754695892334, -0.41950395703315735, 1.3978129625320435, 
253, 3404905477, 0.5189664, 0.30861452, -0.7185555, 0.34512183, 9.61194896697998, -1.6229116916656494, -2.2997286319732666, 1.2040529251098633, -0.3850933313369751, 1.3987350463867188, 
254, 3404922144, 0.5188039, 0.30863038, -0.7186208, 0.34521616, 9.606273651123047, -1.644207239151001, -2.3356831073760986, 0.7555873990058899, -0.4783236086368561, 1.5293470621109009, 
255, 3404938811, 0.5187237, 0.30849984, -0.7187325, 0.34522077, 9.616591453552246, -1.6641334295272827, -2.4018163681030273, 0.9268980622291565, -0.3541148006916046, 1.5010963678359985, 
256, 3404955478, 0.5185782, 0.30851516, -0.71876013, 0.34536794, 9.626193046569824, -1.6752015352249146, -2.3935117721557617, 1.4132062196731567, -0.21072207391262054, 1.5200496912002563, 
257, 3404972145, 0.51843035, 0.30855763, -0.7187679, 0.3455359, 9.59740924835205, -1.6426950693130493, -2.366381883621216, 1.3135472536087036, -0.09942208975553513, 1.5062443017959595, 
258, 3404988812, 0.5183631, 0.30845365, -0.718833, 0.34559387, 9.62255573272705, -1.7018753290176392, -2.3731799125671387, 1.0225485563278198, 0.005506729707121849, 1.5148117542266846, 
259, 3405005479, 0.51827365, 0.30840302, -0.71885467, 0.34572825, 9.602022171020508, -1.7105292081832886, -2.3504951000213623, 1.1373318433761597, 0.20098282396793365, 1.6219114065170288, 
260, 3405022146, 0.51819044, 0.3083685, -0.7188645, 0.34586334, 9.597956657409668, -1.6562227010726929, -2.345720052719116, 0.6489360928535461, 0.3471801280975342, 1.6348713636398315, 
261, 3405038813, 0.51816726, 0.30822524, -0.7189152, 0.34592047, 9.610801696777344, -1.6673011779785156, -2.3403067588806152, 0.3186732232570648, 0.46622803807258606, 1.6855335235595703, 
262, 3405055480, 0.5181428, 0.3080799, -0.7189557, 0.34600222, 9.615214347839355, -1.6895171403884888, -2.3580520153045654, 0.4768572449684143, 0.5493539571762085, 1.7593234777450562, 
263, 3405072147, 0.5181446, 0.30790362, -0.71899605, 0.34607288, 9.606283187866211, -1.6915868520736694, -2.3306801319122314, 0.6072003245353699, 0.6652770042419434, 1.7315720319747925, 
264, 3405088814, 0.5181033, 0.30779684, -0.7190034, 0.34621438, 9.616582870483398, -1.6709613800048828, -2.3393144607543945, 0.6783522963523865, 0.6887125968933105, 1.8334978818893433, 
265, 3405105481, 0.51805806, 0.30768034, -0.71902126, 0.3463483, 9.605325698852539, -1.6477429866790771, -2.3125548362731934, 0.6134625673294067, 0.637090265750885, 1.8837883472442627, 
266, 3405122148, 0.51801336, 0.30752572, -0.71906, 0.346472, 9.588400840759277, -1.6840656995773315, -2.357593536376953, 0.8586914539337158, 0.540748119354248, 1.9651600122451782, 
267, 3405138815, 0.5179625, 0.30736974, -0.7190823, 0.34664023, 9.619366645812988, -1.7035603523254395, -2.3139967918395996, 1.3415676355361938, 0.6258975267410278, 2.0596835613250732, 
268, 3405155482, 0.51791185, 0.30723453, -0.71909064, 0.34681833, 9.6062593460083, -1.6917376518249512, -2.322577714920044, 1.3050631284713745, 0.6843393445014954, 2.0084903240203857, 
269, 3405172149, 0.5178093, 0.30717477, -0.7190769, 0.34705305, 9.631361961364746, -1.7245070934295654, -2.3500468730926514, 1.2249850034713745, 0.6035440564155579, 2.1009392738342285, 
270, 3405188816, 0.51771146, 0.30709615, -0.7190619, 0.3472995, 9.60007095336914, -1.7135671377182007, -2.322018623352051, 1.3902827501296997, 0.6723589301109314, 2.1800119876861572, 
271, 3405205483, 0.51764965, 0.30695394, -0.7190697, 0.34750107, 9.59557819366455, -1.7034469842910767, -2.3053488731384277, 1.324432611465454, 0.7200626730918884, 2.174607992172241, 
272, 3405222150, 0.51756173, 0.30684012, -0.7190708, 0.34773007, 9.586126327514648, -1.6957062482833862, -2.276740312576294, 1.6171985864639282, 0.6077125072479248, 2.1847634315490723, 
273, 3405238817, 0.5174139, 0.30676582, -0.71907276, 0.34801146, 9.598714828491211, -1.6924513578414917, -2.2198331356048584, 1.7527281045913696, 0.398379921913147, 2.4084134101867676, 
274, 3405255484, 0.51722395, 0.3067188, -0.71909535, 0.34828866, 9.60280990600586, -1.681382179260254, -2.188610553741455, 1.6831258535385132, 0.07892553508281708, 2.4550414085388184, 
275, 3405272151, 0.5170075, 0.30665377, -0.71914476, 0.34856534, 9.605143547058105, -1.6993931531906128, -2.1672706604003906, 1.6746610403060913, -0.12260160595178604, 2.6454336643218994, 
276, 3405288818, 0.51676756, 0.30656394, -0.719229, 0.34882623, 9.655706405639648, -1.7521746158599854, -2.24623703956604, 1.5537943840026855, -0.35455021262168884, 2.8239152431488037, 
277, 3405305485, 0.5165272, 0.30644476, -0.7193202, 0.34909847, 9.60053539276123, -1.7503182888031006, -2.2485973834991455, 1.9015763998031616, -0.3780370354652405, 2.9283125400543213, 
278, 3405322152, 0.5162793, 0.30630237, -0.71943647, 0.34935054, 9.606969833374023, -1.7530254125595093, -2.3250749111175537, 1.5891145467758179, -0.4734443724155426, 3.0618319511413574, 
279, 3405338819, 0.5159914, 0.3062509, -0.71950674, 0.34967598, 9.570382118225098, -1.7372514009475708, -2.3452844619750977, 1.654503583908081, -0.4024331867694855, 3.0644445419311523, 
280, 3405355486, 0.5157266, 0.30613607, -0.719601, 0.34997314, 9.592521667480469, -1.771817684173584, -2.3863525390625, 1.7279735803604126, -0.39179104566574097, 3.1453418731689453, 
281, 3405372153, 0.5154693, 0.30602026, -0.71966606, 0.35031953, 9.591963768005371, -1.7871849536895752, -2.4244065284729004, 1.970859169960022, -0.1309129297733307, 3.258281707763672, 
282, 3405388820, 0.5152841, 0.305834, -0.71971166, 0.350661, 9.59589958190918, -1.7910341024398804, -2.4525389671325684, 2.2867918014526367, 0.3122572600841522, 3.209233283996582, 
283, 3405405487, 0.5150758, 0.30565587, -0.7197575, 0.35102803, 9.612549781799316, -1.6915881633758545, -2.4407737255096436, 1.8363540172576904, 0.374880313873291, 3.471635103225708, 
284, 3405422154, 0.5149731, 0.30527446, -0.71988994, 0.35123888, 9.618237495422363, -1.7086583375930786, -2.4476168155670166, 0.45208343863487244, 0.6446013450622559, 3.7276411056518555, 
285, 3405438821, 0.51492226, 0.30476558, -0.7201152, 0.35129336, 9.671468734741211, -1.6164418458938599, -2.491342067718506, -1.6884084939956665, 0.6807087063789368, 4.015956401824951, 
286, 3405455488, 0.5150224, 0.3039605, -0.72050625, 0.35104254, 9.64565658569336, -1.707885980606079, -2.5218398571014404, -4.647854328155518, 0.853428065776825, 4.320594787597656, 
287, 3405472155, 0.515282, 0.3028667, -0.72105014, 0.35048997, 9.652836799621582, -1.6993234157562256, -2.5299243927001953, -7.458041667938232, 1.0896155834197998, 4.524484157562256, 
288, 3405488822, 0.5156307, 0.3015682, -0.7217044, 0.3497491, 9.59164047241211, -1.7906010150909424, -2.4648149013519287, -10.334555625915527, 1.4089552164077759, 5.07267427444458, 
289, 3405505489, 0.5160874, 0.30011284, -0.7224133, 0.34886274, 9.522554397583008, -1.891654372215271, -2.423154354095459, -11.222346305847168, 1.6689245700836182, 5.013612270355225, 
290, 3405522156, 0.5165223, 0.298766, -0.7230373, 0.34808135, 9.546881675720215, -1.9339535236358643, -2.334758996963501, -10.600109100341797, 1.9387540817260742, 4.8522515296936035, 
291, 3405538823, 0.5169644, 0.2973989, -0.7236346, 0.34735414, 9.60062313079834, -1.7835419178009033, -2.1903088092803955, -10.342366218566895, 2.224656105041504, 5.065925121307373, 
292, 3405555490, 0.5174168, 0.2958839, -0.7243648, 0.34645122, 9.562146186828613, -1.8085637092590332, -2.020503044128418, -11.98257064819336, 1.7677257061004639, 5.402951717376709, 
293, 3405572157, 0.5177751, 0.29449582, -0.72503865, 0.34568796, 9.526153564453125, -1.9505871534347534, -2.047593355178833, -11.109885215759277, 1.6022671461105347, 5.521638870239258, 
294, 3405588824, 0.5180232, 0.29311457, -0.7257479, 0.34500134, 9.627564430236816, -1.8012001514434814, -2.088919162750244, -10.179471969604492, 0.9737057089805603, 5.999611854553223, 
295, 3405605491, 0.5182351, 0.29170325, -0.72650045, 0.3442946, 9.582378387451172, -1.8144724369049072, -2.135903835296631, -10.366084098815918, 0.6452226042747498, 6.241087436676025, 
296, 3405622158, 0.51836026, 0.29040265, -0.72721004, 0.34370726, 9.46267032623291, -2.0044937133789062, -2.304257869720459, -8.464635848999023, 0.1938369870185852, 6.081417560577393, 
297, 3405638825, 0.51826775, 0.2894933, -0.7277204, 0.34353364, 9.533793449401855, -1.9147162437438965, -2.3274810314178467, -4.825401306152344, -0.1221533715724945, 5.886388778686523, 
298, 3405655492, 0.51809824, 0.28867933, -0.7282212, 0.3434132, 9.571184158325195, -1.7850842475891113, -2.2669310569763184, -4.386130332946777, -0.514130175113678, 5.845663547515869, 
299, 3405672159, 0.51791096, 0.287792, -0.72876215, 0.3432923, 9.476061820983887, -1.9011311531066895, -2.2959682941436768, -3.740107536315918, -0.7969135642051697, 6.100119113922119, 
300, 3405688826, 0.5175183, 0.2871762, -0.7291954, 0.34348032, 9.460607528686523, -1.9124406576156616, -2.265660047531128, -1.2948054075241089, -1.306100606918335, 6.2864460945129395, 
301, 3405705493, 0.51695484, 0.28673965, -0.7295849, 0.34386647, 9.47317886352539, -1.88234281539917, -2.0744361877441406, 1.263180136680603, -2.1555070877075195, 6.29085111618042, 
302, 3405722160, 0.51621526, 0.28647617, -0.7299562, 0.34440854, 9.558939933776855, -1.945075273513794, -1.9475492238998413, 2.4283275604248047, -2.937757968902588, 6.512094020843506, 
303, 3405738827, 0.51554155, 0.28601924, -0.7304293, 0.3447942, 9.764900207519531, -2.062962293624878, -2.181387424468994, 2.2847940921783447, -3.2317404747009277, 6.552126407623291, 
304, 3405755494, 0.5147386, 0.28578675, -0.7307336, 0.34554103, 9.529589653015137, -2.0786232948303223, -2.361156463623047, 4.338894844055176, -2.82960844039917, 6.974429607391357, 
305, 3405772161, 0.51393646, 0.28548855, -0.7311035, 0.34619883, 9.507222175598145, -1.9404847621917725, -2.4600324630737305, 3.384263753890991, -3.048872232437134, 7.145195484161377, 
306, 3405788828, 0.5131721, 0.2851746, -0.7314706, 0.34681502, 9.460569381713867, -2.1550872325897217, -2.582505464553833, 3.536282539367676, -3.0093460083007812, 6.860299587249756, 
307, 3405805495, 0.5123132, 0.2851031, -0.731652, 0.3477597, 9.554532051086426, -2.1221048831939697, -2.5003557205200195, 6.679729461669922, -2.760723114013672, 6.657100200653076, 
308, 3405822162, 0.51146215, 0.28499845, -0.73185116, 0.3486778, 9.506497383117676, -1.9794689416885376, -2.2400906085968018, 6.059312343597412, -2.67798113822937, 6.820509433746338, 
309, 3405838829, 0.51061743, 0.2848059, -0.7321479, 0.3494495, 9.494128227233887, -2.193859577178955, -2.244117259979248, 4.579398155212402, -3.018681287765503, 6.974454879760742, 
310, 3405855496, 0.5097861, 0.28468886, -0.73236424, 0.35030398, 9.710232734680176, -2.4171347618103027, -2.315533399581909, 5.413079738616943, -2.689417839050293, 6.6963911056518555, 
311, 3405872163, 0.5090654, 0.28445774, -0.73249155, 0.35127276, 9.49425983428955, -2.0705065727233887, -2.126279830932617, 6.3814697265625, -1.534911870956421, 7.01716423034668, 
312, 3405888830, 0.5082763, 0.2841089, -0.7328014, 0.3520502, 9.325249671936035, -1.8691966533660889, -2.228782892227173, 3.857516288757324, -2.3989436626434326, 7.680302619934082, 
313, 3405905497, 0.50746965, 0.2836733, -0.73314494, 0.35284933, 9.480862617492676, -1.9714808464050293, -2.3354547023773193, 3.9827375411987305, -2.457097291946411, 8.212662696838379, 
314, 3405922164, 0.5066511, 0.28319573, -0.7334567, 0.3537603, 9.596243858337402, -1.7582322359085083, -2.2984604835510254, 4.429961204528809, -2.073124408721924, 8.805584907531738, 
315, 3405938831, 0.50583005, 0.2823098, -0.734113, 0.35428137, 9.372115135192871, -1.6882226467132568, -2.305485486984253, 0.15188336372375488, -3.0325257778167725, 10.214757919311523, 
316, 3405955498, 0.5049371, 0.2812567, -0.7349275, 0.35470366, 9.40906810760498, -2.1507227420806885, -2.4334399700164795, -0.9474461674690247, -3.803391695022583, 11.151634216308594, 
317, 3405972165, 0.50378996, 0.2805659, -0.7355348, 0.35562223, 9.29153823852539, -2.4643023014068604, -2.380213975906372, 3.350475549697876, -4.154004096984863, 11.391919136047363, 
318, 3405988832, 0.5024695, 0.28015634, -0.7360138, 0.35682023, 9.28818130493164, -2.5855085849761963, -2.286815643310547, 6.626278877258301, -4.811291217803955, 11.037313461303711, 
319, 3406005499, 0.50111324, 0.279784, -0.736498, 0.3580183, 9.471650123596191, -2.4973092079162598, -2.2813076972961426, 7.151096820831299, -5.213846683502197, 10.844104766845703, 
320, 3406022166, 0.4998323, 0.27919465, -0.73718756, 0.35884908, 9.561749458312988, -2.3843185901641846, -2.2266347408294678, 4.182659149169922, -5.7992119789123535, 10.80581283569336, 
321, 3406038833, 0.49862143, 0.27836642, -0.7381637, 0.35917035, 9.561217308044434, -2.4966142177581787, -2.1077287197113037, -0.2779811918735504, -6.771687984466553, 10.69698429107666, 
322, 3406055500, 0.4973726, 0.2775923, -0.7392577, 0.35925087, 9.419756889343262, -2.8129990100860596, -2.0609540939331055, -1.978883147239685, -7.8280839920043945, 10.03888988494873, 
323, 3406072167, 0.495955, 0.2770857, -0.740322, 0.3594102, 9.570995330810547, -2.7110142707824707, -2.201188087463379, -0.31718143820762634, -9.103276252746582, 9.308185577392578, 
324, 3406088834, 0.49440318, 0.2766315, -0.7414979, 0.3594739, 9.44151782989502, -2.547067880630493, -2.0827417373657227, -0.5222497582435608, -10.521110534667969, 9.217710494995117, 
325, 3406105501, 0.49271575, 0.27601784, -0.74295896, 0.3592457, 9.440470695495605, -2.515078544616699, -2.055840253829956, -2.5920138359069824, -12.511372566223145, 9.789130210876465, 
326, 3406122168, 0.49104056, 0.2752367, -0.74462336, 0.35869196, 9.309362411499023, -2.7416720390319824, -2.148625612258911, -5.270171165466309, -13.383923530578613, 9.87136173248291, 
327, 3406138835, 0.48943496, 0.27438635, -0.7463476, 0.3579539, 9.3042631149292, -2.9119255542755127, -2.5491700172424316, -6.6401190757751465, -13.43819808959961, 9.510902404785156, 
328, 3406155502, 0.48794216, 0.27341175, -0.7480873, 0.357105, 9.269671440124512, -2.759866952896118, -2.9284870624542236, -7.050562858581543, -13.088659286499023, 9.26283073425293, 
329, 3406172169, 0.48639372, 0.27259594, -0.74976486, 0.35632217, 9.255949020385742, -2.594331741333008, -3.0014071464538574, -7.440374374389648, -12.926159858703613, 9.143537521362305, 
330, 3406188836, 0.4849462, 0.27173465, -0.7514265, 0.35545146, 9.077332496643066, -2.7688241004943848, -3.0190651416778564, -7.531293869018555, -12.635397911071777, 8.58853530883789, 
331, 3406205503, 0.48341072, 0.27118787, -0.7528735, 0.35489815, 9.11710262298584, -2.9917869567871094, -2.998178005218506, -4.222967624664307, -12.523563385009766, 7.846571922302246, 
332, 3406222170, 0.48189598, 0.2708406, -0.7541397, 0.35453486, 9.227214813232422, -3.1066441535949707, -2.9755256175994873, -2.180173873901367, -11.964962005615234, 7.036709308624268, 
333, 3406238837, 0.48050007, 0.27051654, -0.7552988, 0.3542095, 9.172174453735352, -2.9519877433776855, -3.1526706218719482, -1.682915449142456, -11.021848678588867, 6.482001781463623, 
334, 3406255504, 0.47920018, 0.27020597, -0.75637555, 0.35390994, 9.020711898803711, -2.864590883255005, -3.2480719089508057, -1.2798992395401, -10.296969413757324, 6.03215217590332, 
335, 3406272171, 0.47788888, 0.2701866, -0.7572363, 0.353857, 9.072678565979004, -3.209073066711426, -3.3622472286224365, 1.457580804824829, -9.872937202453613, 4.961874008178711, 
336, 3406288838, 0.47637096, 0.2707363, -0.75763214, 0.3546351, 9.15101146697998, -3.0841240882873535, -3.072091817855835, 8.769639015197754, -9.115622520446777, 4.484760761260986, 
337, 3406305505, 0.47471344, 0.27150974, -0.7579007, 0.3556914, 9.13058090209961, -2.9574084281921387, -2.750523805618286, 11.944134712219238, -9.621477127075195, 4.163117408752441, 
338, 3406322172, 0.47298354, 0.2722903, -0.75816303, 0.35683808, 9.115974426269531, -2.355419158935547, -2.8245246410369873, 12.630581855773926, -9.847726821899414, 4.565096378326416, 
339, 3406338839, 0.47111452, 0.27257755, -0.75894344, 0.3574322, 9.54666805267334, -1.477394938468933, -2.444255828857422, 6.897480010986328, -11.991971015930176, 6.7446489334106445, 
340, 3406355506, 0.46923447, 0.27213657, -0.7604496, 0.35703972, 9.371158599853516, -1.9754071235656738, -2.094637870788574, -2.586596965789795, -14.379081726074219, 8.859121322631836, 
341, 3406372173, 0.46698266, 0.27151066, -0.7623331, 0.3564511, 9.091437339782715, -2.2891459465026855, -2.106203079223633, -4.154328346252441, -17.6058292388916, 10.716740608215332, 
342, 3406388840, 0.4643418, 0.2708286, -0.76448864, 0.35580266, 9.225622177124023, -2.290479898452759, -1.947262167930603, -5.390567779541016, -20.182327270507812, 12.607478141784668, 
343, 3406405507, 0.46159044, 0.26957548, -0.7672278, 0.35443574, 9.467846870422363, -2.1591269969940186, -2.0212209224700928, -11.363236427307129, -22.966283798217773, 14.33141040802002, 
344, 3406422174, 0.45852712, 0.26783285, -0.77048755, 0.3526574, 9.308338165283203, -2.11761212348938, -1.9153504371643066, -15.23005485534668, -26.074542999267578, 17.127803802490234, 
345, 3406438841, 0.45510337, 0.26559493, -0.77433085, 0.35036, 9.240255355834961, -1.9533952474594116, -1.2516988515853882, -21.06100082397461, -29.347387313842773, 20.36272430419922, 
346, 3406455508, 0.45118737, 0.26248544, -0.77913576, 0.34710094, 9.148877143859863, -1.371819019317627, -0.7529078722000122, -30.309541702270508, -34.69245910644531, 24.941204071044922, 
347, 3406472175, 0.44664177, 0.25839117, -0.78501153, 0.34278587, 9.022900581359863, -0.8565451502799988, -0.17659586668014526, -40.371368408203125, -41.04866409301758, 30.362239837646484, 
348, 3406488842, 0.441134, 0.2535425, -0.7920543, 0.33729416, 8.824254035949707, -0.9832791090011597, -0.37434011697769165, -50.53398132324219, -50.042503356933594, 35.4005241394043, 
349, 3406505509, 0.434794, 0.24796088, -0.79991716, 0.3310621, 8.7334623336792, -1.196624517440796, -1.3770006895065308, -56.55640411376953, -57.05451583862305, 40.16687774658203, 
350, 3406522176, 0.427493, 0.24185732, -0.8083066, 0.3246465, 8.49554443359375, -1.2245292663574219, -2.094425916671753, -58.672061920166016, -63.12997055053711, 45.548240661621094, 
351, 3406538843, 0.4194503, 0.2349463, -0.817244, 0.31776452, 8.342329025268555, -0.850176990032196, -2.8762831687927246, -64.31462860107422, -67.58551025390625, 51.61885452270508, 
352, 3406555510, 0.4109545, 0.22681166, -0.8268032, 0.30995092, 7.7540740966796875, -0.9087113738059998, -3.4757111072540283, -72.8262710571289, -71.14786529541016, 57.324344635009766, 
353, 3406572177, 0.4017381, 0.2177445, -0.8368395, 0.3014856, 7.517022132873535, -0.8181636333465576, -3.829138994216919, -78.51154327392578, -75.887451171875, 62.70125198364258, 
354, 3406588844, 0.3913552, 0.20802177, -0.847157, 0.29307514, 8.43968677520752, -1.029680609703064, -3.091858148574829, -80.79383850097656, -81.0502700805664, 70.79288482666016, 
355, 3406605511, 0.38002968, 0.19751294, -0.8577834, 0.2842073, 8.16699504852295, -0.8468039035797119, -4.310226917266846, -84.21896362304688, -86.75079345703125, 76.10994720458984, 
356, 3406622178, 0.36774975, 0.1874236, -0.8687515, 0.2736849, 6.928977966308594, -1.3250471353530884, -5.484061241149902, -92.3223876953125, -96.33012390136719, 71.73412322998047, 
357, 3406638845, 0.35414588, 0.17868683, -0.87916464, 0.2640481, 6.124326705932617, -3.927065134048462, -6.549245357513428, -80.70701599121094, -104.30866241455078, 67.55024719238281, 
358, 3406655512, 0.33883446, 0.17285024, -0.88789314, 0.2587657, 6.224807262420654, -5.677525997161865, -5.96034049987793, -42.29878616333008, -110.3576889038086, 61.70359420776367, 
359, 3406672179, 0.3235523, 0.16917458, -0.8950854, 0.2559614, 5.831680774688721, -6.3552985191345215, -6.941014289855957, -19.38526153564453, -107.54346466064453, 52.23154830932617, 
360, 3406688846, 0.30912477, 0.16546963, -0.9015959, 0.2533505, 2.790022373199463, -5.225479602813721, -8.213024139404297, -18.156558990478516, -100.43911743164062, 50.51414489746094, 
361, 3406705513, 0.2948357, 0.16225268, -0.9079101, 0.24989067, 2.4765872955322266, -5.051811218261719, -8.137746810913086, -22.19467544555664, -100.90496063232422, 45.10298538208008, 
362, 3406722180, 0.28167957, 0.15942164, -0.9139209, 0.24492888, 3.0911781787872314, -5.957828998565674, -7.719040393829346, -31.60247230529785, -95.43889617919922, 37.34146499633789, 
363, 3406738847, 0.268129, 0.15791698, -0.9194645, 0.24032068, 4.762537479400635, -6.437737941741943, -6.874810695648193, -25.65656852722168, -98.78108978271484, 29.788990020751953, 
364, 3406755514, 0.2541039, 0.15781909, -0.9241888, 0.23748606, 6.715780735015869, -5.901251316070557, -6.736688137054443, -10.03888988494873, -100.6595687866211, 23.984697341918945, 
365, 3406772181, 0.23880425, 0.1577599, -0.92884475, 0.23522693, 8.572434425354004, -3.6518287658691406, -5.94531774520874, -4.9002366065979, -108.09154510498047, 26.757705688476562, 
366, 3406788848, 0.22190829, 0.15714511, -0.93407965, 0.23142539, 11.367744445800781, -1.4038749933242798, -5.01377534866333, -14.881539344787598, -120.10198211669922, 30.988117218017578, 
367, 3406805515, 0.20308162, 0.15535, -0.9406505, 0.22316186, 12.312638282775879, -0.7926778197288513, -5.824575424194336, -45.378143310546875, -137.6318817138672, 36.36488723754883, 
368, 3406822182, 0.1815057, 0.1534733, -0.947945, 0.21190071, 13.705305099487305, -1.3386400938034058, -5.5046539306640625, -63.001502990722656, -159.69815063476562, 37.72419357299805, 
369, 3406838849, 0.15721302, 0.1534189, -0.9548579, 0.19998282, 17.43686866760254, -3.355438232421875, -6.386837959289551, -61.72051239013672, -180.3471221923828, 29.04002571105957, 
370, 3406855516, 0.13165309, 0.15559004, -0.9605125, 0.189407, 19.524595260620117, -3.298053503036499, -7.190455436706543, -47.42941665649414, -189.2540740966797, 16.385177612304688, 
371, 3406872183, 0.106792234, 0.15955378, -0.9649027, 0.1791675, 18.108983993530273, -4.063641548156738, -7.862389087677002, -42.665748596191406, -185.81576538085938, 2.693232297897339, 
372, 3406888850, 0.084503144, 0.16555442, -0.9678208, 0.16962807, 12.373861312866211, -7.042778491973877, -11.222877502441406, -37.516807556152344, -169.7384490966797, -15.004993438720703, 
373, 3406905517, 0.060453538, 0.1723313, -0.9697806, 0.16178074, 3.388416051864624, -9.853060722351074, -15.585172653198242, -22.706579208374023, -180.0706787109375, -18.20064926147461, 
374, 3406922184, 0.04022455, 0.1794032, -0.9705571, 0.15561391, -1.4989910125732422, -11.480703353881836, -15.535747528076172, -14.649658203125, -152.41754150390625, -25.161487579345703, 
375, 3406938851, 0.028995031, 0.18905234, -0.9692332, 0.15493771, -2.048121213912964, -11.520963668823242, -16.351409912109375, 13.74487590789795, -87.65010833740234, -53.12029266357422, 
376, 3406955518, 0.02698014, 0.19795488, -0.9658637, 0.16490425, 1.1194566488265991, -8.074413299560547, -14.234331130981445, 74.61676788330078, -11.091139793395996, -58.53192901611328, 
377, 3406972185, 0.032622818, 0.20559561, -0.9612612, 0.18067361, 5.260130882263184, -1.8761552572250366, -11.465968132019043, 103.84906005859375, 49.36316680908203, -59.414581298828125, 
378, 3406988852, 0.044525865, 0.21198548, -0.9574302, 0.19080688, 3.7141036987304688, 1.000700831413269, -8.43535041809082, 56.57822799682617, 84.10613250732422, -59.02497100830078, 
379, 3407005519, 0.06353664, 0.21791278, -0.95538056, 0.18901075, 0.12695251405239105, 1.7052202224731445, -7.7727155685424805, -34.68888854980469, 113.54754638671875, -66.32645416259766, 
380, 3407022186, 0.08849221, 0.22405596, -0.9535014, 0.18111683, -0.5568042993545532, -0.8621476888656616, -9.703577995300293, -83.67642211914062, 143.1604461669922, -77.9059829711914, 
381, 3407038853, 0.115389094, 0.23073322, -0.94953734, 0.17839983, -0.9280675053596497, -4.492692947387695, -10.482312202453613, -49.74252700805664, 164.54661560058594, -83.9319076538086, 
382, 3407055520, 0.1444055, 0.23842032, -0.94228953, 0.18545406, -1.4309066534042358, -4.640582084655762, -9.641090393066406, 15.51197624206543, 195.36729431152344, -90.63189697265625, 
383, 3407072187, 0.1753711, 0.24770123, -0.9317546, 0.19930512, -1.6737017631530762, -2.864426851272583, -8.325067520141602, 62.11253356933594, 220.51190185546875, -102.12471771240234, 
384, 3407088854, 0.20677665, 0.2576586, -0.91880643, 0.21598676, -1.4241992235183716, -1.6759936809539795, -7.116047382354736, 83.63014221191406, 230.2813262939453, -107.77212524414062, 
385, 3407105521, 0.23998158, 0.26700562, -0.90393716, 0.23241025, -0.9497393369674683, -1.193023920059204, -6.314853191375732, 80.81380462646484, 244.97055053710938, -110.36029815673828, 
386, 3407122188, 0.27559868, 0.27433386, -0.8881064, 0.2450581, -0.7489310503005981, -0.8929064869880676, -6.353936195373535, 51.13349151611328, 257.9686584472656, -109.6612319946289, 
387, 3407138855, 0.31356007, 0.27842683, -0.8719466, 0.25272056, -0.8207991123199463, -1.287736415863037, -6.726010799407959, 10.69687271118164, 269.07818603515625, -103.9286117553711, 
388, 3407155522, 0.35302734, 0.27901435, -0.8555518, 0.25603518, -0.6683282852172852, -1.4674715995788574, -6.738132476806641, -25.406831741333008, 276.5115966796875, -95.37619018554688, 
389, 3407172189, 0.3919808, 0.27733278, -0.83905166, 0.25579292, -0.8881272077560425, -2.4750144481658936, -7.636906623840332, -50.67781066894531, 271.0391845703125, -89.99037170410156, 
390, 3407188856, 0.42797586, 0.27527666, -0.8218947, 0.25602484, -1.9088178873062134, -4.5579376220703125, -9.214126586914062, -42.1630973815918, 257.44183349609375, -82.65220642089844, 
391, 3407205523, 0.45980924, 0.27526823, -0.80343324, 0.25941873, -2.4147226810455322, -5.452356338500977, -10.504838943481445, -8.112571716308594, 240.32449340820312, -80.15609741210938, 
392, 3407222190, 0.48738956, 0.27764934, -0.7835853, 0.267126, -0.12018269300460815, -5.166591644287109, -9.415249824523926, 33.77743911743164, 225.33827209472656, -74.87499237060547, 
393, 3407238857, 0.5109275, 0.28144962, -0.76322454, 0.2778986, 2.4576759338378906, -5.298381328582764, -8.962024688720703, 63.6945686340332, 208.70423889160156, -65.90711212158203, 
394, 3407255524, 0.53017116, 0.2868288, -0.7431331, 0.29051867, 4.835859775543213, -4.153179168701172, -8.068680763244629, 86.72296905517578, 185.93417358398438, -59.0811767578125, 
395, 3407272191, 0.54624635, 0.29228058, -0.7244273, 0.30231148, 7.4517292976379395, -1.977708101272583, -6.122622013092041, 86.23833465576172, 163.03900146484375, -53.485496520996094, 
396, 3407288858, 0.5609987, 0.2942622, -0.7091601, 0.30948728, 9.10074234008789, 0.744009792804718, -4.119451999664307, 45.718814849853516, 141.5441131591797, -43.90827178955078, 
397, 3407305525, 0.57429886, 0.29087985, -0.699549, 0.31016332, 10.51196002960205, 2.1420278549194336, -2.1295347213745117, -15.754364013671875, 110.94790649414062, -28.251977920532227, 
398, 3407322192, 0.58559716, 0.28197584, -0.69592106, 0.30538422, 10.316241264343262, 0.3950284421443939, -0.935792088508606, -72.54733276367188, 78.56493377685547, -6.924333572387695, 
399, 3407338859, 0.59274584, 0.27005762, -0.69782734, 0.29792368, 9.394561767578125, -1.4855955839157104, -1.9364004135131836, -101.08734130859375, 37.54055404663086, 16.186763763427734, 
400, 3407355526, 0.59553754, 0.26028267, -0.7015077, 0.29236126, 8.560302734375, -0.7315165996551514, -1.8178260326385498, -78.78480529785156, 8.552265167236328, 25.854768753051758, 
401, 3407372193, 0.5939077, 0.2531873, -0.70705336, 0.28852335, 7.426527500152588, -0.07086444646120071, -0.5107775926589966, -55.32693862915039, -22.702157974243164, 32.22889709472656, 
402, 3407388860, 0.58633006, 0.2442987, -0.7185691, 0.28318518, 7.8218488693237305, -4.850919723510742, 1.9069174528121948, -71.42817687988281, -75.06379699707031, 57.03588104248047, 
403, 3407405527, 0.57023203, 0.24644952, -0.72997177, 0.2850252, 11.138839721679688, -10.576598167419434, -5.6573686599731445, 23.0660400390625, -126.21367645263672, 47.75457763671875, 
404, 3407422194, 0.5529997, 0.2582763, -0.73323953, 0.29974073, 17.02297019958496, -1.915396809577942, 1.0721466541290283, 143.4890594482422, -97.09882354736328, 37.91512680053711, 
405, 3407438861, 0.5408543, 0.26413247, -0.73388815, 0.3148318, 22.108797073364258, 4.9869232177734375, 8.130760192871094, 119.02613067626953, -48.623146057128906, 54.3128776550293, 
406, 3407455528, 0.5316541, 0.26089126, -0.74057186, 0.3175424, 11.93579387664795, 4.945608615875244, 4.551597595214844, 4.2950286865234375, -59.25594711303711, 58.94444274902344, 
407, 3407472195, 0.5197698, 0.25304767, -0.7523953, 0.31576526, 9.737377166748047, 0.9234327673912048, -4.758018493652344, -41.788673400878906, -89.86064910888672, 81.2030258178711, 
408, 3407488862, 0.5089186, 0.24538766, -0.7640828, 0.31139097, 8.74471378326416, -4.278896331787109, -4.4312639236450195, -56.04963302612305, -88.90245056152344, 68.54681396484375, 
409, 3407505529, 0.5007941, 0.24360663, -0.77064776, 0.30977932, 11.202224731445312, -8.63162612915039, -6.058907985687256, -14.596290588378906, -64.54145050048828, 32.800437927246094, 
410, 3407522196, 0.49115485, 0.24881643, -0.77144426, 0.31895337, 18.451229095458984, -9.203289031982422, -4.0793070793151855, 81.43182373046875, -49.48776626586914, 26.347597122192383, 
411, 3407538863, 0.4783422, 0.25686952, -0.77060395, 0.33373109, 24.741437911987305, -3.61419677734375, -5.515277862548828, 129.74822998046875, -57.489593505859375, 34.27069854736328, 
412, 3407555530, 0.4670152, 0.2605353, -0.7732124, 0.34082395, 11.722020149230957, 3.9642703533172607, -6.292446136474609, 64.05988311767578, -64.51976776123047, 34.99053192138672, 
413, 3407572197, 0.45805925, 0.25818834, -0.7810098, 0.33696344, 4.481161594390869, -0.06374917924404144, -7.690186977386475, -29.833614349365234, -74.06269836425781, 35.65999984741211, 
414, 3407588864, 0.45345184, 0.2507955, -0.79003227, 0.32761642, 3.3330318927764893, -3.9143033027648926, -9.45287036895752, -85.70501708984375, -52.51199722290039, 37.596763610839844, 
415, 3407605531, 0.45126507, 0.24263635, -0.79777783, 0.3178647, 6.18230676651001, -5.4255805015563965, -9.298713684082031, -91.56354522705078, -34.213226318359375, 32.79256057739258, 
416, 3407622198, 0.44937417, 0.23737872, -0.80277854, 0.31186673, 10.374528884887695, -6.375372886657715, -7.018989562988281, -56.44930648803711, -24.04145050048828, 23.24032974243164, 
417, 3407638865, 0.44679344, 0.2355482, -0.80539167, 0.31022102, 11.522478103637695, -6.349959373474121, -4.96720552444458, -15.59973430633545, -20.68235969543457, 15.304567337036133, 
418, 3407655532, 0.4441287, 0.23487857, -0.80721647, 0.30981192, 9.831003189086914, -4.137537002563477, -3.901679039001465, -3.387554168701172, -19.212120056152344, 11.533873558044434, 
419, 3407672199, 0.4413618, 0.234103, -0.809202, 0.3091726, 8.716489791870117, -3.072543144226074, -3.3405966758728027, -5.175485610961914, -20.43392562866211, 11.883445739746094, 
420, 3407688866, 0.43851125, 0.23316519, -0.8115308, 0.30783066, 8.261709213256836, -2.5425257682800293, -2.9324514865875244, -10.176899909973145, -22.744842529296875, 11.384093284606934, 
421, 3407705533, 0.43551576, 0.23231123, -0.8140206, 0.30615047, 7.691977024078369, -2.301274538040161, -2.0026230812072754, -11.925232887268066, -24.781721115112305, 10.467538833618164, 
422, 3407722200, 0.43148708, 0.23207025, -0.81673074, 0.3048173, 7.902605056762695, -2.394151210784912, -1.4294523000717163, -6.968054294586182, -31.99374008178711, 10.610265731811523, 
423, 3407738867, 0.4260994, 0.23216961, -0.81966984, 0.30443066, 8.803030014038086, -1.8476016521453857, -1.0593281984329224, 1.0333508253097534, -39.554237365722656, 14.729098320007324, 
424, 3407755534, 0.41934726, 0.23186448, -0.82330483, 0.30423033, 9.221535682678223, -0.885085940361023, -0.605091392993927, 1.610183835029602, -48.19981384277344, 21.542810440063477, 
425, 3407772201, 0.4112071, 0.23047785, -0.82837486, 0.3026286, 8.818788528442383, -0.542590856552124, -0.8371343612670898, -10.23438549041748, -60.238224029541016, 28.85802459716797, 
426, 3407788868, 0.40226337, 0.2280384, -0.83454466, 0.2995295, 7.612646102905273, -1.1586884260177612, -2.4145288467407227, -22.75450897216797, -68.17466735839844, 34.08017349243164, 
427, 3407805535, 0.3928037, 0.22481512, -0.8412146, 0.29584032, 6.107419013977051, -1.874424695968628, -4.008565425872803, -28.52607536315918, -71.86249542236328, 38.8207893371582, 
428, 3407822202, 0.382572, 0.2213104, -0.84810126, 0.292207, 6.6906867027282715, -2.0214502811431885, -4.097373008728027, -28.204421997070312, -76.2518310546875, 42.510746002197266, 
429, 3407838869, 0.37091273, 0.21730581, -0.85530806, 0.2892236, 8.62602710723877, -1.293042778968811, -1.84015953540802, -24.194149017333984, -83.43270874023438, 50.50040817260742, 
430, 3407855536, 0.35742772, 0.2120751, -0.8638004, 0.2848134, 9.355253219604492, -0.8153319358825684, -0.017229348421096802, -35.54286575317383, -97.20503997802734, 59.65922546386719, 
431, 3407872203, 0.3420485, 0.20511334, -0.8740216, 0.27752018, 8.79067611694336, -0.48142021894454956, -0.16480059921741486, -57.5513801574707, -113.62239837646484, 69.13255310058594, 
432, 3407888870, 0.32448852, 0.1970573, -0.8855604, 0.26769117, 8.090171813964844, -1.3619654178619385, -1.633508563041687, -74.80902862548828, -131.41629028320312, 75.81050109863281, 
433, 3407905537, 0.30484074, 0.1888847, -0.8977577, 0.25578532, 7.144289016723633, -3.0023250579833984, -3.988663673400879, -86.10435485839844, -148.27731323242188, 76.64912414550781, 
434, 3407922204, 0.28314677, 0.18197049, -0.90968615, 0.24328192, 6.6772966384887695, -3.62065052986145, -5.74078369140625, -84.03472900390625, -163.37884521484375, 70.87537384033203, 
435, 3407938871, 0.25957692, 0.17717314, -0.92063993, 0.23162848, 7.713963031768799, -4.459987163543701, -6.874989032745361, -70.62458038330078, -175.71473693847656, 61.19623565673828, 
436, 3407955538, 0.23408468, 0.17483544, -0.9306411, 0.22032762, 9.636375427246094, -4.761650562286377, -7.333495140075684, -60.15665817260742, -189.70614624023438, 48.14509963989258, 
437, 3407972205, 0.20755517, 0.17543249, -0.93940574, 0.20895329, 11.932048797607422, -4.487027645111084, -8.74007511138916, -52.79618453979492, -198.9532012939453, 29.335508346557617, 
438, 3407988872, 0.18060215, 0.17839232, -0.9469399, 0.19713956, 13.415019989013672, -4.560802936553955, -9.210651397705078, -49.98662567138672, -203.95590209960938, 12.593827247619629, 
439, 3408005539, 0.15436494, 0.1836782, -0.9528417, 0.18581317, 14.479680061340332, -4.911009788513184, -9.842249870300293, -42.58907699584961, -199.94992065429688, -4.885932922363281, 
440, 3408022206, 0.13069858, 0.19086301, -0.95704865, 0.17477717, 12.345841407775879, -4.9882917404174805, -10.390235900878906, -39.74980926513672, -183.51829528808594, -22.40772247314453, 
441, 3408038873, 0.11031073, 0.19906269, -0.96042037, 0.16061823, 6.909922122955322, -6.426882743835449, -11.736045837402344, -62.68406677246094, -166.640869140625, -36.90810775756836, 
442, 3408055540, 0.09336804, 0.20786232, -0.9630341, 0.14367004, 2.0881190299987793, -7.728358745574951, -14.178272247314453, -84.54378509521484, -147.84414672851562, -47.85374069213867, 
443, 3408072207, 0.080454506, 0.21888977, -0.963638, 0.13044609, 0.5013731718063354, -8.646796226501465, -15.902482986450195, -62.25619888305664, -116.71533966064453, -67.11980438232422, 
444, 3408088874, 0.072901145, 0.23206192, -0.9616508, 0.126731, -1.8339331150054932, -9.16227912902832, -16.880409240722656, -3.858597993850708, -67.31927490234375, -84.82369995117188, 
445, 3408105541, 0.069557905, 0.24440263, -0.957181, 0.13868582, -3.32814621925354, -6.703291893005371, -14.874185562133789, 94.7178726196289, -12.41545581817627, -79.14051055908203, 
446, 3408122208, 0.07270569, 0.25608438, -0.9502712, 0.1616149, 0.28959405422210693, -0.7623451352119446, -10.652066230773926, 158.0226593017578, 50.65887451171875, -79.86961364746094, 
447, 3408138875, 0.08284402, 0.265597, -0.9425576, 0.18487936, 1.0572205781936646, 3.0832901000976562, -7.177720546722412, 147.760986328125, 99.78865814208984, -74.68470764160156, 
448, 3408155542, 0.099431835, 0.27298924, -0.9357165, 0.20006225, 0.2176159769296646, 4.06971549987793, -4.377243518829346, 81.37319946289062, 129.05465698242188, -72.10467529296875, 
449, 3408172209, 0.1263995, 0.27854785, -0.9303431, 0.20222783, -0.5785541534423828, 2.2459716796875, -4.475834369659424, -25.05160903930664, 172.9620361328125, -80.70065307617188, 
450, 3408188876, 0.16251634, 0.28128895, -0.92515874, 0.19633232, -0.6497455835342407, -1.2204828262329102, -6.36091423034668, -96.8146743774414, 219.86767578125, -82.046142578125, 
451, 3408205543, 0.20184582, 0.2817195, -0.91809946, 0.19231693, -0.3757534623146057, -4.02396821975708, -8.1369047164917, -91.11418151855469, 249.22494506835938, -73.23548126220703, 
452, 3408222210, 0.24023226, 0.28138262, -0.9081582, 0.19585997, 0.3035814166069031, -4.022576808929443, -8.54076099395752, -38.844329833984375, 262.9977722167969, -62.277870178222656, 
453, 3408238877, 0.27983588, 0.28355044, -0.89360285, 0.20679718, -1.781192660331726, -2.826472759246826, -9.827238082885742, 15.309587478637695, 289.2485656738281, -76.31696319580078, 
454, 3408255544, 0.3150369, 0.28972262, -0.87515384, 0.22565101, -0.5288090705871582, -2.1127116680145264, -9.409835815429688, 85.78863525390625, 279.5589904785156, -87.05655670166016, 
455, 3408272211, 0.35168198, 0.29339838, -0.8552735, 0.24237269, 0.3092662990093231, -2.660396099090576, -8.0310697555542, 66.89449310302734, 291.09735107421875, -81.76851654052734, 
456, 3408288878, 0.3898616, 0.29549, -0.8336941, 0.2562185, 0.6489696502685547, -2.841674327850342, -8.099031448364258, 45.876346588134766, 301.1717224121094, -85.4267578125, 
457, 3408305545, 0.42645365, 0.2984063, -0.8112985, 0.2662435, 0.6545186042785645, -2.6733157634735107, -8.871203422546387, 30.840707778930664, 285.1317443847656, -99.29620361328125, 
458, 3408322212, 0.45721722, 0.30378056, -0.78888977, 0.2762657, 1.914506196975708, -3.7383649349212646, -9.366578102111816, 50.01815414428711, 248.24484252929688, -102.40673828125, 
459, 3408338879, 0.48369157, 0.31018817, -0.7661844, 0.28772765, 3.734079360961914, -4.609506607055664, -9.235426902770996, 70.59625244140625, 227.0631866455078, -96.01151275634766, 
460, 3408355546, 0.50615644, 0.31695756, -0.7440082, 0.29965898, 5.5493669509887695, -3.795748233795166, -8.44563102722168, 81.7712173461914, 204.56375122070312, -87.36200714111328, 
461, 3408372213, 0.52555716, 0.32216376, -0.72346807, 0.31079644, 7.812546730041504, -2.0789341926574707, -6.014427185058594, 75.57184600830078, 184.76634216308594, -72.30372619628906, 
462, 3408388880, 0.54190254, 0.32482213, -0.70623595, 0.31947306, 9.447391510009766, -1.0941296815872192, -3.6308364868164062, 53.822792053222656, 157.64654541015625, -54.68736267089844, 
463, 3408405547, 0.55429393, 0.3251138, -0.69377804, 0.32516393, 10.635805130004883, 0.5436811447143555, -1.915956735610962, 28.850852966308594, 119.19573974609375, -34.975563049316406, 
464, 3408422214, 0.5634678, 0.32094508, -0.6878364, 0.32615876, 9.585132598876953, 1.7689058780670166, -0.5311933159828186, -17.92041015625, 78.47634887695312, -9.806721687316895, 
465, 3408438881, 0.56891364, 0.3126886, -0.6882955, 0.32374752, 8.039546966552734, 1.100142240524292, -0.49454712867736816, -55.9879035949707, 37.67977523803711, 18.864181518554688, 
466, 3408455548, 0.5706187, 0.3019362, -0.69354415, 0.31972688, 6.9010138511657715, 0.7603999376296997, -0.8683008551597595, -75.98177337646484, 3.3246049880981445, 43.04404067993164, 
467, 3408472215, 0.5689181, 0.28913367, -0.7028856, 0.31414318, 7.274984836578369, 0.642290472984314, 0.5988274216651917, -93.3996810913086, -27.715923309326172, 62.70811080932617, 
468, 3408488882, 0.56135243, 0.27706197, -0.71704364, 0.30654317, 7.747650146484375, -7.057097911834717, -1.0752849578857422, -99.02565002441406, -80.52118682861328, 73.57002258300781, 
469, 3408505549, 0.5469651, 0.2772904, -0.7264034, 0.31028572, 12.752957344055176, -8.699546813964844, -4.127096176147461, 27.48054313659668, -99.95933532714844, 61.85371017456055, 
470, 3408522216, 0.5334823, 0.28477105, -0.72720116, 0.32477796, 19.965877532958984, 1.8661189079284668, 2.448645830154419, 124.9849624633789, -58.20842361450195, 47.68998718261719, 
471, 3408538883, 0.5270296, 0.2803701, -0.7300744, 0.33260176, 15.248625755310059, 2.0778467655181885, 7.188037872314453, 29.654239654541016, -17.307323455810547, 71.0773696899414, 
472, 3408555550, 0.5185506, 0.27291507, -0.7411525, 0.32759085, 8.690051078796387, 4.443627834320068, -1.3702609539031982, -60.710723876953125, -75.13533782958984, 60.43440246582031, 
473, 3408572217, 0.50848514, 0.26481438, -0.75236255, 0.32444865, 10.592578887939453, -3.549170732498169, -4.4593610763549805, -50.79856872558594, -78.74107360839844, 74.30458068847656, 
474, 3408588884, 0.49993342, 0.26114687, -0.75951815, 0.32403913, 13.6550931930542, -7.798969745635986, -2.2752909660339355, -14.869878768920898, -61.62596130371094, 50.148460388183594, 
475, 3408605551, 0.4915052, 0.26382083, -0.76172596, 0.32953736, 16.197935104370117, -5.98256254196167, -2.8778281211853027, 48.562225341796875, -47.52811050415039, 28.115032196044922, 
476, 3408622218, 0.47927806, 0.2703531, -0.76211137, 0.34115714, 21.5291748046875, -1.8454296588897705, -4.359737873077393, 104.67174530029297, -58.94449234008789, 33.871131896972656, 
477, 3408638885, 0.46633875, 0.27379918, -0.76553994, 0.34858394, 16.968936920166016, 1.3285273313522339, -4.465856075286865, 66.71685791015625, -73.29820251464844, 43.611087799072266, 
478, 3408655552, 0.45611167, 0.27179226, -0.77352244, 0.34605536, 6.559352874755859, -1.6271252632141113, -6.835448265075684, -19.172048568725586, -79.31282043457031, 42.55485534667969, 
479, 3408672219, 0.44957227, 0.2653931, -0.7827038, 0.3388604, 3.0111615657806396, -4.5294647216796875, -8.454974174499512, -67.48863220214844, -61.667510986328125, 44.75190734863281, 
480, 3408688886, 0.44528142, 0.25850505, -0.79100823, 0.33046296, 5.397441864013672, -6.9783830642700195, -7.965010166168213, -77.51554107666016, -47.812625885009766, 36.7777214050293, 
481, 3408705553, 0.44288036, 0.2531144, -0.7970199, 0.32334158, 7.6322197914123535, -7.51722526550293, -8.411932945251465, -64.13713073730469, -31.574377059936523, 24.10321617126465, 
482, 3408722220, 0.44038433, 0.2518552, -0.7996399, 0.32125792, 9.676332473754883, -6.916534900665283, -7.2565131187438965, -16.247785568237305, -22.120946884155273, 11.047399520874023, 
483, 3408738887, 0.4373235, 0.25390735, -0.7998361, 0.32332873, 10.646577835083008, -5.411230564117432, -5.36053991317749, 22.94298553466797, -17.97544288635254, 2.421809673309326, 
484, 3408755554, 0.4345093, 0.25546312, -0.80030274, 0.3247397, 8.263813972473145, -2.8395771980285645, -4.849308967590332, 16.78287124633789, -17.482175827026367, 3.067101240158081, 
485, 3408772221, 0.43211138, 0.25598845, -0.8016645, 0.3241664, 6.997682571411133, -2.00370717048645, -4.574879169464111, 0.05889648199081421, -19.04244613647461, 3.452378988265991, 
486, 3408788888, 0.43023178, 0.25637752, -0.8029065, 0.32328385, 7.890631675720215, -2.5207791328430176, -3.5011885166168213, -2.691314458847046, -16.05645751953125, 1.926076889038086, 
487, 3408805555, 0.42794535, 0.25665337, -0.8043573, 0.32249236, 8.625657081604004, -2.1587865352630615, -2.9957096576690674, -2.271433115005493, -18.51602554321289, 4.097691535949707, 
488, 3408822222, 0.4246776, 0.2568472, -0.80600697, 0.32253888, 9.147406578063965, -1.057032823562622, -2.5733351707458496, 3.4104154109954834, -22.887706756591797, 9.55659294128418, 
489, 3408838889, 0.4203388, 0.25659767, -0.8081967, 0.32294136, 9.246227264404297, -0.22123177349567413, -1.8288922309875488, 4.784406661987305, -28.816335678100586, 16.41149139404297, 
490, 3408855556, 0.4150561, 0.25500813, -0.81177783, 0.3220501, 8.794320106506348, 0.1379082351922989, -1.1577503681182861, -7.698126316070557, -37.428768157958984, 24.71181297302246, 
491, 3408872223, 0.40890878, 0.25230825, -0.816818, 0.31928453, 8.240013122558594, -0.8865384459495544, -1.4985910654067993, -23.03845977783203, -47.29189682006836, 30.07874298095703, 
492, 3408888890, 0.40212813, 0.24866894, -0.8227604, 0.31547156, 7.784282684326172, -1.6341544389724731, -2.3604438304901123, -32.44288635253906, -53.17853546142578, 35.3946418762207, 
493, 3408905557, 0.39416137, 0.24468142, -0.8292534, 0.3116198, 7.885697841644287, -1.7684286832809448, -2.260817766189575, -32.79206848144531, -60.74836730957031, 40.790409088134766, 
494, 3408922224, 0.38521525, 0.23999028, -0.83651835, 0.30700305, 8.309192657470703, -1.6222140789031982, -2.007232666015625, -39.0686149597168, -68.23682403564453, 46.14415740966797, 
495, 3408938891, 0.37530258, 0.23416483, -0.8447983, 0.30104932, 8.292959213256836, -0.9756215214729309, -2.1651229858398438, -50.31198501586914, -76.3366470336914, 52.865753173828125, 
496, 3408955558, 0.36408505, 0.22758764, -0.85418636, 0.29327765, 7.650440692901611, -1.3547203540802002, -2.4233169555664062, -63.00254821777344, -88.18846893310547, 57.055912017822266, 
497, 3408972225, 0.35130733, 0.220867, -0.86415744, 0.28466278, 7.129215240478516, -3.2074973583221436, -2.7144298553466797, -67.04679870605469, -99.87840270996094, 59.87044143676758, 
498, 3408988892, 0.33655387, 0.21494916, -0.8738637, 0.27729136, 7.572026252746582, -4.12111759185791, -2.1486830711364746, -54.211669921875, -110.69557189941406, 61.566463470458984, 
499, 3409005559, 0.31936294, 0.2104744, -0.8833414, 0.2709536, 8.438197135925293, -4.524569988250732, -2.0926828384399414, -40.64482879638672, -126.08379364013672, 59.58967971801758, 
500, 3409022226, 0.30034876, 0.20662604, -0.8927884, 0.26462296, 8.270965576171875, -3.882305860519409, -3.014678955078125, -36.55745315551758, -138.30604553222656, 59.14982223510742, 
501, 3409038893, 0.2796025, 0.20323996, -0.9024237, 0.25719187, 7.575253009796143, -3.1090753078460693, -5.1040239334106445, -40.259971618652344, -151.78562927246094, 57.462127685546875, 
502, 3409055560, 0.25759953, 0.19964552, -0.9122817, 0.24804518, 6.989717483520508, -2.4009225368499756, -6.058773040771484, -49.94975280761719, -162.0718536376953, 58.000797271728516, 
503, 3409072227, 0.23371005, 0.19683857, -0.9220809, 0.23748955, 9.386760711669922, -2.4041881561279297, -6.159963130950928, -54.69852828979492, -177.10281372070312, 53.71672439575195, 
504, 3409088894, 0.20851924, 0.19530061, -0.93147796, 0.22522518, 11.506118774414062, -2.941746711730957, -7.356176853179932, -61.07010269165039, -189.1473388671875, 44.532325744628906, 
505, 3409105561, 0.18230917, 0.19527085, -0.94031006, 0.2108314, 13.222794532775879, -3.5182065963745117, -8.467459678649902, -70.29859161376953, -200.1414337158203, 32.67027282714844, 
506, 3409122228, 0.15644275, 0.19749036, -0.9477046, 0.19590601, 14.89184284210205, -4.83527135848999, -9.557695388793945, -69.28721618652344, -200.1917266845703, 15.067394256591797, 
507, 3409138895, 0.13305798, 0.20226455, -0.95315194, 0.1813448, 13.592364311218262, -6.0196123123168945, -10.744796752929688, -64.91407012939453, -184.99334716796875, -7.146361351013184, 
508, 3409155562, 0.11369762, 0.20904805, -0.95692, 0.16636078, 8.950437545776367, -6.744958877563477, -11.866915702819824, -69.36054992675781, -160.28781127929688, -28.038585662841797, 
509, 3409172229, 0.09780607, 0.21694398, -0.9595625, 0.15036349, 2.7049505710601807, -7.436269283294678, -13.647061347961426, -78.87310028076172, -139.3746337890625, -41.747249603271484, 
510, 3409188896, 0.08398458, 0.22603753, -0.9607351, 0.13726549, -0.564433217048645, -7.572967052459717, -14.984173774719238, -60.53055953979492, -121.62271881103516, -52.06685256958008, 
511, 3409205563, 0.07417464, 0.23766588, -0.9599315, 0.12862758, -1.3522002696990967, -8.482532501220703, -15.482158660888672, -34.0029411315918, -89.38227081298828, -73.13134765625, 
512, 3409222230, 0.069067106, 0.25008658, -0.95723236, 0.12803508, -4.72298526763916, -10.555909156799316, -17.60330581665039, 13.450844764709473, -44.87008285522461, -81.55371856689453, 
513, 3409238897, 0.067295454, 0.26250747, -0.95190936, 0.14293288, -3.2056827545166016, -5.664774417877197, -14.175854682922363, 111.9096908569336, 5.0733160972595215, -81.69752502441406, 
514, 3409255564, 0.07241038, 0.27535877, -0.9439303, 0.167123, 1.9689042568206787, -0.682510495185852, -9.66305160522461, 163.1027374267578, 67.80987548828125, -91.7989501953125, 
515, 3409272231, 0.08385881, 0.2860772, -0.93536437, 0.19031891, 1.9025510549545288, 1.2946068048477173, -7.197238445281982, 144.30564880371094, 109.78455352783203, -86.82106018066406, 
516, 3409288898, 0.10240681, 0.2940575, -0.92781836, 0.2054175, -0.6555309891700745, 2.704608678817749, -5.237466812133789, 75.3917236328125, 142.5173797607422, -81.13690948486328, 
517, 3409305565, 0.1309716, 0.3002843, -0.9213252, 0.20937029, -0.8369854688644409, 2.875023365020752, -5.015028476715088, -18.635709762573242, 185.66192626953125, -89.81181335449219, 
518, 3409322232, 0.16898158, 0.30348286, -0.91515493, 0.20453645, -0.1442738026380539, 0.6958965063095093, -5.781781196594238, -96.95626831054688, 231.48976135253906, -91.47014617919922, 
519, 3409338899, 0.21032743, 0.30332747, -0.90784097, 0.19894654, -0.06632661819458008, -2.8737716674804688, -7.661635398864746, -110.94284057617188, 256.998291015625, -78.33040618896484, 
520, 3409355566, 0.25071976, 0.30119205, -0.8981557, 0.19934733, 0.424883097410202, -3.7414729595184326, -8.099658966064453, -71.17511749267578, 269.72821044921875, -60.973121643066406, 
521, 3409372233, 0.29092985, 0.30124038, -0.88449854, 0.20561257, -1.1846269369125366, -2.6634414196014404, -9.50505256652832, -25.377599716186523, 284.66552734375, -72.35965728759766, 
522, 3409388900, 0.3263995, 0.30590707, -0.8661719, 0.22277968, 1.0867743492126465, -3.1070241928100586, -7.849869728088379, 66.60459899902344, 281.3202209472656, -81.6426010131836, 
523, 3409405567, 0.3608555, 0.30869824, -0.8465736, 0.24042043, 1.5555496215820312, -5.299341201782227, -8.033783912658691, 69.2926254272461, 282.0643615722656, -70.55787658691406, 
524, 3409422234, 0.39718932, 0.30995062, -0.82475156, 0.2568196, 1.415241003036499, -2.5042967796325684, -7.815783500671387, 57.92207336425781, 298.4949645996094, -72.5643310546875, 
525, 3409438901, 0.43213102, 0.3114233, -0.8027144, 0.2681938, 1.243927240371704, -1.8060998916625977, -8.185937881469727, 33.373050689697266, 280.1423034667969, -85.56460571289062, 
526, 3409455568, 0.46064505, 0.3157829, -0.7804807, 0.28095776, 2.3774237632751465, -4.275482654571533, -8.791281700134277, 63.762001037597656, 242.9575958251953, -85.95585632324219, 
527, 3409472235, 0.48558718, 0.32036275, -0.7589172, 0.29260477, 4.412830352783203, -5.042862892150879, -7.837362289428711, 64.92559814453125, 218.8838348388672, -82.36756134033203, 
528, 3409488902, 0.50810623, 0.32424352, -0.7377645, 0.3039703, 6.178795337677002, -3.940572738647461, -7.01910924911499, 65.63423156738281, 205.71145629882812, -73.93775939941406, 
529, 3409505569, 0.5267867, 0.3292272, -0.71645004, 0.31749743, 7.518965721130371, -3.514542579650879, -5.776047229766846, 89.35607147216797, 189.3624267578125, -64.3616714477539, 
530, 3409522236, 0.5406668, 0.33484736, -0.6966109, 0.33209926, 8.933164596557617, -1.8888808488845825, -3.877620220184326, 104.60909271240234, 161.43927001953125, -49.826385498046875, 
531, 3409538903, 0.5526051, 0.33740112, -0.6805358, 0.3430151, 10.104494094848633, 1.6051361560821533, -1.588133454322815, 71.43544006347656, 136.66380310058594, -35.7578125, 
532, 3409555570, 0.5637719, 0.33444184, -0.6704365, 0.3475986, 10.036847114562988, 3.065504312515259, -0.3672899901866913, 8.56063175201416, 108.64490509033203, -18.305213928222656, 
533, 3409572237, 0.57322514, 0.32655385, -0.6666649, 0.3468915, 9.022870063781738, 1.2511003017425537, -0.41616785526275635, -46.10810089111328, 75.81682586669922, 2.607253074645996, 
534, 3409588904, 0.57937443, 0.317222, -0.6668676, 0.34493944, 8.61539077758789, -0.8544185757637024, -0.6579318642616272, -59.56260299682617, 45.64949417114258, 21.156084060668945, 
535, 3409605571, 0.5823205, 0.30833685, -0.66913813, 0.34363586, 8.001604080200195, -0.6680443286895752, -0.33482596278190613, -52.721675872802734, 23.077659606933594, 33.805870056152344, 
536, 3409622238, 0.5820789, 0.30029017, -0.6736761, 0.34230214, 7.439821243286133, 0.7830312252044678, -0.31117141246795654, -48.09751510620117, -2.714531183242798, 42.17477035522461, 
537, 3409638905, 0.5784469, 0.29115707, -0.6820795, 0.3396971, 7.876459121704102, 1.17332124710083, 1.5602999925613403, -60.43171310424805, -33.961631774902344, 58.10610580444336, 
538, 3409655572, 0.5697477, 0.27945703, -0.69814605, 0.33148727, 7.637242317199707, -7.988414764404297, 1.9119659662246704, -104.68575286865234, -93.46167755126953, 75.06920623779297, 
539, 3409672239, 0.5502036, 0.28657362, -0.7070452, 0.33946845, 13.305132865905762, -12.124967575073242, -6.917870044708252, 83.9258041381836, -129.26010131835938, 59.03718566894531, 
540, 3409688906, 0.5334147, 0.3016967, -0.70340896, 0.36008862, 19.466434478759766, 3.1546061038970947, 0.6942893266677856, 199.50559997558594, -62.18855285644531, 36.664085388183594, 
541, 3409705573, 0.52702916, 0.30190572, -0.7024955, 0.37093595, 13.12646770477295, 5.538417339324951, 8.861977577209473, 69.19235229492188, -5.262584209442139, 52.91123962402344, 
542, 3409722240, 0.51763433, 0.2980766, -0.71332186, 0.36657512, 9.572074890136719, 4.26721715927124, -0.6406476497650146, -42.607547760009766, -83.74603271484375, 49.45524215698242, 
543, 3409738907, 0.5054291, 0.29479483, -0.72516257, 0.36301076, 14.31187915802002, -3.2016212940216064, -7.766587257385254, -33.55019760131836, -100.89995574951172, 58.84518814086914, 
544, 3409755574, 0.49708736, 0.295897, -0.72805595, 0.36780956, 16.910043716430664, -5.924920082092285, -1.2413864135742188, 37.89298629760742, -44.4782829284668, 38.270545959472656, 
545, 3409772241, 0.48492122, 0.30270454, -0.7282582, 0.3779702, 23.534526824951172, -0.3099620044231415, 0.03384758532047272, 98.81175994873047, -57.98537063598633, 32.213775634765625, 
546, 3409788908, 0.46844935, 0.3068737, -0.73366666, 0.3848597, 18.128009796142578, 3.797717332839966, -0.8637803792953491, 69.06151580810547, -96.92831420898438, 56.614437103271484, 
547, 3409805575, 0.45467559, 0.30519682, -0.74534273, 0.38024908, 5.807814598083496, -2.2895188331604004, -4.587482929229736, -30.05479621887207, -112.34442901611328, 55.25071716308594, 
548, 3409822242, 0.44855407, 0.29662964, -0.75809413, 0.36892217, 0.5238651037216187, -5.544637203216553, -10.691655158996582, -104.87657928466797, -72.53988647460938, 51.80954360961914, 
549, 3409838909, 0.4446201, 0.28711942, -0.77010125, 0.35611713, 2.7823214530944824, -8.486942291259766, -13.272396087646484, -118.04557037353516, -59.34800720214844, 45.04160690307617, 
550, 3409855576, 0.4431241, 0.28064325, -0.77768594, 0.34653306, 7.99818754196167, -10.387012481689453, -12.079627990722656, -85.6789779663086, -33.854644775390625, 24.044435501098633, 
551, 3409872243, 0.44216198, 0.2803133, -0.77892643, 0.3452406, 11.497886657714844, -10.920954704284668, -10.305976867675781, -8.52907943725586, -10.221811294555664, 2.849273920059204, 
552, 3409888910, 0.44011635, 0.28508946, -0.77571714, 0.3511191, 11.54864501953125, -6.395818710327148, -7.399412155151367, 58.04198455810547, -0.7453961968421936, -8.780030250549316, 
553, 3409905577, 0.4381791, 0.28992572, -0.771888, 0.3579543, 9.638960838317871, -0.9581100344657898, -3.7754878997802734, 64.60882568359375, 3.4578301906585693, -7.715717315673828, 
554, 3409922244, 0.43694514, 0.2914289, -0.77074116, 0.36070228, 9.092621803283691, 1.0825254917144775, -1.3793247938156128, 24.877307891845703, -0.8439978361129761, 1.2972476482391357, 
555, 3409938911, 0.43683347, 0.28940907, -0.7731159, 0.35736626, 8.930127143859863, 0.7974869608879089, -0.9209564924240112, -28.924543380737305, -8.956222534179688, 6.00936222076416, 
556, 3409955578, 0.43704358, 0.28551096, -0.7774435, 0.35079604, 8.720429420471191, -1.6041685342788696, -1.9240182638168335, -57.19225311279297, -14.960659980773926, 9.422324180603027, 
557, 3409972245, 0.43598822, 0.28204787, -0.78146285, 0.34594652, 8.529541015625, -3.2204363346099854, -2.6361515522003174, -43.46153259277344, -18.48930549621582, 14.736481666564941, 
558, 3409988912, 0.4337214, 0.27986848, -0.7845373, 0.34359947, 8.36290168762207, -3.076171875, -2.2455649375915527, -21.574703216552734, -20.37864875793457, 16.390073776245117, 
559, 3410005579, 0.43019524, 0.27898997, -0.7871659, 0.3427339, 8.2608003616333, -2.61578631401062, -1.4529982805252075, -6.231968879699707, -26.082033157348633, 15.907833099365234, 
560, 3410022246, 0.42521745, 0.2793965, -0.78959787, 0.34302053, 7.927493572235107, -2.8507213592529297, -0.9018591046333313, 7.045488357543945, -34.20139694213867, 15.408334732055664, 
561, 3410038913, 0.41911465, 0.28043452, -0.79219824, 0.34368813, 7.507796287536621, -2.8951399326324463, -1.2476270198822021, 12.715174674987793, -41.590118408203125, 16.07093620300293, 
562, 3410055580, 0.4119244, 0.2813349, -0.7951259, 0.34488252, 7.485278129577637, -1.4239238500595093, -1.2818021774291992, 16.5022029876709, -47.142425537109375, 21.53749656677246, 
563, 3410072247, 0.40384287, 0.28061706, -0.7995303, 0.34484258, 7.657429218292236, 0.6882336139678955, -0.5275002717971802, 3.391310214996338, -54.77501678466797, 31.871999740600586, 
564, 3410088914, 0.39535406, 0.27707496, -0.8066713, 0.3408902, 8.057619094848633, 1.6569290161132812, -0.08245230466127396, -31.65913963317871, -65.49794006347656, 42.81837844848633, 
565, 3410105581, 0.38580325, 0.27134013, -0.8161643, 0.33377603, 9.1917085647583, 1.2174298763275146, -0.6898318529129028, -58.641021728515625, -78.70816802978516, 53.405704498291016, 
566, 3410122248, 0.37394378, 0.26469082, -0.82694584, 0.3259841, 8.983161926269531, 0.06208346411585808, -0.873114824295044, -63.51383590698242, -94.29305267333984, 64.49171447753906, 
567, 3410138915, 0.3603699, 0.2573078, -0.83858585, 0.3173331, 7.287167549133301, -1.1865310668945312, -1.5987417697906494, -69.08696746826172, -106.21273040771484, 71.89881896972656, 
568, 3410155582, 0.34508753, 0.24842905, -0.85096365, 0.3083157, 6.170888900756836, -0.6816132068634033, -2.152540683746338, -73.49352264404297, -115.31147766113281, 84.66697692871094, 
569, 3410172249, 0.32821178, 0.23744768, -0.86467654, 0.29703593, 6.950961112976074, -0.12371110171079636, -2.0396628379821777, -91.826904296875, -127.23514556884766, 97.28067016601562, 
570, 3410188916, 0.3101185, 0.22519247, -0.87949866, 0.28212965, 7.861859321594238, -0.49422115087509155, -2.645627975463867, -116.53724670410156, -140.33595275878906, 100.99626159667969, 
571, 3410205583, 0.2900851, 0.21351895, -0.8943852, 0.26520866, 7.051608562469482, -2.867471218109131, -4.876524448394775, -124.59679412841797, -156.49887084960938, 97.0708236694336, 
572, 3410222250, 0.26719394, 0.2042146, -0.90838754, 0.24846762, 6.514132499694824, -5.213473796844482, -6.896703720092773, -112.95579528808594, -176.39112854003906, 86.77303314208984, 
573, 3410238917, 0.24154899, 0.19831468, -0.92049545, 0.2345498, 7.844482898712158, -6.641699314117432, -8.193984985351562, -81.97037506103516, -191.9722442626953, 72.72181701660156, 
574, 3410255584, 0.21336, 0.19619039, -0.9305953, 0.22356088, 10.874491691589355, -6.065586090087891, -7.519652843475342, -50.47068786621094, -206.85263061523438, 55.033416748046875, 
575, 3410272251, 0.18343309, 0.19788314, -0.9389824, 0.21332261, 14.17762565612793, -5.4980950355529785, -6.744146823883057, -35.109901428222656, -220.37318420410156, 32.07270812988281, 
576, 3410288918, 0.15246463, 0.20316938, -0.946002, 0.20138752, 15.88711929321289, -6.111545085906982, -7.401991367340088, -38.13093185424805, -233.05357360839844, 6.422130107879639, 
577, 3410305585, 0.12347279, 0.21164785, -0.9510138, 0.1885007, 14.307210922241211, -7.216376781463623, -10.671226501464844, -40.974578857421875, -223.9587860107422, -20.860265731811523, 
578, 3410322252, 0.09967022, 0.2224204, -0.9540193, 0.17447817, 8.89189338684082, -7.602643966674805, -12.325753211975098, -51.42310333251953, -193.0363311767578, -46.44375991821289, 
579, 3410338919, 0.082152955, 0.23383719, -0.95584196, 0.1579158, 3.154682159423828, -8.123453140258789, -14.531303405761719, -75.84172821044922, -155.70883178710938, -61.80503845214844, 
580, 3410355586, 0.069561556, 0.24430169, -0.95677024, 0.14166372, -0.502840518951416, -7.973195552825928, -16.60129737854004, -81.3246078491211, -121.26559448242188, -62.1055793762207, 
581, 3410372253, 0.061263587, 0.25465778, -0.95559543, 0.13503213, 0.6658170819282532, -7.686288356781006, -16.32714080810547, -23.27424430847168, -75.68992614746094, -64.48432922363281, 
582, 3410388920, 0.05868695, 0.26392266, -0.9524375, 0.14058395, -0.29500243067741394, -5.600300312042236, -13.900988578796387, 48.127445220947266, -14.914015769958496, -61.08249282836914, 
583, 3410405587, 0.06108701, 0.27022076, -0.948314, 0.15475714, -1.5961759090423584, -2.9429192543029785, -11.725679397583008, 95.28081512451172, 36.60791778564453, -44.75999450683594, 
584, 3410422254, 0.070359245, 0.2735946, -0.94377065, 0.17173442, -1.284122109413147, 0.056425660848617554, -9.848405838012695, 100.0178451538086, 89.96817779541016, -32.586666107177734, 
585, 3410438921, 0.086914785, 0.27537897, -0.9386219, 0.18868347, -0.31191545724868774, 1.0751731395721436, -7.586060047149658, 86.11492919921875, 139.38914489746094, -32.03704071044922, 
586, 3410455588, 0.11135383, 0.27714732, -0.9330937, 0.20031421, -0.34277573227882385, 2.0775628089904785, -5.506582736968994, 37.3775749206543, 180.48291015625, -46.046043395996094, 
587, 3410472255, 0.14518248, 0.27817944, -0.92736465, 0.20379715, -0.041788846254348755, 0.1321887969970703, -6.591917991638184, -33.04875564575195, 226.40902709960938, -60.87427520751953, 
588, 3410488922, 0.18298599, 0.27737522, -0.9208121, 0.20416759, 0.10404378175735474, -2.8143346309661865, -8.090834617614746, -61.16400909423828, 249.23855590820312, -59.425636291503906, 
589, 3410505589, 0.22179319, 0.2753449, -0.91245794, 0.2059459, 0.7453279495239258, -3.3045008182525635, -8.024421691894531, -53.180362701416016, 262.3100891113281, -54.75260543823242, 
590, 3410522256, 0.26116225, 0.27675614, -0.89995223, 0.21280597, 0.44363707304000854, -3.5630064010620117, -9.44251537322998, -11.2313232421875, 276.96014404296875, -77.27910614013672, 
591, 3410538923, 0.29702258, 0.28403172, -0.8817935, 0.2313959, 1.6837947368621826, -4.166357517242432, -8.806683540344238, 86.85447692871094, 279.20452880859375, -98.15830993652344, 
592, 3410555590, 0.3310791, 0.29146093, -0.86135006, 0.25201887, 1.882663607597351, -5.259186267852783, -8.57115364074707, 106.65381622314453, 276.7054138183594, -96.55503845214844, 
593, 3410572257, 0.36675787, 0.29734936, -0.83847207, 0.27209708, 2.493283748626709, -2.149394989013672, -7.970433235168457, 100.88147735595703, 293.4939270019531, -96.40189361572266, 
594, 3410588924, 0.40517676, 0.30170032, -0.81391543, 0.28696796, 2.818979501724243, 1.110889196395874, -6.845115661621094, 64.5226058959961, 305.8061218261719, -109.24658203125, 
595, 3410605591, 0.44112533, 0.30539498, -0.78972584, 0.2974485, 3.844346046447754, -0.11973673105239868, -7.378439903259277, 42.53483581542969, 283.16607666015625, -112.14936828613281, 
596, 3410622258, 0.47531676, 0.30782238, -0.76617384, 0.30380446, 5.1721601486206055, -2.7112019062042236, -7.694545745849609, 18.68604278564453, 265.654541015625, -112.83457946777344, 
597, 3410638925, 0.5087842, 0.30945173, -0.7419181, 0.3081169, 5.877486705780029, -3.8299496173858643, -7.496096134185791, 8.314594268798828, 261.53070068359375, -115.30113220214844, 
598, 3410655592, 0.53942287, 0.31305352, -0.7150854, 0.31571087, 6.59027099609375, -3.891428232192993, -6.895570755004883, 43.441200256347656, 258.9692687988281, -113.40288543701172, 
599, 3410672259, 0.56435865, 0.31874356, -0.68771416, 0.32703406, 8.097307205200195, -1.7973613739013672, -4.735830783843994, 82.97553253173828, 236.4550323486328, -98.64566040039062, 
600, 3410688926, 0.5846255, 0.32496828, -0.6623435, 0.33750576, 9.440079689025879, 1.2632492780685425, -2.3676416873931885, 86.75519561767578, 203.55718994140625, -89.60285186767578, 
601, 3410705593, 0.60315835, 0.32821637, -0.6408286, 0.34323883, 9.533931732177734, 3.076209545135498, -1.0172746181488037, 48.12796401977539, 176.4754638671875, -82.43486785888672, 
602, 3410722260, 0.61878234, 0.3282276, -0.62476647, 0.34502444, 8.816280364990234, 1.264332890510559, 0.06582421064376831, 10.997904777526855, 139.76609802246094, -65.33303833007812, 
603, 3410738927, 0.6294171, 0.32760316, -0.6139665, 0.34576806, 8.342581748962402, -0.3920477628707886, 0.5520818829536438, 2.5893771648406982, 95.09159851074219, -43.305091857910156, 
604, 3410755594, 0.6347193, 0.32757866, -0.60754764, 0.34743288, 6.818789958953857, 0.6731554269790649, 2.469130754470825, 10.669763565063477, 54.26111602783203, -19.30668067932129, 
605, 3410772261, 0.63465184, 0.3267064, -0.60769725, 0.34811544, 5.869897842407227, 1.6800750494003296, 3.231186628341675, -0.7295330762863159, 2.9545538425445557, 7.576008319854736, 
606, 3410788928, 0.63025844, 0.32409328, -0.6142463, 0.34704378, 6.0429792404174805, 2.9934237003326416, 2.0902507305145264, -21.256669998168945, -42.84981155395508, 31.944190979003906, 
607, 3410805595, 0.6229335, 0.3169257, -0.6278154, 0.34257832, 7.080269813537598, 4.873719692230225, 0.4596193730831146, -65.54696655273438, -82.36962890625, 59.144775390625, 
608, 3410822262, 0.6121038, 0.2998774, -0.6522731, 0.33157554, 8.480222702026367, -2.43912410736084, 5.390136241912842, -154.12112426757812, -135.13096618652344, 105.84904479980469, 
609, 3410838929, 0.5872449, 0.30299494, -0.67304206, 0.3321924, 15.505745887756348, -23.97389030456543, -10.870306968688965, 20.229358673095703, -204.60671997070312, 88.67093658447266, 
610, 3410855596, 0.5689364, 0.31949538, -0.670511, 0.3530573, 22.560604095458984, -1.6571273803710938, 1.9305517673492432, 207.57933044433594, -68.48968505859375, 44.75529479980469, 
611, 3410872263, 0.55653626, 0.32375097, -0.66882735, 0.37164888, 16.214448928833008, 5.437534809112549, 9.837489128112793, 134.13868713378906, -19.880489349365234, 79.8304443359375, 
612, 3410888930, 0.5436898, 0.31748614, -0.6829981, 0.37029386, 8.350984573364258, 9.551238059997559, -1.9613603353500366, -37.3834228515625, -100.23912811279297, 88.39138793945312, 
613, 3410905597, 0.53214157, 0.3074788, -0.7017425, 0.36033255, 8.682210922241211, -0.945865273475647, -8.699111938476562, -106.2735824584961, -120.4940185546875, 80.58316802978516, 
614, 3410922264, 0.5238427, 0.3044013, -0.71049285, 0.35795072, 19.315046310424805, -8.197781562805176, -4.75191068649292, -26.438398361206055, -69.31266021728516, 45.6983642578125, 
615, 3410938931, 0.5109233, 0.31093982, -0.7129477, 0.36603227, 24.75482177734375, -6.25998067855835, -6.407406806945801, 84.47486877441406, -70.9698257446289, 34.56205749511719, 
616, 3410955598, 0.49578747, 0.3146569, -0.71770364, 0.37428263, 10.514172554016113, -0.28542670607566833, -6.067986488342285, 74.33950805664062, -82.4485855102539, 59.46870422363281, 
617, 3410972265, 0.48584294, 0.3134741, -0.72447944, 0.37526038, 4.291741371154785, -2.020967721939087, -6.337915420532227, 5.32767391204834, -66.80419921875, 49.8828239440918, 
618, 3410988932, 0.48198995, 0.30632704, -0.7338067, 0.36793655, 3.8820955753326416, -5.094974040985107, -7.653802394866943, -75.64947509765625, -47.440155029296875, 41.63576889038086, 
619, 3411005599, 0.48055896, 0.2986927, -0.7421036, 0.35934415, 7.279597759246826, -8.316344261169434, -10.179143905639648, -86.15057373046875, -33.18122482299805, 31.5598087310791, 
620, 3411022266, 0.4798885, 0.294485, -0.74619627, 0.35521358, 9.82411003112793, -10.28790283203125, -10.375494003295898, -43.22909164428711, -14.636877059936523, 18.25076675415039, 
621, 3411038933, 0.47932592, 0.29619297, -0.7443329, 0.3584481, 10.281362533569336, -8.624826431274414, -8.059098243713379, 28.40567970275879, 6.098811626434326, -0.19105209410190582, 
622, 3411055600, 0.47934636, 0.30050984, -0.739792, 0.36418235, 9.731565475463867, -3.952810525894165, -4.783923625946045, 55.20751190185547, 16.607118606567383, -12.253782272338867, 
623, 3411072267, 0.48001406, 0.3033381, -0.73617613, 0.3682627, 9.961910247802734, -0.9041910171508789, -2.7617828845977783, 38.236412048339844, 17.169187545776367, -9.857964515686035, 
624, 3411088934, 0.48169774, 0.30279464, -0.7350493, 0.3687623, 9.562431335449219, 0.360927015542984, -1.8604474067687988, 0.5660026669502258, 15.16147518157959, -1.9737355709075928, 
625, 3411105601, 0.4842172, 0.2996723, -0.73624074, 0.36562285, 8.886548042297363, -0.2590976059436798, -2.304678201675415, -33.97999954223633, 10.659643173217773, 1.7457181215286255, 
626, 3411122268, 0.48719966, 0.29566967, -0.73825115, 0.3608343, 9.117061614990234, -1.6433764696121216, -3.4590256214141846, -48.268306732177734, 9.09011459350586, 1.2630882263183594, 
627, 3411138935, 0.48960277, 0.29236716, -0.7396222, 0.35744894, 8.988556861877441, -2.633539915084839, -3.7062618732452393, -36.03421401977539, 9.414196968078613, 2.5608084201812744, 
628, 3411155602, 0.4914162, 0.29025936, -0.7400028, 0.3558872, 8.647011756896973, -2.32318377494812, -3.1378371715545654, -19.117666244506836, 10.487393379211426, 2.0863115787506104, 
629, 3411172269, 0.49293077, 0.2889113, -0.7399281, 0.35504392, 8.413307189941406, -2.2822680473327637, -2.4664688110351562, -11.183952331542969, 10.084291458129883, 0.4731309413909912, 
630, 3411188936, 0.4944587, 0.28750595, -0.7400383, 0.35382816, 8.036881446838379, -2.772001028060913, -2.50337815284729, -13.749991416931152, 8.923768043518066, -0.1597529500722885, 
631, 3411205603, 0.495975, 0.28609568, -0.74028736, 0.35232517, 8.00193977355957, -3.4614322185516357, -2.5968546867370605, -15.543280601501465, 7.836289882659912, -0.8113662600517273, 
632, 3411222270, 0.49778715, 0.28475016, -0.74028385, 0.35086367, 8.283882141113281, -3.6095378398895264, -2.7715530395507812, -15.083817481994629, 10.129067420959473, -2.222090244293213, 
633, 3411238937, 0.49954095, 0.28362855, -0.7400592, 0.3497515, 8.525568008422852, -3.3069136142730713, -2.478330373764038, -11.893247604370117, 10.733113288879395, -2.4690213203430176, 
634, 3411255604, 0.5010778, 0.2833659, -0.73950297, 0.34894174, 9.184349060058594, -3.2661192417144775, -2.566859245300293, -6.185681343078613, 9.291933059692383, -5.933255672454834, 
635, 3411272271, 0.5023069, 0.28412777, -0.7382497, 0.34920865, 9.686298370361328, -3.108428716659546, -3.233530044555664, 5.087402820587158, 9.765040397644043, -8.059675216674805, 
636, 3411288938, 0.50296664, 0.28569275, -0.73631996, 0.35105175, 10.107678413391113, -2.100937843322754, -2.7999091148376465, 18.59699058532715, 10.363082885742188, -6.653646945953369, 
637, 3411305605, 0.5035936, 0.28713152, -0.7347556, 0.35225433, 10.207010269165039, -1.7481932640075684, -2.3550875186920166, 14.10026741027832, 7.9785566329956055, -7.429451942443848, 
638, 3411322272, 0.50380874, 0.28823674, -0.73386574, 0.35289887, 9.66376781463623, -2.3443799018859863, -2.503484010696411, 9.305252075195312, 3.260357141494751, -5.340512752532959, 
639, 3411338939, 0.5036793, 0.28976405, -0.7328493, 0.35394374, 9.38705825805664, -2.9306063652038574, -2.685554027557373, 13.775748252868652, 1.7264506816864014, -5.498185634613037, 
640, 3411355606, 0.504016, 0.29101926, -0.7318367, 0.35452896, 8.72309684753418, -2.6408047676086426, -2.5807583332061768, 9.578182220458984, 3.807304620742798, -6.850869178771973, 
641, 3411372273, 0.5045306, 0.29199582, -0.73113126, 0.35445002, 8.979491233825684, -2.584498405456543, -2.7968909740448, 4.165124893188477, 2.9876065254211426, -7.574283599853516, 
642, 3411388940, 0.5054743, 0.2929495, -0.7301925, 0.3542533, 9.844419479370117, -2.836968421936035, -3.5309436321258545, 3.200295925140381, 5.7740020751953125, -9.384505271911621, 
643, 3411405607, 0.5066635, 0.29431495, -0.728528, 0.35484895, 9.858054161071777, -2.405780553817749, -3.3949363231658936, 9.881030082702637, 10.128000259399414, -10.760730743408203, 
644, 3411422274, 0.50760555, 0.2961331, -0.7267137, 0.35570955, 9.697159767150879, -2.3381338119506836, -2.51534366607666, 13.651137351989746, 8.848443984985352, -11.80606746673584, 
645, 3411438941, 0.50849855, 0.29807776, -0.72491914, 0.35647044, 9.659690856933594, -2.555941104888916, -2.2334933280944824, 13.644786834716797, 8.020397186279297, -12.627673149108887, 
