sep=,
DeviceTag:,R Upper Leg - 5,,,,,,,,,,,,,,,,,
FirmwareVersion:,3.0.0,,,,,,,,,,,,,,,,,
AppVersion:,2023.6.1,,,,,,,,,,,,,,,,,
StartTime:,2024-05-23 12:04:51.000 +0200,,,,,,,,,,,,,,,,,
 2024,,,,,,,,,,,,,,,,,,,

PacketCounter,SampleTimeFine,Quat_W,Quat_X,Quat_Y,Quat_Z,Acc_X,Acc_Y,Acc_Z,Gyr_X,Gyr_Y,Gyr_Z,
0, 3419382877, 0.5521749, -0.38424975, -0.6627014, -0.32906199, 0.0, 0.0, 0.0, 0.0, 0.0, 0.0, 
1, 3419399544, 0.5520568, -0.3843797, -0.66321427, -0.3280738, 9.728193283081055, 0.05842551961541176, -1.8894175291061401, 5.097945690155029, -1.4246680736541748, 0.9323599934577942, 
2, 3419416211, 0.55144775, -0.38483766, -0.66431934, -0.32632142, 9.688342094421387, 0.0765032172203064, -1.7595187425613403, 4.418684005737305, -1.1553378105163574, 1.0674924850463867, 
3, 3419432878, 0.5513805, -0.38482177, -0.6650307, -0.3250014, 9.70041561126709, 0.050134360790252686, -1.7717137336730957, 3.5005714893341064, -1.632335901260376, 1.2013702392578125, 
4, 3419449545, 0.5516359, -0.38463366, -0.6655129, -0.32380116, 9.677412033081055, 0.08549556136131287, -1.911075234413147, 3.937882900238037, -1.5641933679580688, 1.605628252029419, 
5, 3419466212, 0.55171514, -0.38441497, -0.6661402, -0.32263434, 9.670228958129883, 0.0877215713262558, -1.9841398000717163, 5.291167736053467, -0.8206950426101685, 1.7651572227478027, 
6, 3419482879, 0.5515043, -0.3844233, -0.66677624, -0.32166967, 9.664782524108887, 0.10326740890741348, -1.835749626159668, 5.1845293045043945, -0.8470632433891296, 1.7039810419082642, 
7, 3419499546, 0.5515051, -0.3841244, -0.667403, -0.32072407, 9.686080932617188, 0.0579715259373188, -1.8711603879928589, 5.8051886558532715, -1.0629781484603882, 1.4960057735443115, 
8, 3419516213, 0.5514193, -0.3841509, -0.66775006, -0.32011685, 9.661564826965332, 0.017706505954265594, -1.8847345113754272, 5.935339450836182, -1.0599303245544434, 1.3597207069396973, 
9, 3419532880, 0.5515463, -0.38383242, -0.66825724, -0.31922057, 9.667314529418945, 0.02500593103468418, -1.917432427406311, 6.727208614349365, -1.1659799814224243, 1.0500375032424927, 
10, 3419549547, 0.5518096, -0.38330847, -0.66882944, -0.31819513, 9.6576566696167, 0.040299102663993835, -1.9297938346862793, 7.718292236328125, -0.8546447157859802, 0.7702957391738892, 
11, 3419566214, 0.5519705, -0.38294846, -0.66927207, -0.31741804, 9.66678237915039, 0.04690200835466385, -1.8517049551010132, 6.519956111907959, -0.6559413075447083, 0.525931179523468, 
12, 3419582881, 0.55210114, -0.38267872, -0.66956323, -0.3169015, 9.678577423095703, 0.09606213867664337, -1.8816078901290894, 5.543248176574707, -0.20234033465385437, 0.17604249715805054, 
13, 3419599548, 0.55217797, -0.38230386, -0.66995454, -0.31639224, 9.708148002624512, 0.19358377158641815, -1.858107566833496, 5.818418502807617, -0.8121531009674072, -0.45161595940589905, 
14, 3419616215, 0.55222905, -0.38193533, -0.67024165, -0.31614032, 9.717886924743652, 0.18510174751281738, -1.8623433113098145, 4.66255521774292, -0.1358753889799118, -0.8034704327583313, 
15, 3419632882, 0.5522839, -0.38142666, -0.67059475, -0.31590974, 9.672435760498047, 0.09558714926242828, -1.8807275295257568, 4.041050434112549, -0.19281241297721863, -1.207869291305542, 
16, 3419649549, 0.55239344, -0.38084677, -0.6709553, -0.31565213, 9.641636848449707, -0.029683060944080353, -1.8922216892242432, 4.220749378204346, 0.04216491058468819, -1.329350471496582, 
17, 3419666216, 0.5525505, -0.38025674, -0.6713444, -0.3152615, 9.667492866516113, 0.013062218204140663, -1.8680285215377808, 5.435373783111572, -0.19477178156375885, -1.2404870986938477, 
18, 3419682883, 0.5527566, -0.37964725, -0.6717284, -0.3148161, 9.710469245910645, 0.03058405965566635, -1.8710335493087769, 6.077465057373047, -0.11986744403839111, -1.2069729566574097, 
19, 3419699550, 0.5529222, -0.37923205, -0.67197144, -0.31450683, 9.671716690063477, 0.034011926501989365, -1.9342458248138428, 5.84977388381958, 0.10401317477226257, -0.9483487010002136, 
20, 3419716217, 0.5531572, -0.37872472, -0.6722827, -0.3140391, 9.667282104492188, 0.06530328094959259, -1.9242061376571655, 5.71453332901001, -0.004571867175400257, -0.5716754794120789, 
21, 3419732884, 0.5533203, -0.37841603, -0.6724804, -0.31370068, 9.687711715698242, 0.08254890143871307, -1.8728114366531372, 4.11491060256958, 0.02385822683572769, -0.06013861671090126, 
22, 3419749551, 0.5534201, -0.37829545, -0.67259425, -0.313426, 9.686895370483398, 0.08540663868188858, -1.8431761264801025, 3.4340033531188965, -0.23573926091194153, 0.5238885283470154, 
23, 3419766218, 0.55357075, -0.3781679, -0.6726499, -0.3131942, 9.682821273803711, 0.01117298100143671, -1.9001084566116333, 2.397418975830078, 0.27477940917015076, 0.764788806438446, 
24, 3419782885, 0.55376583, -0.37801418, -0.67271936, -0.31288585, 9.661252975463867, -0.10323268175125122, -1.973065733909607, 2.77502703666687, 0.282949835062027, 0.9711630344390869, 
25, 3419799552, 0.5539643, -0.3778946, -0.67279136, -0.3125235, 9.665525436401367, -0.04046454653143883, -1.9052892923355103, 4.1085524559021, 0.14369365572929382, 0.9477148056030273, 
26, 3419816219, 0.5541698, -0.3777179, -0.6729256, -0.31208342, 9.684142112731934, 0.018740640953183174, -1.883104681968689, 4.961045265197754, -0.14528803527355194, 0.7414684295654297, 
27, 3419832886, 0.5544776, -0.37729946, -0.67318463, -0.31148395, 9.669400215148926, 0.02815389260649681, -1.9031702280044556, 5.720404148101807, -0.06901982426643372, 0.3979957401752472, 
28, 3419849553, 0.5547599, -0.37691167, -0.67342854, -0.31092298, 9.677278518676758, 0.024614332243800163, -1.9731605052947998, 6.7838568687438965, -0.09682881832122803, 0.09688004106283188, 
29, 3419866220, 0.55505234, -0.37646276, -0.6736724, -0.31041676, 9.68582820892334, 0.032456815242767334, -1.9240270853042603, 5.6994147300720215, 0.2602634131908417, -0.15675611793994904, 
30, 3419882887, 0.5552607, -0.3761056, -0.6738635, -0.31006178, 9.706249237060547, 0.07668260484933853, -1.9301103353500366, 3.8464839458465576, 0.2679280638694763, -0.2510301172733307, 
31, 3419899554, 0.5553939, -0.37600875, -0.6738293, -0.3100146, 9.704828262329102, 0.0741124302148819, -1.9172661304473877, 2.1078357696533203, 1.022945761680603, -0.028513338416814804, 
32, 3419916221, 0.5555332, -0.3759371, -0.6738081, -0.30989802, 9.689208984375, 0.09163250029087067, -1.8396265506744385, 2.5516841411590576, 0.7632263898849487, 0.3251083791255951, 
33, 3419932888, 0.5556982, -0.37584576, -0.6737825, -0.3097689, 9.695701599121094, 0.06351560354232788, -1.9121639728546143, 1.215437889099121, 0.8690772652626038, 0.6761496663093567, 
34, 3419949555, 0.55586904, -0.37578028, -0.6737208, -0.30967626, 9.644669532775879, 0.0036026276648044586, -1.9547473192214966, 0.6339975595474243, 1.0729352235794067, 0.8239925503730774, 
35, 3419966222, 0.55589956, -0.37591937, -0.67361224, -0.30968827, 9.612963676452637, 0.00344762927852571, -1.9648598432540894, 0.6123356223106384, 0.45710983872413635, 0.8512124419212341, 
36, 3419982889, 0.5558567, -0.3762323, -0.6734015, -0.30984372, 9.6852388381958, 0.05487961694598198, -1.8590667247772217, 0.010955831967294216, 0.5320973992347717, 0.9840078353881836, 
37, 3419999556, 0.55595875, -0.37634236, -0.6732296, -0.30990052, 9.72327995300293, 0.08844665437936783, -1.9170411825180054, -0.20718111097812653, 1.2103922367095947, 1.0089225769042969, 
38, 3420016223, 0.5560691, -0.3764342, -0.67301685, -0.31005335, 9.693794250488281, 0.04969647899270058, -1.860893964767456, -0.9302916526794434, 1.6914498805999756, 0.7589170336723328, 
39, 3420032890, 0.5561205, -0.3766014, -0.6727655, -0.31030297, 9.741385459899902, 0.03293278068304062, -1.8107751607894897, -1.2429778575897217, 1.6382267475128174, 0.5924858450889587, 
40, 3420049557, 0.5560702, -0.37679404, -0.6725856, -0.3105494, 9.66795825958252, 0.0479392372071743, -1.8333083391189575, -1.7733399868011475, 0.7992186546325684, 0.38346055150032043, 
41, 3420066224, 0.5560022, -0.37696415, -0.67243487, -0.31079113, 9.659063339233398, 0.04215499758720398, -1.8997002840042114, -1.4468613862991333, 0.6247257590293884, 0.14955896139144897, 
42, 3420082891, 0.5558943, -0.37714833, -0.6723097, -0.3110313, 9.635458946228027, 0.04169243201613426, -1.9431849718093872, -1.4576059579849243, 0.31263503432273865, 0.05356255918741226, 
43, 3420099558, 0.5558024, -0.3773062, -0.6721927, -0.3112571, 9.641584396362305, 0.10339184105396271, -1.8925435543060303, -0.8458722233772278, 0.39330223202705383, -0.07168994098901749, 
44, 3420116225, 0.55568403, -0.37749165, -0.67205256, -0.31154558, 9.683661460876465, 0.07042858004570007, -1.9012022018432617, -1.1187628507614136, 0.465478777885437, -0.21010097861289978, 
45, 3420132892, 0.55564624, -0.37749192, -0.6719955, -0.31173578, 9.738118171691895, 0.10524985939264297, -1.9461073875427246, -0.9322767853736877, 0.6640604734420776, -0.4672524333000183, 
46, 3420149559, 0.55555534, -0.3775566, -0.6718928, -0.3120408, 9.688718795776367, 0.026725420728325844, -1.9207837581634521, -1.0895578861236572, 0.7645135521888733, -0.7531222701072693, 
47, 3420166226, 0.55549735, -0.3774664, -0.6719473, -0.31213582, 9.685836791992188, 0.13900618255138397, -1.8402546644210815, 0.0950615331530571, 0.10984005779027939, -0.8592420220375061, 
48, 3420182893, 0.5554452, -0.37740344, -0.6719548, -0.31228846, 9.637347221374512, 0.13186247646808624, -1.9636282920837402, 0.1449294537305832, 0.3957802355289459, -0.8985126614570618, 
49, 3420199560, 0.5553181, -0.37749216, -0.67185855, -0.31261426, 9.641524314880371, 0.0020061940886080265, -1.9804290533065796, -0.5842897295951843, 0.5874977111816406, -0.9395506978034973, 
50, 3420216227, 0.555104, -0.37767977, -0.6717624, -0.31297463, 9.671173095703125, 0.03366149961948395, -1.878946304321289, -1.3149815797805786, 0.08087850362062454, -0.8255228996276855, 
51, 3420232894, 0.55488, -0.37793273, -0.6716251, -0.31336042, 9.66467571258545, 0.008996580727398396, -1.9865849018096924, -1.2812625169754028, 0.11603192239999771, -0.6434934735298157, 
52, 3420249561, 0.5547818, -0.3780151, -0.6715555, -0.3135839, 9.682934761047363, -0.044365182518959045, -1.900908350944519, -2.0840542316436768, 0.3975539207458496, -0.2175670862197876, 
53, 3420266228, 0.55470943, -0.37818256, -0.67139965, -0.31384417, 9.697076797485352, -0.02348770573735237, -1.9532310962677002, -1.8701879978179932, 0.7581167221069336, 0.1311177909374237, 
54, 3420282895, 0.55459267, -0.3784372, -0.6711882, -0.31419578, 9.683796882629395, -0.01648387685418129, -1.9155707359313965, -2.995635747909546, 0.8225327134132385, 0.24366003274917603, 
55, 3420299562, 0.55444384, -0.37876257, -0.6709544, -0.31456515, 9.701424598693848, -0.05901162326335907, -1.8740884065628052, -3.386165142059326, 0.6556850671768188, 0.4586593806743622, 
56, 3420316229, 0.5543061, -0.37919635, -0.67060596, -0.31502777, 9.64973258972168, -0.05914316326379776, -1.9294894933700562, -2.134991407394409, 1.1516878604888916, 0.46262940764427185, 
57, 3420332896, 0.5543054, -0.3793213, -0.6704733, -0.31516147, 9.700007438659668, -0.009648607112467289, -1.930190086364746, -0.5838863253593445, 0.7738364338874817, 0.3815908133983612, 
58, 3420349563, 0.5543692, -0.37924093, -0.67050105, -0.31508645, 9.663206100463867, 0.11023114621639252, -1.8971610069274902, 1.55426824092865, 0.3648785352706909, -0.034500304609537125, 
59, 3420366230, 0.5543866, -0.3791368, -0.67056525, -0.31504458, 9.661377906799316, 0.06977612525224686, -1.9407448768615723, 1.307284951210022, 0.14991113543510437, -0.4294545352458954, 
60, 3420382897, 0.55438906, -0.3790571, -0.6705715, -0.31512305, 9.635904312133789, 0.014615110121667385, -2.044339895248413, 0.5491747260093689, 0.5687812566757202, -0.6648353338241577, 
61, 3420399564, 0.5543499, -0.37908742, -0.6704914, -0.31532568, 9.722423553466797, 0.07198873162269592, -1.9290685653686523, -0.3111814558506012, 0.815649151802063, -0.5828168988227844, 
62, 3420416231, 0.55435836, -0.37915465, -0.6703359, -0.31556043, 9.692862510681152, 0.14386118948459625, -1.9005060195922852, -0.020182806998491287, 1.3297920227050781, -0.35143184661865234, 
63, 3420432898, 0.55434686, -0.37927058, -0.6701692, -0.31579557, 9.6825532913208, 0.11792854964733124, -1.9463427066802979, -0.85533607006073, 1.173413872718811, -0.02109205722808838, 
64, 3420449565, 0.5543697, -0.37931153, -0.6700748, -0.3159067, 9.626462936401367, 0.044071391224861145, -1.989707112312317, -0.3518032133579254, 0.8998125195503235, 0.11302883923053741, 
65, 3420466232, 0.5543256, -0.3793948, -0.67000824, -0.31602514, 9.631176948547363, 0.03911297768354416, -1.9970972537994385, -0.6124700307846069, 0.42599040269851685, 0.05027772858738899, 
66, 3420482899, 0.55427045, -0.37954584, -0.66988117, -0.31620944, 9.667282104492188, 0.03918599337339401, -1.9736871719360352, -0.8950357437133789, 0.6443578004837036, 0.1593814194202423, 
67, 3420499566, 0.5541649, -0.3797713, -0.6696962, -0.3165157, 9.70412826538086, 0.04325336590409279, -1.9234212636947632, -1.6396993398666382, 0.8000959157943726, 0.008407369256019592, 
68, 3420516233, 0.554093, -0.3798712, -0.6695896, -0.31674743, 9.69013786315918, 0.059945009648799896, -1.9526846408843994, -1.7395118474960327, 0.7330225110054016, -0.19697444140911102, 
69, 3420532900, 0.5540176, -0.38006967, -0.6693875, -0.31706753, 9.683091163635254, 0.05649346485733986, -1.9249358177185059, -0.8878899216651917, 1.1079286336898804, -0.18579454720020294, 
70, 3420549567, 0.5539897, -0.38010964, -0.6692916, -0.317271, 9.6277437210083, 0.04062314331531525, -1.8991636037826538, -0.6623188257217407, 0.9613087177276611, -0.4079206585884094, 
71, 3420566234, 0.5540169, -0.38003328, -0.6692767, -0.3173465, 9.650394439697266, 0.06374477595090866, -1.8865432739257812, 0.10314873605966568, 0.8248377442359924, -0.4406408667564392, 
72, 3420582901, 0.55407876, -0.37988186, -0.66930103, -0.31736863, 9.681429862976074, 0.04635001718997955, -2.000091075897217, 1.0529701709747314, 0.8608236908912659, -0.654135525226593, 
73, 3420599568, 0.5540412, -0.37991408, -0.6692376, -0.31752914, 9.676126480102539, 0.004091724753379822, -1.9836145639419556, 0.708299994468689, 0.7149465084075928, -0.5979028940200806, 
74, 3420616235, 0.55414027, -0.37968525, -0.6693171, -0.3174624, 9.694794654846191, 0.042856909334659576, -1.9529396295547485, 1.5561953783035278, 0.7770316004753113, -0.6660325527191162, 
75, 3420632902, 0.55404496, -0.37979418, -0.6692263, -0.31768972, 9.665787696838379, 0.07799350470304489, -1.9375998973846436, 0.019459247589111328, 0.5759592056274414, -0.5853910446166992, 
76, 3420649569, 0.55399114, -0.37980294, -0.66919667, -0.3178356, 9.648958206176758, 0.07948120683431625, -1.9864615201950073, -0.10516573488712311, 0.5398579835891724, -0.5956488251686096, 
77, 3420666236, 0.5539707, -0.37982294, -0.6691515, -0.31794247, 9.687180519104004, 0.0805540680885315, -1.8848471641540527, 0.1556932032108307, 0.637391209602356, -0.29443082213401794, 
78, 3420682903, 0.55390036, -0.37997606, -0.6690033, -0.3181936, 9.669756889343262, 0.038717325776815414, -1.9327203035354614, -0.3187372386455536, 0.8902525901794434, -0.2638876438140869, 
79, 3420699570, 0.55387866, -0.3799931, -0.6689484, -0.3183265, 9.666081428527832, 4.1309406515210867E-4, -1.8797835111618042, 0.6253148913383484, 0.7483582496643066, -0.49693763256073, 
80, 3420716237, 0.55385745, -0.3799456, -0.66896796, -0.3183792, 9.658185005187988, 0.03269394114613533, -1.8768866062164307, 1.805381417274475, 0.4014342725276947, -0.7635785341262817, 
81, 3420732904, 0.5539755, -0.37963247, -0.6691492, -0.3181664, 9.687725067138672, 0.08674981445074081, -1.8715811967849731, 3.3212690353393555, 0.30507925152778625, -0.8291983604431152, 
82, 3420749571, 0.55398774, -0.3794679, -0.6692434, -0.31814322, 9.66160774230957, 0.06459313631057739, -1.9231030941009521, 1.8542699813842773, 0.31940317153930664, -0.9528436064720154, 
83, 3420766238, 0.5539252, -0.3794505, -0.66925436, -0.31824943, 9.724117279052734, 0.05134782940149307, -1.9347692728042603, 1.1309415102005005, 0.3185451328754425, -0.865696370601654, 
84, 3420782905, 0.5539484, -0.37937889, -0.6692492, -0.3183059, 9.701394081115723, 0.14259442687034607, -1.9044828414916992, 1.8284008502960205, 0.7673564553260803, -0.7107588052749634, 
85, 3420799572, 0.5539731, -0.37922838, -0.6692887, -0.31835887, 9.685551643371582, 0.23256294429302216, -1.9197511672973633, 0.9068240523338318, 0.7600760459899902, -0.919367790222168, 
86, 3420816239, 0.55393624, -0.3791818, -0.66924345, -0.3185736, 9.643964767456055, 0.2509070634841919, -1.9329993724822998, 0.381328284740448, 1.0040370225906372, -1.1338485479354858, 
87, 3420832906, 0.55377007, -0.37928638, -0.6691465, -0.31894168, 9.631771087646484, 0.22185148298740387, -1.8386189937591553, -0.19669273495674133, 0.689109742641449, -1.3716881275177002, 
88, 3420849573, 0.55368066, -0.3792168, -0.6691537, -0.3191643, 9.66466236114502, 0.21874737739562988, -1.915916919708252, -0.3377610743045807, 0.6312634348869324, -1.355379343032837, 
89, 3420866240, 0.553548, -0.37918797, -0.66914636, -0.31944367, 9.693862915039062, 0.20206359028816223, -1.8731091022491455, -1.0360208749771118, 0.5497189164161682, -1.4062011241912842, 
90, 3420882907, 0.55343384, -0.37923753, -0.6690659, -0.31975135, 9.6847562789917, 0.13531231880187988, -1.9554692506790161, -0.1679936945438385, 0.826387345790863, -1.1735866069793701, 
91, 3420899574, 0.553374, -0.3792896, -0.6689723, -0.3199884, 9.671670913696289, 0.09925159066915512, -1.9534845352172852, 0.8447708487510681, 0.948745608329773, -0.845949113368988, 
92, 3420916241, 0.5533631, -0.37931508, -0.66887516, -0.32018033, 9.657968521118164, 0.11456569284200668, -1.9014471769332886, 0.3915925621986389, 1.1285724639892578, -0.5164032578468323, 
93, 3420932908, 0.5533183, -0.37943724, -0.6687446, -0.32038552, 9.675850868225098, 0.08325909823179245, -1.8621563911437988, -0.24781566858291626, 0.924022912979126, -0.09982549399137497, 
94, 3420949575, 0.5533414, -0.37950757, -0.6686458, -0.3204687, 9.66323184967041, 0.11935266107320786, -1.8406097888946533, 0.5205396413803101, 0.9088537693023682, 0.23342131078243256, 
95, 3420966242, 0.5533908, -0.37962046, -0.6685065, -0.32054034, 9.686800003051758, 0.06359386444091797, -1.9500586986541748, 1.161177396774292, 1.0650016069412231, 0.49442753195762634, 
96, 3420982909, 0.55349445, -0.37963378, -0.66839767, -0.32057253, 9.687788009643555, 0.08557765185832977, -1.8825713396072388, 0.8014341592788696, 1.3117672204971313, 0.42994755506515503, 
97, 3420999576, 0.5536623, -0.37956345, -0.66832286, -0.32052186, 9.681238174438477, 0.14280696213245392, -1.8907358646392822, 1.3626914024353027, 1.4435635805130005, 0.4822038412094116, 
98, 3421016243, 0.55373615, -0.3795955, -0.66825086, -0.32050666, 9.676291465759277, 0.1576116383075714, -1.883041501045227, 1.547692060470581, 0.8808398842811584, 0.4268036186695099, 
99, 3421032910, 0.5538204, -0.37961927, -0.66816556, -0.3205109, 9.683168411254883, 0.1283474713563919, -1.9512012004852295, 2.0042002201080322, 1.0540586709976196, 0.28264254331588745, 
100, 3421049577, 0.5539811, -0.3795129, -0.6681656, -0.32035878, 9.665752410888672, 0.09185506403446198, -1.9784280061721802, 2.526564836502075, 0.9574795365333557, 0.4253372848033905, 
101, 3421066244, 0.554105, -0.37943053, -0.66815925, -0.32025555, 9.691049575805664, 0.14526847004890442, -1.900272011756897, 1.8737484216690063, 0.8951126933097839, 0.3248458802700043, 
102, 3421082911, 0.5542108, -0.37939695, -0.6681153, -0.3202039, 9.694950103759766, 0.18389368057250977, -1.8719687461853027, 1.259088158607483, 0.9867100715637207, 0.42664992809295654, 
103, 3421099578, 0.55430216, -0.3793867, -0.66804886, -0.32019642, 9.660880088806152, 0.19628261029720306, -1.8772974014282227, 1.042987585067749, 1.0730313062667847, 0.368438720703125, 
104, 3421116245, 0.5544054, -0.37937924, -0.6679715, -0.32018796, 9.673504829406738, 0.13370583951473236, -1.8881620168685913, 1.3273142576217651, 1.1663639545440674, 0.3957802653312683, 
105, 3421132912, 0.5545639, -0.37923947, -0.66799426, -0.32003137, 9.69987678527832, 0.0845111683011055, -1.8925915956497192, 2.212322950363159, 0.9403190612792969, 0.33523184061050415, 
106, 3421149579, 0.55470794, -0.3791679, -0.66796136, -0.31993502, 9.659635543823242, 0.056024957448244095, -1.9172375202178955, 2.271820545196533, 1.1049829721450806, 0.3971889317035675, 
107, 3421166246, 0.5547967, -0.37910974, -0.6679893, -0.3197917, 9.64376449584961, 0.04392508044838905, -1.9305273294448853, 2.3942177295684814, 0.4727400243282318, 0.3585842549800873, 
108, 3421182913, 0.55501664, -0.37886962, -0.6681285, -0.3194038, 9.667384147644043, 0.03888164833188057, -1.9655547142028809, 4.760639190673828, 0.42084869742393494, 0.456245481967926, 
109, 3421199580, 0.5551962, -0.37875023, -0.66819495, -0.31909412, 9.685763359069824, 0.04368520900607109, -1.879328966140747, 3.896153450012207, 0.46347466111183167, 0.7693159580230713, 
110, 3421216247, 0.5554305, -0.3785936, -0.6682435, -0.3187708, 9.694329261779785, 0.04389595240354538, -1.873995304107666, 4.416903972625732, 0.8332772254943848, 0.7753285765647888, 
111, 3421232914, 0.5557198, -0.37832838, -0.6683599, -0.3183367, 9.69530200958252, 0.04993157833814621, -1.9108985662460327, 5.366244792938232, 0.7772941589355469, 0.6880467534065247, 
112, 3421249581, 0.5559947, -0.3781086, -0.66844213, -0.31794494, 9.68604564666748, 0.09233088046312332, -1.8646619319915771, 5.916310787200928, 0.8641406297683716, 0.6049272418022156, 
113, 3421266248, 0.5562877, -0.37776956, -0.6686301, -0.31743965, 9.665696144104004, 0.11021298170089722, -1.884658932685852, 5.336656093597412, 0.5007859468460083, 0.5883173942565918, 
114, 3421282915, 0.55651563, -0.3774785, -0.66882944, -0.31696612, 9.676197052001953, 0.141651913523674, -1.8987525701522827, 5.246480464935303, 0.1418047398328781, 0.45061710476875305, 
115, 3421299582, 0.556734, -0.37718752, -0.6690079, -0.31655195, 9.675555229187012, 0.1364167332649231, -1.9073843955993652, 4.73452091217041, 0.33502697944641113, 0.29116520285606384, 
116, 3421316249, 0.5568794, -0.3770596, -0.6690655, -0.316327, 9.677858352661133, 0.14927047491073608, -1.8549225330352783, 3.9264402389526367, 0.6089547872543335, 0.2721477746963501, 
117, 3421332916, 0.55702746, -0.3768944, -0.66913795, -0.31610972, 9.690762519836426, 0.15669740736484528, -1.8968253135681152, 3.0346250534057617, 0.6625558137893677, 0.23295393586158752, 
118, 3421349583, 0.55720603, -0.37663227, -0.6692628, -0.31584308, 9.690067291259766, 0.17432428896427155, -1.9459148645401, 3.5245378017425537, 0.6881620287895203, -0.03329651057720184, 
119, 3421366250, 0.5573237, -0.37648457, -0.6692975, -0.31573787, 9.69776725769043, 0.1494797170162201, -1.8788760900497437, 3.0298924446105957, 0.9365411400794983, -0.20155270397663116, 
120, 3421382917, 0.55744135, -0.3763215, -0.66934335, -0.31562793, 9.67458724975586, 0.09111275523900986, -1.8289542198181152, 2.5663669109344482, 0.9148473143577576, -0.1747874617576599, 
121, 3421399584, 0.557562, -0.3761563, -0.669413, -0.31546363, 9.674360275268555, 0.13308502733707428, -1.8406275510787964, 2.907963275909424, 0.7020056843757629, -0.031471602618694305, 
122, 3421416251, 0.55771196, -0.37598988, -0.6694581, -0.3153011, 9.685758590698242, 0.10974503308534622, -1.9561408758163452, 2.8710811138153076, 0.939332902431488, 0.09889063984155655, 
123, 3421432918, 0.5577376, -0.37601972, -0.66940045, -0.31534258, 9.690910339355469, 0.0639604702591896, -1.903876543045044, 1.6282503604888916, 0.8759670853614807, 0.04045525938272476, 
124, 3421449585, 0.5578877, -0.37583902, -0.6694527, -0.315182, 9.675887107849121, 0.09399037063121796, -1.8969897031784058, 2.6155688762664795, 0.9613727331161499, 0.06590148061513901, 
125, 3421466252, 0.5579192, -0.37579748, -0.669429, -0.3152257, 9.686518669128418, 0.12540197372436523, -1.8405779600143433, 0.7342520952224731, 0.939217746257782, -0.1437705010175705, 
126, 3421482919, 0.5578782, -0.37583655, -0.66938174, -0.31535226, 9.702902793884277, 0.15649746358394623, -1.9104758501052856, 0.6700794696807861, 0.740744948387146, -0.33505895733833313, 
127, 3421499586, 0.5578265, -0.37582725, -0.6693666, -0.31548706, 9.691062927246094, 0.11321955919265747, -1.889808177947998, 0.35816794633865356, 0.6973184943199158, -0.6002527475357056, 
128, 3421516253, 0.5578823, -0.37569806, -0.6694004, -0.31547052, 9.663918495178223, 0.08436184376478195, -1.889247179031372, 1.829156517982483, 0.8780032992362976, -0.44811975955963135, 
129, 3421532920, 0.55782074, -0.37573433, -0.6693647, -0.3156118, 9.670927047729492, 0.1254066377878189, -1.8540524244308472, 0.17515885829925537, 0.6585600972175598, -0.3947557508945465, 
130, 3421549587, 0.557749, -0.3757961, -0.6693087, -0.3157837, 9.652833938598633, 0.056141048669815063, -1.8828612565994263, -0.660000741481781, 0.7135185599327087, -0.26696115732192993, 
131, 3421566254, 0.5577331, -0.37576848, -0.66934186, -0.31577438, 9.68025016784668, 0.07491041719913483, -1.8650290966033936, 1.0141092538833618, 0.36021703481674194, -0.12098799645900726, 
132, 3421582921, 0.5577238, -0.37576827, -0.6693347, -0.3158059, 9.6980562210083, 0.10715168714523315, -1.8711336851119995, 0.910493016242981, 0.596340537071228, -0.07770252972841263, 
133, 3421599588, 0.5576354, -0.375866, -0.66927195, -0.3159787, 9.683221817016602, 0.07800423353910446, -1.8530726432800293, -0.4663432240486145, 0.6004064679145813, -0.19018706679344177, 
134, 3421616255, 0.5575544, -0.37593794, -0.6692141, -0.31615835, 9.68437385559082, 0.11348771303892136, -1.8272185325622559, -0.4717666804790497, 0.6912611126899719, -0.3123660683631897, 
135, 3421632922, 0.5575404, -0.37592262, -0.66920525, -0.3162202, 9.673319816589355, 0.11887462437152863, -1.9101301431655884, 0.927115797996521, 0.6992395520210266, -0.27937692403793335, 
136, 3421649589, 0.5575242, -0.3758767, -0.6692165, -0.31627938, 9.674781799316406, 0.09415021538734436, -1.9153845310211182, 0.7355327010154724, 0.6751891374588013, -0.4049495756626129, 
137, 3421666256, 0.55748993, -0.3759343, -0.6691398, -0.31643382, 9.688065528869629, 0.040558576583862305, -1.9125977754592896, 0.42240461707115173, 0.9601175785064697, -0.2358737587928772, 
138, 3421682923, 0.5574761, -0.37595603, -0.6690889, -0.31654, 9.66664981842041, 0.04448019340634346, -1.8597571849822998, -0.2980037331581116, 0.9101985096931458, -0.030133336782455444, 
139, 3421699590, 0.55741626, -0.37610894, -0.6689741, -0.31670648, 9.65385913848877, 0.02738962136209011, -1.8901537656784058, -0.835300624370575, 0.8193374872207642, 0.318122535943985, 
140, 3421716257, 0.55735284, -0.3763403, -0.66880846, -0.31689307, 9.660429000854492, -0.033422037959098816, -1.915241003036499, -1.0453375577926636, 0.8850340843200684, 0.6680688858032227, 
141, 3421732924, 0.55731684, -0.37666097, -0.66858953, -0.3170373, 9.681929588317871, -0.02526487596333027, -1.863438606262207, 0.30062904953956604, 0.9264114499092102, 1.1621122360229492, 
142, 3421749591, 0.55741656, -0.3767669, -0.6684742, -0.3169793, 9.700630187988281, 0.010666389018297195, -1.8081016540527344, 1.0831865072250366, 1.0911264419555664, 1.2420364618301392, 
143, 3421766258, 0.5575383, -0.3767847, -0.66843903, -0.31681842, 9.703023910522461, 0.08909562230110168, -1.7628843784332275, 1.1346296072006226, 0.8065822720527649, 1.244405746459961, 
144, 3421782925, 0.55768305, -0.37679976, -0.6683947, -0.31663877, 9.69084358215332, 0.1103290393948555, -1.8963587284088135, 2.044316053390503, 0.9057418704032898, 1.2436373233795166, 
145, 3421799592, 0.55777526, -0.3767922, -0.6684053, -0.31646326, 9.687566757202148, 0.1607973277568817, -1.8883488178253174, 2.3287196159362793, 0.5190414190292358, 0.8281738758087158, 
146, 3421816259, 0.5577751, -0.37685376, -0.6683711, -0.3164623, 9.700299263000488, 0.17915287613868713, -1.8691579103469849, 1.274219036102295, 0.5749282240867615, 0.3402647078037262, 
147, 3421832926, 0.5577762, -0.3768574, -0.66836464, -0.3164695, 9.67181396484375, 0.15326151251792908, -1.886985421180725, 1.3335124254226685, 0.6236308813095093, 0.011871486902236938, 
148, 3421849593, 0.5577233, -0.3768681, -0.66836846, -0.31654197, 9.671502113342285, 0.15799829363822937, -1.8584641218185425, 0.9525362849235535, 0.4960154891014099, -0.35250118374824524, 
149, 3421866260, 0.5576734, -0.3768407, -0.6683703, -0.3166585, 9.672270774841309, 0.17220118641853333, -1.8770167827606201, 0.6178552508354187, 0.7159518003463745, -0.6298867464065552, 
150, 3421882927, 0.55756384, -0.37684917, -0.66835827, -0.3168668, 9.683858871459961, 0.11312320828437805, -1.8925411701202393, -0.6318461298942566, 0.6573371291160583, -0.8150792717933655, 
151, 3421899594, 0.55748063, -0.3768475, -0.6683398, -0.3170542, 9.670764923095703, 0.12126980721950531, -1.8619396686553955, 0.5057099461555481, 0.7795993685722351, -0.8695191144943237, 
152, 3421916261, 0.55743027, -0.37676713, -0.6684085, -0.31709364, 9.674368858337402, 0.13481669127941132, -1.8415483236312866, 1.250130295753479, 0.38558638095855713, -0.7246537208557129, 
153, 3421932928, 0.5573479, -0.37673554, -0.6684563, -0.31717482, 9.721091270446777, 0.16342152655124664, -1.8767274618148804, 1.0861194133758545, 0.3239366412162781, -0.7324016094207764, 
154, 3421949595, 0.55724347, -0.37675464, -0.6684672, -0.31731278, 9.686712265014648, 0.15840449929237366, -1.808570146560669, -0.11571817100048065, 0.4026252031326294, -0.5583824515342712, 
155, 3421966262, 0.5570538, -0.37699246, -0.6683302, -0.31765172, 9.717203140258789, 0.1897543966770172, -1.9245059490203857, -1.4489809274673462, 0.6242967844009399, -0.28866153955459595, 
156, 3421982929, 0.556828, -0.3772857, -0.66815144, -0.31807512, 9.680607795715332, 0.21488921344280243, -1.868223786354065, -2.857224941253662, 0.7190125584602356, -0.2128671556711197, 
157, 3421999596, 0.5566216, -0.37758508, -0.66796064, -0.3184816, 9.671727180480957, 0.17016707360744476, -1.9013266563415527, -2.8675341606140137, 0.7998783588409424, -0.01990107074379921, 
158, 3422016263, 0.556411, -0.3779092, -0.6677262, -0.31895643, 9.675557136535645, 0.11437252908945084, -1.9226399660110474, -3.288241386413574, 1.0754132270812988, -0.07483389973640442, 
159, 3422032930, 0.55617213, -0.37821856, -0.66751665, -0.3194451, 9.671181678771973, 0.06526201963424683, -1.9071578979492188, -3.7085976600646973, 0.924183189868927, -0.25317516922950745, 
160, 3422049597, 0.5559793, -0.37848657, -0.66731644, -0.31988117, 9.670793533325195, 0.04488207772374153, -1.9036340713500977, -2.9922869205474854, 1.060301661491394, -0.19617405533790588, 
161, 3422066264, 0.5557892, -0.37880167, -0.667056, -0.3203813, 9.672272682189941, 0.04081964120268822, -1.8574861288070679, -3.0828020572662354, 1.375171422958374, -0.1523379236459732, 
162, 3422082931, 0.55554444, -0.37923172, -0.6667456, -0.3209427, 9.696428298950195, 0.07471784204244614, -1.801176905632019, -3.720546245574951, 1.2262849807739258, 0.08858153969049454, 
163, 3422099598, 0.5553335, -0.37973067, -0.6663003, -0.32164153, 9.692329406738281, 0.04284818097949028, -1.9283519983291626, -4.614429473876953, 2.1030077934265137, 0.2679857015609741, 
164, 3422116265, 0.5551737, -0.38016257, -0.6658894, -0.32225737, 9.659804344177246, 0.0602768175303936, -1.891992449760437, -5.20993709564209, 2.1348185539245605, 0.5489314198493958, 
165, 3422132932, 0.5550394, -0.38052845, -0.6655335, -0.32279196, 9.712676048278809, 0.0738975927233696, -1.8333147764205933, -4.767643928527832, 1.97731351852417, 0.530182957649231, 
166, 3422149599, 0.5549024, -0.3809968, -0.6650404, -0.32349113, 9.706178665161133, 0.045762479305267334, -1.9139796495437622, -4.8442254066467285, 2.705111026763916, 0.4866413176059723, 
167, 3422166266, 0.5549185, -0.38128427, -0.66455966, -0.32411134, 9.654378890991211, -0.004273344296962023, -1.8914728164672852, -4.699117183685303, 3.5483453273773193, 0.4955289363861084, 
168, 3422182933, 0.5550352, -0.3815425, -0.6640361, -0.32468042, 9.666600227355957, 0.021907463669776917, -1.8488852977752686, -3.606889247894287, 4.112849235534668, 0.7867709398269653, 
169, 3422199600, 0.5551756, -0.38192442, -0.66333765, -0.32541823, 9.662466049194336, 0.02545700967311859, -1.8300044536590576, -4.40131950378418, 5.065629482269287, 1.082405686378479, 
170, 3422216267, 0.5553946, -0.3821632, -0.6627494, -0.32596242, 9.659793853759766, 0.019013170152902603, -1.7656450271606445, -3.9109249114990234, 4.806005954742432, 1.2836190462112427, 
171, 3422232934, 0.5556765, -0.38228527, -0.66232574, -0.32619968, 9.695047378540039, 0.029020989313721657, -1.753983736038208, -1.524000644683838, 3.920625925064087, 1.6259838342666626, 
172, 3422249601, 0.55598927, -0.38228384, -0.66211575, -0.3260948, 9.727702140808105, 0.03637273609638214, -1.8195929527282715, 1.7696903944015503, 2.6293036937713623, 1.7598423957824707, 
173, 3422266268, 0.5563543, -0.3820493, -0.6621315, -0.3257148, 9.703405380249023, 0.10338795930147171, -1.916454792022705, 4.5161333084106445, 1.8070652484893799, 1.2756531238555908, 
174, 3422282935, 0.5566996, -0.38164502, -0.66231805, -0.32521942, 9.662552833557129, 0.18578121066093445, -1.8896987438201904, 6.249422550201416, 1.1524947881698608, 0.41356831789016724, 
175, 3422299602, 0.5569433, -0.38123354, -0.6625726, -0.324766, 9.69129467010498, 0.28341764211654663, -1.8478410243988037, 6.4988017082214355, 0.5691015720367432, -0.26663467288017273, 
176, 3422316269, 0.5570522, -0.3808637, -0.6628534, -0.32443997, 9.680874824523926, 0.3215354382991791, -1.8300422430038452, 5.318990230560303, 0.10136227309703827, -0.8970529437065125, 
177, 3422332936, 0.55705374, -0.3805886, -0.66307217, -0.32431296, 9.705483436584473, 0.3058719038963318, -1.8548028469085693, 3.833312749862671, 0.16561174392700195, -1.3271158933639526, 
178, 3422349603, 0.5570477, -0.38028184, -0.66331077, -0.32419512, 9.704466819763184, 0.29306158423423767, -1.8280408382415771, 3.4563956260681152, 0.15395794808864594, -1.4834492206573486, 
179, 3422366270, 0.55702096, -0.3799818, -0.6635542, -0.32409462, 9.709397315979004, 0.2767498195171356, -1.737533688545227, 3.1818909645080566, 0.07440488785505295, -1.5488574504852295, 
180, 3422382937, 0.5568398, -0.37987292, -0.6636928, -0.3242498, 9.722328186035156, 0.22703935205936432, -1.797816514968872, 0.8552592396736145, 0.012947219423949718, -1.7503526210784912, 
181, 3422399604, 0.5566378, -0.3797945, -0.66379255, -0.32448423, 9.684615135192871, 0.2177463322877884, -1.820980429649353, 0.18785633146762848, 0.2100241333246231, -1.8417131900787354, 
182, 3422416271, 0.5564569, -0.37967822, -0.6639089, -0.32469252, 9.675379753112793, 0.20354613661766052, -1.8440593481063843, 0.5466774106025696, 0.26247894763946533, -1.9068206548690796, 
183, 3422432938, 0.5561935, -0.37964386, -0.6639944, -0.325009, 9.713987350463867, 0.17994815111160278, -1.8476142883300781, -0.0695640966296196, 0.1136755719780922, -2.126059055328369, 
184, 3422449605, 0.5559173, -0.37959865, -0.664092, -0.32533458, 9.680108070373535, 0.17845207452774048, -1.8755489587783813, -0.07770252972841263, 0.0614064484834671, -2.267998218536377, 
185, 3422466272, 0.55567527, -0.3794627, -0.66424525, -0.32559374, 9.684043884277344, 0.23020027577877045, -1.8361024856567383, 0.3894090950489044, 0.03722165524959564, -2.427802324295044, 
186, 3422482939, 0.5554653, -0.37924552, -0.66444165, -0.32580456, 9.710180282592773, 0.2860376536846161, -1.8309862613677979, 1.2410826683044434, 0.08016134798526764, -2.674055576324463, 
187, 3422499606, 0.55523217, -0.37896934, -0.6646927, -0.32601106, 9.68348503112793, 0.3103853464126587, -1.8102699518203735, 1.4670954942703247, -0.11035873740911484, -3.102421760559082, 
188, 3422516273, 0.5550505, -0.3785251, -0.6650467, -0.32611457, 9.691522598266602, 0.3312131464481354, -1.8168683052062988, 1.693511962890625, -0.17728473246097565, -3.417663097381592, 
189, 3422532940, 0.5548085, -0.37812102, -0.665386, -0.32630306, 9.69274616241455, 0.3351728022098541, -1.7869077920913696, 1.4614351987838745, -0.25469911098480225, -3.7300355434417725, 
190, 3422549607, 0.554454, -0.37783948, -0.6656599, -0.32667243, 9.696059226989746, 0.35627350211143494, -1.8205170631408691, 0.09407545626163483, -0.31826987862586975, -3.9901325702667236, 
191, 3422566274, 0.55407345, -0.3775834, -0.6658825, -0.32716033, 9.694260597229004, 0.3391730487346649, -1.8823612928390503, -0.6155564785003662, 0.012575836852192879, -4.260973930358887, 
192, 3422582941, 0.55369943, -0.37729335, -0.66610813, -0.32766843, 9.691472053527832, 0.3238600790500641, -1.8591331243515015, -0.5645232200622559, 0.16614960134029388, -4.478540897369385, 
193, 3422599608, 0.5533264, -0.37694213, -0.66640246, -0.32810408, 9.698939323425293, 0.3124101161956787, -1.8424173593521118, 0.11573099344968796, -0.13782836496829987, -4.648839950561523, 
194, 3422616275, 0.55295116, -0.37657633, -0.66672, -0.32851166, 9.69470500946045, 0.3182653784751892, -1.8399063348770142, 0.1885991394519806, -0.2783396244049072, -4.643589496612549, 
195, 3422632942, 0.55255103, -0.37627935, -0.66699684, -0.32896325, 9.690996170043945, 0.3031269311904907, -1.8196079730987549, -0.03200947493314743, -0.2641630172729492, -4.506932735443115, 
196, 3422649609, 0.5521347, -0.37608173, -0.6671832, -0.32950953, 9.692760467529297, 0.3096681237220764, -1.8286032676696777, -0.9276023507118225, 0.031522829085588455, -4.239363193511963, 
197, 3422666276, 0.55170196, -0.37595657, -0.66730726, -0.33012554, 9.696276664733887, 0.3441096842288971, -1.8423411846160889, -2.5297281742095947, 0.18530790507793427, -3.912327766418457, 
198, 3422682943, 0.5512289, -0.37599298, -0.66729903, -0.33088985, 9.70068073272705, 0.3584413528442383, -1.8942211866378784, -4.397963523864746, 0.5119210481643677, -3.454826831817627, 
199, 3422699610, 0.5505978, -0.3763411, -0.66712075, -0.33190277, 9.718998908996582, 0.33068782091140747, -1.8495886325836182, -6.144596099853516, 0.41961291432380676, -3.1084792613983154, 
200, 3422716277, 0.5499193, -0.37678877, -0.66684145, -0.33307928, 9.695815086364746, 0.2826005816459656, -1.885607123374939, -8.59219741821289, 0.7465718388557434, -2.958273410797119, 
201, 3422732944, 0.54926646, -0.37729257, -0.66650206, -0.33426315, 9.674539566040039, 0.2584082782268524, -1.8764482736587524, -8.532098770141602, 1.001764178276062, -2.5771572589874268, 
202, 3422749611, 0.54875106, -0.3776942, -0.6662003, -0.33525607, 9.685934066772461, 0.24381177127361298, -1.808440089225769, -7.209015369415283, 1.2129664421081543, -2.0506300926208496, 
203, 3422766278, 0.5483069, -0.37801242, -0.66595346, -0.33611354, 9.694024085998535, 0.20579983294010162, -1.8117929697036743, -6.1044416427612305, 1.1698986291885376, -1.8796648979187012, 
204, 3422782945, 0.5479381, -0.37826973, -0.66575354, -0.33682066, 9.686323165893555, 0.18272413313388824, -1.866512417793274, -4.253866672515869, 1.1158685684204102, -1.650745153427124, 
205, 3422799612, 0.5476921, -0.37831327, -0.6657361, -0.3372062, 9.691882133483887, 0.28002169728279114, -1.8566476106643677, -1.6973726749420166, 0.6301491856575012, -1.544144868850708, 
206, 3422816279, 0.5475301, -0.37830657, -0.6657798, -0.33739027, 9.639349937438965, 0.35119131207466125, -1.8551220893859863, 0.04113399609923363, 0.3929116129875183, -1.0290478467941284, 
207, 3422832946, 0.54741746, -0.37823835, -0.66588044, -0.337451, 9.667166709899902, 0.3973225951194763, -1.8621199131011963, 0.9481694102287292, 0.2245977520942688, -0.8555154800415039, 
208, 3422849613, 0.54733115, -0.37816426, -0.6659593, -0.33751822, 9.701170921325684, 0.44232478737831116, -1.9098519086837769, 0.7250058650970459, 0.44730016589164734, -0.7533911466598511, 
209, 3422866280, 0.5472309, -0.3781171, -0.6660286, -0.33759686, 9.669856071472168, 0.49189797043800354, -1.879393458366394, 0.6556339859962463, 0.3987385630607605, -0.7025883793830872, 
210, 3422882947, 0.5471358, -0.37805244, -0.666111, -0.33766103, 9.695792198181152, 0.49042272567749023, -1.8808064460754395, 0.5616480708122253, 0.36501938104629517, -0.7010259628295898, 
211, 3422899614, 0.5469577, -0.3780728, -0.66614735, -0.33785507, 9.688490867614746, 0.5014744997024536, -1.884365200996399, -0.07334835827350616, 0.33391273021698, -0.9683457016944885, 
212, 3422916281, 0.54682255, -0.37801173, -0.6662374, -0.33796453, 9.650683403015137, 0.5043224096298218, -1.8291239738464355, 0.9934462308883667, 0.315247505903244, -1.077526330947876, 
213, 3422932948, 0.54669917, -0.37794, -0.66631514, -0.338091, 9.672394752502441, 0.4867725670337677, -1.8795366287231445, 1.564340353012085, 0.5107492208480835, -1.2324830293655396, 
214, 3422949615, 0.54659456, -0.37779513, -0.66642916, -0.3381974, 9.689946174621582, 0.4582289457321167, -1.9079416990280151, 1.3322445154190063, 0.5433349609375, -1.417541265487671, 
215, 3422966282, 0.54650474, -0.3776133, -0.66657186, -0.33826464, 9.679445266723633, 0.4504636824131012, -1.9340546131134033, 1.7826695442199707, 0.49657905101776123, -1.4820597171783447, 
216, 3422982949, 0.54645306, -0.37736768, -0.66677135, -0.33822867, 9.661681175231934, 0.4401894211769104, -1.9148029088974, 2.7745537757873535, 0.3455217480659485, -1.4525988101959229, 
217, 3422999616, 0.54637176, -0.3771484, -0.6669316, -0.33828878, 9.688237190246582, 0.43291541934013367, -1.8818994760513306, 1.6081061363220215, 0.5193487405776978, -1.584702491760254, 
218, 3423016283, 0.5463098, -0.37693956, -0.6670588, -0.3383708, 9.692831039428711, 0.4841889441013336, -1.9077403545379639, 1.4063549041748047, 0.7667161822319031, -1.4842110872268677, 
219, 3423032950, 0.54626685, -0.3767683, -0.66715235, -0.33844656, 9.703478813171387, 0.4861554503440857, -1.8656026124954224, 1.8855557441711426, 0.9216859340667725, -1.2584736347198486, 
220, 3423049617, 0.5462285, -0.37658522, -0.6672746, -0.33847114, 9.696470260620117, 0.45616114139556885, -1.8664751052856445, 1.9026905298233032, 0.7109188437461853, -1.1241095066070557, 
221, 3423066284, 0.54617316, -0.37645325, -0.6673678, -0.33852345, 9.680112838745117, 0.4600776731967926, -1.886685848236084, 1.6926919221878052, 0.7095485329627991, -0.9979026913642883, 
222, 3423082951, 0.5461632, -0.3762938, -0.66747445, -0.33850646, 9.676673889160156, 0.46811094880104065, -1.911189317703247, 1.8887829780578613, 0.7289374470710754, -0.7295650243759155, 
223, 3423099618, 0.5462363, -0.3760468, -0.6676399, -0.33833683, 9.666436195373535, 0.47778981924057007, -1.8581633567810059, 2.2981762886047363, 0.640253484249115, -0.35608696937561035, 
224, 3423116285, 0.5462678, -0.3759208, -0.6677297, -0.33824873, 9.702829360961914, 0.4680161476135254, -1.8581444025039673, 1.9358654022216797, 0.7129486799240112, -0.13108579814434052, 
225, 3423132952, 0.5462571, -0.37589172, -0.6677539, -0.33825046, 9.694425582885742, 0.46132031083106995, -1.86184561252594, 1.5869885683059692, 0.8245368599891663, -0.06540203094482422, 
226, 3423149619, 0.5463217, -0.37577736, -0.6678181, -0.33814654, 9.669256210327148, 0.4631226062774658, -1.8606730699539185, 1.726654291152954, 0.8785666823387146, 0.1679808795452118, 
227, 3423166286, 0.5464059, -0.3756508, -0.66788113, -0.3380267, 9.66631031036377, 0.45772191882133484, -1.861074686050415, 2.106593370437622, 0.9708493947982788, 0.18368148803710938, 
228, 3423182953, 0.54649264, -0.37551928, -0.6679621, -0.33787256, 9.675424575805664, 0.47014138102531433, -1.8537774085998535, 2.6490063667297363, 0.8682705760002136, 0.19739708304405212, 
229, 3423199620, 0.54664433, -0.37531167, -0.6680889, -0.33760676, 9.687286376953125, 0.4759819209575653, -1.8445848226547241, 3.329087495803833, 0.8477162718772888, 0.36327770352363586, 
230, 3423216287, 0.54679894, -0.37513816, -0.6682134, -0.3373032, 9.708212852478027, 0.4540712535381317, -1.8811135292053223, 3.7872865200042725, 0.7309097051620483, 0.6063680052757263, 
231, 3423232954, 0.54696745, -0.37498087, -0.668334, -0.33696553, 9.697103500366211, 0.4434889853000641, -1.8613606691360474, 3.533233642578125, 0.6533159613609314, 0.9151930809020996, 
232, 3423249621, 0.5470544, -0.37497595, -0.66836905, -0.33676028, 9.684579849243164, 0.4393516480922699, -1.8779648542404175, 2.2642011642456055, 0.6139620542526245, 1.0944435596466064, 
233, 3423266288, 0.54717577, -0.37503633, -0.6683414, -0.33655027, 9.678173065185547, 0.448041170835495, -1.849876880645752, 2.3069167137145996, 0.8684177398681641, 1.597880244255066, 
234, 3423282955, 0.5473424, -0.37510765, -0.6683077, -0.33626685, 9.707115173339844, 0.4776923954486847, -1.800254464149475, 2.6049909591674805, 0.8944211006164551, 2.066906690597534, 
235, 3423299622, 0.5475316, -0.37513325, -0.6682991, -0.33594713, 9.696310997009277, 0.4689582586288452, -1.8269708156585693, 2.471714973449707, 0.8488433361053467, 2.0737576484680176, 
236, 3423316289, 0.5477647, -0.3751306, -0.6683137, -0.33554095, 9.70250129699707, 0.44826540350914, -1.8165185451507568, 3.555926561355591, 0.8433622121810913, 2.2435574531555176, 
237, 3423332956, 0.54797983, -0.37514836, -0.66834474, -0.33510774, 9.685013771057129, 0.42316532135009766, -1.788901448249817, 3.398446559906006, 0.5637354850769043, 2.3885250091552734, 
238, 3423349623, 0.5479914, -0.37535828, -0.6682517, -0.33503956, 9.720137596130371, 0.4319327473640442, -1.854219675064087, 0.011282391846179962, 0.5825735926628113, 1.7777900695800781, 
239, 3423366290, 0.5480358, -0.37550178, -0.6681682, -0.33497235, 9.64327621459961, 0.5477665066719055, -1.8614647388458252, 0.18754899501800537, 0.8380347490310669, 1.5494276285171509, 
240, 3423382957, 0.5480073, -0.3757502, -0.66801673, -0.33504233, 9.66653060913086, 0.5681989789009094, -1.7788631916046143, -0.5446860790252686, 0.9227486252784729, 1.4210950136184692, 
241, 3423399624, 0.547895, -0.37609172, -0.6678059, -0.33526343, 9.699913024902344, 0.51292884349823, -1.8047417402267456, -2.1148595809936523, 0.9189580082893372, 1.275486707687378, 
242, 3423416291, 0.5477452, -0.3764422, -0.6675731, -0.3355783, 9.686083793640137, 0.4335443675518036, -1.8309983015060425, -2.678467273712158, 1.0472009181976318, 0.9285628199577332, 
243, 3423432958, 0.54760504, -0.37668464, -0.6674109, -0.33585754, 9.674490928649902, 0.45087292790412903, -1.8296412229537964, -2.2098894119262695, 0.9557058811187744, 0.45419642329216003, 
244, 3423449625, 0.5474328, -0.37693366, -0.66723955, -0.3361989, 9.675273895263672, 0.43058276176452637, -1.7799609899520874, -2.370455265045166, 1.0180599689483643, 0.1661943942308426, 
245, 3423466292, 0.5472032, -0.37719423, -0.667071, -0.3366149, 9.68850040435791, 0.4052365720272064, -1.823193907737732, -2.9040579795837402, 0.9101603031158447, -0.20162318646907806, 
246, 3423482959, 0.5469693, -0.37745628, -0.66688395, -0.3370717, 9.70369815826416, 0.41702988743782043, -1.8458223342895508, -2.9481756687164307, 1.0722436904907227, -0.34592512249946594, 
247, 3423499626, 0.5467611, -0.37767732, -0.6667344, -0.3374575, 9.681833267211914, 0.41263821721076965, -1.8121697902679443, -2.3031582832336426, 0.9600344300270081, -0.30758291482925415, 
248, 3423516293, 0.54652077, -0.37790647, -0.6665887, -0.337878, 9.704917907714844, 0.384601891040802, -1.8482602834701538, -2.913694381713867, 0.8460515141487122, -0.4255230128765106, 
249, 3423532960, 0.54630893, -0.37812138, -0.66645736, -0.33823884, 9.698139190673828, 0.38789862394332886, -1.8295009136199951, -2.4407880306243896, 0.8023370504379272, -0.2481486201286316, 
250, 3423549627, 0.54616946, -0.37828952, -0.6663533, -0.3384811, 9.699378967285156, 0.401157021522522, -1.8113116025924683, -1.5062893629074097, 0.8246648907661438, 0.08481645584106445, 
251, 3423566294, 0.54612607, -0.37832734, -0.66633695, -0.3385411, 9.673826217651367, 0.3722831904888153, -1.8139739036560059, -0.18828535079956055, 0.7227519154548645, 0.23983728885650635, 
252, 3423582961, 0.54606146, -0.3783588, -0.66636026, -0.338564, 9.69078540802002, 0.3207607567310333, -1.8097254037857056, 0.17722706496715546, 0.41090452671051025, 0.1756262630224228, 
253, 3423599628, 0.5459456, -0.37846637, -0.6663549, -0.33864123, 9.701786041259766, 0.3408593237400055, -1.832337498664856, 0.3549663722515106, 0.3230017423629761, 0.11788245290517807, 
254, 3423616295, 0.5459126, -0.37843415, -0.66644275, -0.3385574, 9.678382873535156, 0.3794024884700775, -1.7945373058319092, 1.2155916690826416, 0.18939311802387238, 0.16731496155261993, 
255, 3423632962, 0.54589474, -0.37843025, -0.6665132, -0.33845195, 9.692705154418945, 0.35502952337265015, -1.7928155660629272, 1.4570937156677246, 0.22105039656162262, 0.41568130254745483, 
256, 3423649629, 0.5458715, -0.37844372, -0.6665947, -0.33831388, 9.688777923583984, 0.30203551054000854, -1.8014838695526123, 1.672125220298767, 0.03972529619932175, 0.5530166029930115, 
257, 3423666296, 0.54587764, -0.37839884, -0.666713, -0.33812097, 9.669302940368652, 0.31755438446998596, -1.842298984527588, 2.005051612854004, -0.004514237865805626, 0.5074644088745117, 
258, 3423682963, 0.5459245, -0.37825233, -0.6669207, -0.33779937, 9.686871528625488, 0.3757685124874115, -1.8148540258407593, 3.076936960220337, -0.26310649514198303, 0.41690436005592346, 
259, 3423699630, 0.5459905, -0.3780584, -0.6671691, -0.33741918, 9.693537712097168, 0.43083456158638, -1.8297942876815796, 3.4932069778442383, -0.3890056610107422, 0.3851061165332794, 
260, 3423716297, 0.5460323, -0.3779087, -0.66739637, -0.3370695, 9.688100814819336, 0.4527759850025177, -1.7882840633392334, 3.501300811767578, -0.4088939130306244, 0.3998974859714508, 
261, 3423732964, 0.54605556, -0.3777722, -0.6676167, -0.33674812, 9.690935134887695, 0.4720178544521332, -1.7654976844787598, 3.1878719329833984, -0.43089526891708374, 0.34479817748069763, 
262, 3423749631, 0.5460311, -0.37768483, -0.6677959, -0.3365309, 9.71214771270752, 0.4705883264541626, -1.812867522239685, 2.648237466812134, -0.31086769700050354, 0.11863801628351212, 
263, 3423766298, 0.5460677, -0.37747777, -0.66804594, -0.33620742, 9.695236206054688, 0.5000901222229004, -1.7832555770874023, 2.8418056964874268, -0.37249186635017395, 0.11142803728580475, 
264, 3423782965, 0.54601353, -0.37741664, -0.66821086, -0.3360359, 9.69049072265625, 0.5134717226028442, -1.8309658765792847, 2.264137029647827, -0.3387087285518646, 0.03507659211754799, 
265, 3423799632, 0.5459196, -0.37739933, -0.6683634, -0.33590493, 9.672381401062012, 0.5230819582939148, -1.8457956314086914, 1.776573657989502, -0.4714081287384033, 0.02919847145676613, 
266, 3423816299, 0.5457997, -0.37740168, -0.6685149, -0.3357953, 9.66133975982666, 0.5116350650787354, -1.8493961095809937, 1.4535014629364014, -0.5895530581474304, -0.0011653777910396457, 
267, 3423832966, 0.5456949, -0.37737513, -0.6686821, -0.3356625, 9.68088150024414, 0.5003396272659302, -1.8381799459457397, 1.2081509828567505, -0.6114327311515808, 0.0455906055867672, 
268, 3423849633, 0.54554224, -0.37745932, -0.6687758, -0.33562958, 9.682241439819336, 0.47399407625198364, -1.8419864177703857, 0.4903039038181305, -0.5186764001846313, 0.18464195728302002, 
269, 3423866300, 0.5454052, -0.37754682, -0.66885895, -0.33558807, 9.687254905700684, 0.44165802001953125, -1.8244163990020752, 0.41346579790115356, -0.44304201006889343, 0.3195568323135376, 
270, 3423882967, 0.54532963, -0.37749547, -0.6690486, -0.33539066, 9.670022010803223, 0.4489225745201111, -1.8013378381729126, 1.109734296798706, -0.712308406829834, 0.2963389456272125, 
271, 3423899634, 0.54518056, -0.3775844, -0.66916806, -0.33529475, 9.68766975402832, 0.40981197357177734, -1.8024085760116577, 1.2096110582351685, -0.7458098530769348, 0.31955686211586, 
272, 3423916301, 0.5450141, -0.37767237, -0.66929346, -0.3352158, 9.683350563049316, 0.4045772850513458, -1.8578565120697021, 0.5853654742240906, -0.856059730052948, 0.2880275845527649, 
273, 3423932968, 0.5448368, -0.37780547, -0.6693852, -0.3351708, 9.682745933532715, 0.4222271740436554, -1.8644555807113647, 0.606860876083374, -0.7559715509414673, 0.3487745225429535, 
274, 3423949635, 0.5446841, -0.37792188, -0.6694781, -0.33510235, 9.671976089477539, 0.4201296865940094, -1.8588138818740845, 0.5321678519248962, -0.6889687180519104, 0.4692758321762085, 
275, 3423966302, 0.54450107, -0.37804958, -0.6695799, -0.33505213, 9.675759315490723, 0.41889068484306335, -1.8729698657989502, 0.24871210753917694, -0.8615855574607849, 0.37499552965164185, 
276, 3423982969, 0.54429686, -0.37823185, -0.6696603, -0.33501762, 9.66101360321045, 0.43574538826942444, -1.8889398574829102, 0.5393906831741333, -0.9060236215591431, 0.45538103580474854, 
277, 3423999636, 0.54415137, -0.37829322, -0.66981184, -0.3348817, 9.64732837677002, 0.415463387966156, -1.8719885349273682, 0.9287037253379822, -0.9561540484428406, 0.38225677609443665, 
278, 3424016303, 0.54393435, -0.37846363, -0.6699066, -0.33485213, 9.674951553344727, 0.3897790312767029, -1.8593188524246216, 0.5052361488342285, -0.9809470772743225, 0.3245897591114044, 
279, 3424032970, 0.5437576, -0.37859526, -0.67001873, -0.33476612, 9.662357330322266, 0.37102970480918884, -1.8704367876052856, 0.4739886224269867, -0.97093266248703, 0.5105635523796082, 
280, 3424049637, 0.54358363, -0.37875196, -0.67012626, -0.3346564, 9.660913467407227, 0.3272302448749542, -1.894673466682434, 0.45344725251197815, -1.064291000366211, 0.7368005514144897, 
281, 3424066304, 0.5434396, -0.37889943, -0.6702603, -0.33445477, 9.66156005859375, 0.28410813212394714, -1.9087169170379639, 0.8812944889068604, -1.2631734609603882, 1.0629140138626099, 
282, 3424082971, 0.5433269, -0.37905413, -0.67038906, -0.33420417, 9.674582481384277, 0.2482730597257614, -1.918863296508789, 1.572619915008545, -1.2062238454818726, 1.2839902639389038, 
283, 3424099638, 0.5432324, -0.37917367, -0.6705893, -0.33382052, 9.67414379119873, 0.32250502705574036, -1.9420340061187744, 2.724973201751709, -1.6348392963409424, 1.4307637214660645, 
284, 3424116305, 0.54315406, -0.37924662, -0.67081195, -0.33341703, 9.680841445922852, 0.3638932406902313, -1.8810337781906128, 2.381340503692627, -1.652870774269104, 1.3963147401809692, 
285, 3424132972, 0.5429715, -0.37942058, -0.67098933, -0.33315974, 9.652098655700684, 0.3922234773635864, -1.8911160230636597, 1.420326590538025, -1.7801017761230469, 1.1063789129257202, 
286, 3424149639, 0.542818, -0.37951657, -0.671188, -0.33290008, 9.64950942993164, 0.36416134238243103, -1.9074804782867432, 1.7403125762939453, -1.5701866149902344, 0.7872382998466492, 
287, 3424166306, 0.54264367, -0.37955666, -0.671443, -0.33262405, 9.656558990478516, 0.3790019154548645, -1.8886431455612183, 2.0476839542388916, -1.7864280939102173, 0.4024523198604584, 
288, 3424182973, 0.5424344, -0.37957588, -0.67171925, -0.33238584, 9.656952857971191, 0.3897389769554138, -1.8875598907470703, 2.677884340286255, -1.8211653232574463, -0.11929113417863846, 
289, 3424199640, 0.542173, -0.37951308, -0.67206925, -0.33217674, 9.675745964050293, 0.38411107659339905, -1.8858751058578491, 2.7239232063293457, -2.084611177444458, -0.8880755305290222, 
290, 3424216307, 0.5419183, -0.37936735, -0.672464, -0.33195966, 9.680853843688965, 0.4176897406578064, -1.9053889513015747, 3.0868685245513916, -2.0691158771514893, -1.3263219594955444, 
291, 3424232974, 0.5416886, -0.37916875, -0.67287636, -0.33172578, 9.743355751037598, 0.4916546940803528, -1.8883113861083984, 3.2353198528289795, -1.9637451171875, -1.4484176635742188, 
292, 3424249641, 0.5414583, -0.37894118, -0.67327744, -0.331548, 9.76040267944336, 0.634874165058136, -1.8883768320083618, 2.802887439727783, -1.7443594932556152, -1.7118440866470337, 
293, 3424266308, 0.5411342, -0.3788205, -0.673593, -0.33157414, 9.747422218322754, 0.7039117217063904, -1.907620906829834, 1.2773758172988892, -1.5449965000152588, -2.008791208267212, 
294, 3424282975, 0.540739, -0.37872887, -0.6738712, -0.3317579, 9.699670791625977, 0.7352927327156067, -1.9075218439102173, -0.15873470902442932, -1.4277158975601196, -2.449636936187744, 
295, 3424299642, 0.5401892, -0.37882385, -0.67404395, -0.3321945, 9.659185409545898, 0.7344491481781006, -1.9386601448059082, -2.2247893810272217, -1.4877328872680664, -2.682629346847534, 
296, 3424316309, 0.53955257, -0.37907434, -0.6741032, -0.33282226, 9.629681587219238, 0.6217998266220093, -1.9550120830535889, -4.0857062339782715, -1.3160382509231567, -2.58311128616333, 
297, 3424332976, 0.5389014, -0.37937558, -0.67414504, -0.33344853, 9.62283706665039, 0.5355544686317444, -2.000183582305908, -4.595822334289551, -1.4690743684768677, -2.2709438800811768, 
298, 3424349643, 0.53826964, -0.37975085, -0.67416835, -0.3339941, 9.63448715209961, 0.44529053568840027, -1.9946467876434326, -4.539345741271973, -1.6868972778320312, -1.5244359970092773, 
299, 3424366310, 0.5376223, -0.38028786, -0.6741158, -0.33453184, 9.590975761413574, 0.31031349301338196, -1.9812560081481934, -5.160351276397705, -1.8607947826385498, -0.6153131723403931, 
300, 3424382977, 0.5369959, -0.38090476, -0.6740389, -0.3349908, 9.640565872192383, 0.2765609622001648, -2.054213047027588, -5.402506351470947, -2.0983269214630127, 0.21750305593013763, 
301, 3424399644, 0.5364118, -0.38154605, -0.6739933, -0.33528802, 9.616339683532715, 0.34290769696235657, -2.020961284637451, -4.0702104568481445, -2.4495410919189453, 0.8325536251068115, 
302, 3424416311, 0.5358718, -0.38216794, -0.6739717, -0.33548656, 9.595527648925781, 0.3247807025909424, -1.9505082368850708, -3.1127750873565674, -2.5308802127838135, 1.0844095945358276, 
303, 3424432978, 0.5354048, -0.38270235, -0.673997, -0.3355723, 9.599702835083008, 0.30123481154441833, -1.943751335144043, -2.638594627380371, -2.5122344493865967, 1.277580738067627, 
304, 3424449645, 0.5349605, -0.38317168, -0.67410415, -0.33553004, 9.619067192077637, 0.35138028860092163, -2.0670340061187744, -1.6750515699386597, -2.918138265609741, 1.3044291734695435, 
305, 3424466312, 0.5345858, -0.3834882, -0.6743021, -0.33536816, 9.601593971252441, 0.32493120431900024, -2.0198490619659424, -0.40640315413475037, -2.9162557125091553, 1.008051872253418, 
306, 3424482979, 0.53425115, -0.38385376, -0.6744134, -0.33525905, 9.556380271911621, 0.22181762754917145, -1.9302207231521606, -0.3217979371547699, -2.328552722930908, 1.2208869457244873, 
307, 3424499646, 0.5339404, -0.38424152, -0.67451954, -0.33509657, 9.546175956726074, 0.1708613485097885, -1.9760034084320068, 0.05293504521250725, -2.377934217453003, 1.5447722673416138, 
308, 3424516313, 0.5337266, -0.38453373, -0.67472106, -0.33469597, 9.612578392028809, 0.1276329904794693, -2.0895135402679443, 1.3317580223083496, -2.755497455596924, 2.085271120071411, 
309, 3424532980, 0.53363436, -0.38479015, -0.6749704, -0.33404505, 9.677389144897461, 0.09737516939640045, -2.099428415298462, 3.388214588165283, -2.914168357849121, 2.904531478881836, 
310, 3424549647, 0.533606, -0.38488123, -0.67541796, -0.33307934, 9.61651611328125, 0.31778934597969055, -2.1555304527282715, 5.72011137008667, -3.8347153663635254, 2.986211061477661, 
311, 3424566314, 0.53352004, -0.38495502, -0.6759177, -0.33211693, 9.590243339538574, 0.4461289644241333, -2.147467613220215, 5.967785835266113, -4.224910736083984, 2.5668795108795166, 
312, 3424582981, 0.5335154, -0.38488847, -0.67648387, -0.33104688, 9.557989120483398, 0.5764641165733337, -2.0743026733398438, 7.539445400238037, -4.0347819328308105, 2.275099515914917, 
313, 3424599648, 0.5334243, -0.3849395, -0.67697376, -0.33013165, 9.651912689208984, 0.6640559434890747, -2.107837677001953, 6.561577796936035, -3.967759847640991, 2.126481771469116, 
314, 3424616315, 0.5331885, -0.3851627, -0.6773495, -0.3294806, 9.638138771057129, 0.5582760572433472, -2.1885645389556885, 3.9365060329437256, -3.9305319786071777, 1.9697450399398804, 
315, 3424632982, 0.53298193, -0.38534558, -0.6777631, -0.3287496, 9.581815719604492, 0.2603355646133423, -2.16170334815979, 4.122953414916992, -4.095752239227295, 2.1655025482177734, 
316, 3424649649, 0.53280216, -0.38555554, -0.67820644, -0.32787952, 9.6068754196167, 0.266924649477005, -2.244845151901245, 4.860177040100098, -4.504389762878418, 2.7640843391418457, 
317, 3424666316, 0.53245926, -0.38595268, -0.6785964, -0.32716173, 9.611116409301758, 0.4182279706001282, -2.2705180644989014, 2.629899740219116, -5.113582611083984, 2.922332525253296, 
318, 3424682983, 0.53205836, -0.38663003, -0.67878145, -0.3266301, 9.476106643676758, 0.3927862346172333, -2.1326682567596436, 0.18693430721759796, -4.759819507598877, 3.942537546157837, 
319, 3424699650, 0.5316768, -0.3874494, -0.678877, -0.32608128, 9.581247329711914, 0.2898145616054535, -2.039675235748291, 0.4848996698856354, -4.638242244720459, 4.724685192108154, 
320, 3424716317, 0.53139985, -0.3882642, -0.67889124, -0.3255331, 9.757644653320312, 0.22792664170265198, -1.942089319229126, -0.282591313123703, -3.9182372093200684, 5.375760078430176, 
321, 3424732984, 0.53115535, -0.38918385, -0.67888486, -0.32484654, 9.60084056854248, 0.12644129991531372, -1.9639874696731567, 0.3493444621562958, -4.277994155883789, 6.407594203948975, 
322, 3424749651, 0.5311149, -0.38987416, -0.67905664, -0.3237241, 9.570189476013184, 0.1654944121837616, -2.108910322189331, 3.792550563812256, -4.670726776123047, 7.002655029296875, 
323, 3424766318, 0.53125036, -0.39029795, -0.6793593, -0.3223534, 9.507915496826172, 0.09827905893325806, -2.1707096099853516, 6.744287490844727, -4.4004364013671875, 6.683764457702637, 
324, 3424782985, 0.5313207, -0.3905685, -0.6798608, -0.32084894, 9.390077590942383, -0.17079026997089386, -2.2925610542297363, 8.172977447509766, -5.453656196594238, 5.780263423919678, 
325, 3424799652, 0.53161883, -0.39046326, -0.68056357, -0.31898785, 9.380180358886719, -0.40016627311706543, -2.498723268508911, 12.270706176757812, -5.2472710609436035, 5.271148681640625, 
326, 3424816319, 0.53196853, -0.3901524, -0.68147326, -0.31683573, 9.541997909545898, -0.39402130246162415, -2.702432870864868, 15.036859512329102, -6.084360599517822, 4.895718574523926, 
327, 3424832986, 0.5322993, -0.3898563, -0.682309, -0.31484017, 9.540461540222168, -0.23331806063652039, -2.885664224624634, 14.110174179077148, -5.502066612243652, 4.510630130767822, 
328, 3424849653, 0.53238326, -0.38970363, -0.6830679, -0.31323707, 9.492461204528809, -0.21769988536834717, -2.767883539199829, 11.328783988952637, -5.604029178619385, 3.2923476696014404, 
329, 3424866320, 0.5324143, -0.3895002, -0.6838356, -0.31175885, 9.597577095031738, -0.47141334414482117, -2.9150216579437256, 11.092416763305664, -5.417747974395752, 2.364757537841797, 
330, 3424882987, 0.5324719, -0.3892385, -0.6846148, -0.31027386, 9.610506057739258, -0.48116573691368103, -2.758634567260742, 11.196564674377441, -5.2242889404296875, 2.185769557952881, 
331, 3424899654, 0.5328163, -0.38874865, -0.6854245, -0.308504, 9.55576229095459, -0.36618927121162415, -2.7787482738494873, 14.077032089233398, -4.255034446716309, 2.6951749324798584, 
332, 3424916321, 0.5331316, -0.38840526, -0.68612343, -0.3068337, 9.366633415222168, -0.23828986287117004, -2.702179431915283, 12.702139854431152, -4.027580261230469, 3.2587828636169434, 
333, 3424932988, 0.53348565, -0.3880754, -0.68683285, -0.3050429, 9.378584861755371, -0.05823009833693504, -2.669093370437622, 13.19920539855957, -4.234428882598877, 3.855494976043701, 
334, 3424949655, 0.533742, -0.38789278, -0.68741894, -0.3035026, 9.389540672302246, 0.22160036861896515, -2.718202829360962, 11.043547630310059, -3.8727638721466064, 3.7196314334869385, 
335, 3424966322, 0.5337225, -0.38794294, -0.68781686, -0.30257002, 9.536625862121582, 0.39988505840301514, -2.6645989418029785, 6.297087669372559, -3.340594530105591, 2.484137773513794, 
336, 3424982989, 0.53359133, -0.3881031, -0.68797624, -0.30223384, 9.47640609741211, 0.3449874818325043, -2.5018677711486816, 2.073962688446045, -1.6382330656051636, 1.2990760803222656, 
337, 3424999656, 0.53331125, -0.38836932, -0.6879605, -0.30242145, 9.411398887634277, -0.003203587606549263, -2.6417040824890137, -1.5284441709518433, -0.5247465968132019, 0.04086506366729736, 
338, 3425016323, 0.5329252, -0.38856056, -0.6880324, -0.30269283, 9.376072883605957, -0.2436099350452423, -2.6761269569396973, -1.3476184606552124, -0.9467156529426575, -1.2129724025726318, 
339, 3425032990, 0.53263426, -0.38830206, -0.68847317, -0.30253452, 9.394308090209961, -0.2031969428062439, -2.712731122970581, 2.9673593044281006, -2.0723042488098145, -2.4269635677337646, 
340, 3425049657, 0.53228146, -0.38781035, -0.68907136, -0.30242395, 9.27453327178955, -0.20561529695987701, -2.7225255966186523, 3.855333089828491, -2.3232131004333496, -4.292842864990234, 
341, 3425066324, 0.53189385, -0.38700742, -0.6898643, -0.3023267, 9.353184700012207, -0.22465118765830994, -2.6528477668762207, 4.97489595413208, -2.515103340148926, -6.339079856872559, 
342, 3425082991, 0.53145015, -0.38593256, -0.6908785, -0.30216512, 9.3914155960083, -0.1066218838095665, -2.574791431427002, 7.445437431335449, -3.171603202819824, -8.380537986755371, 
343, 3425099658, 0.53080255, -0.38473168, -0.69204926, -0.3021557, 9.343291282653809, -0.16237033903598785, -2.492110013961792, 6.398261070251465, -4.054230213165283, -10.219095230102539, 
344, 3425116325, 0.53001887, -0.38348603, -0.6932928, -0.3022648, 9.366275787353516, -0.45586490631103516, -2.3939387798309326, 5.722329139709473, -4.570596218109131, -11.306995391845703, 
345, 3425132992, 0.52944493, -0.38222057, -0.69443023, -0.30226192, 9.723311424255371, -0.6096192598342896, -2.3637185096740723, 6.639712333679199, -3.4405879974365234, -10.298931121826172, 
346, 3425149659, 0.52907705, -0.3810869, -0.6953884, -0.3021349, 9.66369915008545, -0.2810147702693939, -2.1678073406219482, 7.339667797088623, -2.405872344970703, -8.455632209777832, 
347, 3425166326, 0.5284882, -0.3806273, -0.6958719, -0.30263087, 9.407914161682129, -0.33362510800361633, -2.136554718017578, 0.2405417114496231, -1.5118218660354614, -6.7197041511535645, 
348, 3425182993, 0.52778876, -0.38075536, -0.695932, -0.30355063, 9.310066223144531, -0.7100633382797241, -2.3702030181884766, -4.845443248748779, -0.6214474439620972, -4.6601738929748535, 
349, 3425199660, 0.5272753, -0.38108227, -0.6957938, -0.30434832, 9.55966854095459, -0.985849916934967, -2.4103543758392334, -5.262315273284912, 0.23580332100391388, -2.2633111476898193, 
350, 3425216327, 0.52700293, -0.38159677, -0.69549185, -0.30486563, 9.454974174499512, -0.9997660517692566, -2.4806694984436035, -3.9854257106781006, 0.858556866645813, 0.45406830310821533, 
351, 3425232994, 0.5270277, -0.38235816, -0.69496024, -0.305081, 9.40649127960205, -0.8687571883201599, -2.4573512077331543, -3.2994091510772705, 1.7929404973983765, 3.972324848175049, 
352, 3425249661, 0.52711314, -0.38405713, -0.6936579, -0.3057626, 9.239971160888672, -1.0338629484176636, -2.388828754425049, -10.621037483215332, 4.122175216674805, 8.975324630737305, 
353, 3425266328, 0.5270675, -0.3871689, -0.6912591, -0.3073458, 8.897892951965332, -1.450228214263916, -1.819361686706543, -21.73670196533203, 6.908646106719971, 14.707348823547363, 
354, 3425282995, 0.52682346, -0.391708, -0.6879073, -0.30952474, 8.545247077941895, -1.9101128578186035, -0.9849423170089722, -33.0497932434082, 7.950662136077881, 21.66965675354004, 
355, 3425299662, 0.52680737, -0.39711672, -0.683779, -0.3117992, 8.456253051757812, -2.4172534942626953, -1.159593105316162, -37.05138397216797, 10.226449966430664, 27.771120071411133, 
356, 3425316329, 0.5270824, -0.40274754, -0.6793038, -0.31388727, 8.222419738769531, -2.824117660522461, -1.3137681484222412, -37.212406158447266, 11.838382720947266, 31.061288833618164, 
357, 3425332996, 0.5275352, -0.40837196, -0.67465943, -0.3158696, 8.214561462402344, -2.5819146633148193, -0.5928416848182678, -37.08414077758789, 12.980889320373535, 32.337276458740234, 
358, 3425349663, 0.5290716, -0.41299653, -0.6701269, -0.31693393, 8.120769500732422, -2.0270700454711914, -0.6262714862823486, -25.276119232177734, 17.145967483520508, 32.88553237915039, 
359, 3425366330, 0.53118545, -0.4172074, -0.665109, -0.3184496, 8.043451309204102, -1.5717239379882812, -0.7528394460678101, -25.530534744262695, 23.7315673828125, 31.930950164794922, 
360, 3425382997, 0.53341144, -0.42133412, -0.6597046, -0.32053062, 8.26148796081543, -1.6512153148651123, 0.03274349123239517, -28.064048767089844, 27.421220779418945, 30.759572982788086, 
361, 3425399664, 0.53676003, -0.42533502, -0.65313077, -0.32310835, 8.994352340698242, -1.045548915863037, -0.48425939679145813, -29.05477523803711, 38.462581634521484, 34.16695785522461, 
362, 3425416331, 0.5402825, -0.429624, -0.64587337, -0.32613784, 8.579123497009277, -0.6237106919288635, -2.2585206031799316, -32.8814697265625, 42.39198303222656, 36.13307189941406, 
363, 3425432998, 0.5430973, -0.4338307, -0.6385153, -0.33035523, 8.005582809448242, -0.7828760147094727, -2.5797088146209717, -39.974769592285156, 43.313636779785156, 30.04817771911621, 
364, 3425449665, 0.5453626, -0.43657547, -0.63252205, -0.334511, 7.915136337280273, -1.689055323600769, -1.604946494102478, -33.01818084716797, 38.97233200073242, 18.62020492553711, 
365, 3425466332, 0.5478409, -0.43755832, -0.6283235, -0.33707964, 7.884576797485352, -1.9266798496246338, -2.5276436805725098, -14.794614791870117, 32.462989807128906, 11.994575500488281, 
366, 3425482999, 0.5506954, -0.437211, -0.62563145, -0.33788568, 7.897555828094482, -1.3204401731491089, -3.9239935874938965, 2.763925313949585, 26.196985244750977, 9.129775047302246, 
367, 3425499666, 0.55349505, -0.43519917, -0.624507, -0.3379881, 7.705307960510254, -0.26871082186698914, -3.4704275131225586, 15.24993896484375, 21.848222732543945, -0.12025833129882812, 
368, 3425516333, 0.5547414, -0.43249217, -0.6246495, -0.3391542, 7.756796836853027, -0.1764681041240692, -4.2254838943481445, 11.389745712280273, 15.217994689941406, -14.465217590332031, 
369, 3425533000, 0.55385286, -0.43043584, -0.62529236, -0.34202588, 8.04141616821289, -1.2507647275924683, -3.5300889015197754, -3.991396427154541, 7.792643070220947, -24.51123809814453, 
370, 3425549667, 0.55246335, -0.42860407, -0.6255435, -0.34608987, 8.077271461486816, -2.6963727474212646, -2.9408020973205566, -12.532832145690918, 10.19973087310791, -28.07254981994629, 
371, 3425566334, 0.55084056, -0.42663833, -0.62630695, -0.34970558, 8.88951301574707, -4.042608737945557, -2.0991220474243164, -9.588294982910156, 6.29225492477417, -29.05146598815918, 
372, 3425583001, 0.55003726, -0.4245221, -0.6264864, -0.3532066, 9.869156837463379, -4.85789680480957, -1.2714383602142334, -7.461200714111328, 12.074695587158203, -25.672447204589844, 
373, 3425599668, 0.55127215, -0.42200035, -0.6259342, -0.35527647, 10.461438179016113, -4.944530010223389, -1.3308285474777222, 4.371252536773682, 20.42308807373047, -15.016690254211426, 
374, 3425616335, 0.5546842, -0.41950053, -0.6241972, -0.35598147, 10.85319995880127, -5.1104841232299805, -1.0570584535598755, 13.558762550354004, 30.259742736816406, -1.0893956422805786, 
375, 3425633002, 0.5601546, -0.41832352, -0.62049097, -0.35527918, 10.75056266784668, -5.6078901290893555, -0.33264055848121643, 15.673249244689941, 39.28639602661133, 20.569538116455078, 
376, 3425649669, 0.56832665, -0.41978258, -0.6139144, -0.35198972, 12.073836326599121, -6.428558826446533, 0.16213612258434296, 17.413238525390625, 47.94289016723633, 56.513668060302734, 
377, 3425666336, 0.5800774, -0.42345065, -0.6044875, -0.34466597, 13.485526084899902, -6.033018112182617, 0.43709397315979004, 29.257259368896484, 57.135345458984375, 98.37146759033203, 
378, 3425683003, 0.5952137, -0.42807475, -0.5935186, -0.33197686, 14.404607772827148, -2.5373599529266357, -0.4063859283924103, 53.918251037597656, 59.39606475830078, 136.16766357421875, 
379, 3425699670, 0.61171806, -0.43291184, -0.58167815, -0.31628948, 14.799445152282715, 1.7053802013397217, -1.9425417184829712, 67.3413314819336, 59.16822814941406, 154.9981231689453, 
380, 3425716337, 0.6250464, -0.4405691, -0.56896245, -0.30248597, 15.035717010498047, 3.2299981117248535, -3.2873377799987793, 36.62617111206055, 49.59581756591797, 154.16085815429688, 
381, 3425733004, 0.63137144, -0.45452684, -0.5562401, -0.29218602, 16.767148971557617, 0.5617538690567017, -3.6310863494873047, -25.39879035949707, 19.776411056518555, 149.36488342285156, 
382, 3425749671, 0.6317927, -0.4730539, -0.5443535, -0.28414318, 18.13093376159668, -2.3571488857269287, -2.0595226287841797, -70.62854766845703, -8.496577262878418, 142.68719482421875, 
383, 3425766338, 0.6312857, -0.49214002, -0.5327743, -0.2746417, 16.621614456176758, -4.664816856384277, -0.5159157514572144, -69.99405670166016, -19.1240291595459, 148.37335205078125, 
384, 3425783005, 0.6331198, -0.50789475, -0.52247393, -0.26119596, 14.628418922424316, -5.153335094451904, -0.7473346590995789, -30.733068466186523, -23.184467315673828, 153.40643310546875, 
385, 3425799672, 0.6395553, -0.5168729, -0.5141191, -0.2439121, 12.744939804077148, -3.6289725303649902, -0.498036652803421, 32.15060043334961, -16.405502319335938, 147.2498321533203, 
386, 3425816339, 0.64801097, -0.5218637, -0.5067638, -0.22567865, 11.028154373168945, -2.367670774459839, -0.3999499976634979, 61.876502990722656, -10.391437530517578, 137.2120819091797, 
387, 3425833006, 0.6573904, -0.52392507, -0.500269, -0.20753671, 10.034553527832031, -1.8487741947174072, -0.6195510029792786, 79.24833679199219, -6.178804397583008, 125.0107650756836, 
388, 3425849673, 0.66727364, -0.5234641, -0.4944941, -0.19028097, 9.04794979095459, -1.3033140897750854, -0.6325905323028564, 90.44552612304688, -0.9526494741439819, 110.53123474121094, 
389, 3425866340, 0.67734736, -0.5206201, -0.4897207, -0.17415217, 8.052823066711426, -0.5606477856636047, -0.12586182355880737, 99.51310729980469, 2.2585878372192383, 93.99192810058594, 
390, 3425883007, 0.68646646, -0.5168948, -0.48571903, -0.16018912, 7.057922840118408, 0.21517890691757202, 0.34501320123672485, 93.72828674316406, 4.2898383140563965, 77.1285400390625, 
391, 3425899674, 0.6932798, -0.51388997, -0.4827121, -0.14922929, 6.057526111602783, 0.6153377890586853, 0.14435850083827972, 73.13987731933594, 1.78029203414917, 59.383323669433594, 
392, 3425916341, 0.6978938, -0.5111643, -0.48144224, -0.1409565, 5.125492095947266, 0.8233000636100769, 0.10026970505714417, 56.87448501586914, -4.59197998046875, 39.19934844970703, 
393, 3425933008, 0.69908464, -0.5103908, -0.48181918, -0.13650015, 4.856020450592041, 1.5172938108444214, -0.7301522493362427, 24.26369285583496, -12.180912971496582, 18.324840545654297, 
394, 3425949675, 0.6963409, -0.5129499, -0.48284817, -0.13729396, 4.324275016784668, 2.4060232639312744, -1.3385319709777832, -22.356155395507812, -13.022980690002441, -1.7596031427383423, 
395, 3425966342, 0.6894732, -0.51812816, -0.4857035, -0.14234549, 4.138988971710205, 2.8882946968078613, -0.9078609347343445, -61.82978439331055, -22.894569396972656, -23.684019088745117, 
396, 3425983009, 0.6809145, -0.5230295, -0.49006703, -0.15043275, 4.632158279418945, 1.3347954750061035, -0.0014919782988727093, -75.26019287109375, -24.537761688232422, -45.92234420776367, 
397, 3425999676, 0.67364234, -0.52485, -0.4949651, -0.16046329, 4.939602851867676, -1.5132862329483032, 0.9164064526557922, -62.193031311035156, -12.54305648803711, -65.90967559814453, 
398, 3426016343, 0.6657432, -0.52607715, -0.50003135, -0.17319837, 4.18405294418335, -3.015974283218384, -0.32368576526641846, -70.67652893066406, -5.108157157897949, -81.72561645507812, 
399, 3426033010, 0.6574514, -0.5254298, -0.50699186, -0.1861205, 4.17575740814209, -2.6998002529144287, -2.016629934310913, -61.94112014770508, -12.19377326965332, -96.35137939453125, 
400, 3426049677, 0.65230834, -0.51942307, -0.51551604, -0.19732435, 5.400445938110352, -1.6833059787750244, -0.960997462272644, -18.27632713317871, -7.636774063110352, -108.89383697509766, 
401, 3426066344, 0.64998937, -0.50928503, -0.52430815, -0.20795114, 6.887309551239014, -1.761389136314392, 0.14534708857536316, 12.805153846740723, 4.699804782867432, -118.0566635131836, 
402, 3426083011, 0.64723295, -0.49853727, -0.53359467, -0.21869364, 8.066864967346191, -2.5176265239715576, 0.0829477608203888, 14.43312931060791, 2.1049914360046387, -123.10731506347656, 
403, 3426099678, 0.6433227, -0.48836136, -0.5432617, -0.22914208, 9.104689598083496, -2.964642286300659, -0.2001577913761139, 9.604455947875977, -5.700494289398193, -122.7187728881836, 
404, 3426116345, 0.6373515, -0.48106578, -0.5520838, -0.239922, 9.180479049682617, -2.604417324066162, 0.40450188517570496, -12.643552780151367, -13.07435131072998, -113.81867218017578, 
405, 3426133012, 0.6285666, -0.4780522, -0.55929714, -0.25210506, 8.87300968170166, -3.2349298000335693, -0.029648777097463608, -48.65636444091797, -19.155555725097656, -103.02218627929688, 
406, 3426149679, 0.6193146, -0.4760425, -0.5664268, -0.26266688, 8.860151290893555, -4.256236553192139, -0.7157343626022339, -48.43697738647461, -27.665809631347656, -92.69839477539062, 
407, 3426166346, 0.6124257, -0.47294185, -0.5731672, -0.26970384, 8.591233253479004, -4.492314338684082, -0.9017229676246643, -23.02075958251953, -26.36915397644043, -76.4303970336914, 
408, 3426183013, 0.60598963, -0.47055426, -0.5792571, -0.27534816, 8.319591522216797, -4.279146194458008, -0.6559290885925293, -20.294946670532227, -27.680932998657227, -64.84275817871094, 
409, 3426199680, 0.59821683, -0.470609, -0.58371854, -0.28273028, 10.51097583770752, -5.969789981842041, -0.8734145164489746, -44.80101013183594, -25.22149658203125, -59.66581344604492, 
410, 3426216347, 0.58846956, -0.47169304, -0.5902508, -0.28777337, 12.363119125366211, -8.315471649169922, -2.273145914077759, -42.468788146972656, -51.10078430175781, -56.464107513427734, 
411, 3426233014, 0.5863639, -0.46530592, -0.5988912, -0.28460035, 14.322604179382324, -3.635542631149292, 1.7058813571929932, 50.04035568237305, -40.4737663269043, -45.366905212402344, 
412, 3426249681, 0.5854092, -0.4637304, -0.6009591, -0.28477812, 12.856818199157715, -2.1961092948913574, 0.9540236592292786, 7.651393890380859, -8.009926795959473, -15.793610572814941, 
413, 3426266348, 0.5838148, -0.46620584, -0.60240626, -0.2809259, 10.301030158996582, -4.596911430358887, -5.0281662940979, 4.733567237854004, -28.993165969848633, 17.902456283569336, 
414, 3426283015, 0.5869555, -0.4634738, -0.60606855, -0.27084392, 10.342999458312988, 1.3853652477264404, -2.557103157043457, 70.89828491210938, -28.11977767944336, 23.3393611907959, 
415, 3426299682, 0.58409405, -0.46654296, -0.6069001, -0.26989657, 11.555743217468262, 4.0738301277160645, -3.3617916107177734, -14.959648132324219, -23.384584426879883, 8.56291389465332, 
416, 3426316349, 0.57667005, -0.4737999, -0.6050333, -0.27730846, 19.127098083496094, -2.951556444168091, -4.109933376312256, -86.27385711669922, -12.518678665161133, -7.21429967880249, 
417, 3426333016, 0.5742718, -0.47907594, -0.6019993, -0.27981263, 19.623157501220703, -11.265090942382812, -5.2345781326293945, -43.850074768066406, 0.8142596483230591, 17.41363525390625, 
418, 3426349683, 0.57836497, -0.47799942, -0.6021888, -0.2727258, 11.65827751159668, -6.228775978088379, -2.6496803760528564, 48.492679595947266, -4.390650749206543, 30.726572036743164, 
419, 3426366350, 0.58312136, -0.47428906, -0.60474277, -0.2632598, 11.49618148803711, 2.4857587814331055, -2.9583940505981445, 75.41917419433594, -13.921642303466797, 22.686063766479492, 
420, 3426383017, 0.58521914, -0.4709307, -0.60676944, -0.25994942, 11.629803657531738, 5.898051738739014, -3.5502452850341797, 38.810611724853516, -3.410407304763794, -3.5247554779052734, 
421, 3426399684, 0.58498645, -0.46783188, -0.6078444, -0.2635325, 9.538496017456055, 3.0952401161193848, -3.693647861480713, -0.20334643125534058, 12.57939338684082, -31.099090576171875, 
422, 3426416351, 0.5827945, -0.46541402, -0.60919297, -0.2694893, 10.187214851379395, -0.9794817566871643, -2.7429027557373047, -18.64552879333496, 9.729802131652832, -42.1323127746582, 
423, 3426433018, 0.58055604, -0.4637921, -0.6100124, -0.2752028, 11.00796890258789, -2.3082401752471924, -2.2487168312072754, -21.941436767578125, 9.414432525634766, -36.193180084228516, 
424, 3426449685, 0.5760545, -0.4647426, -0.61071104, -0.28143826, 10.967082023620605, -1.8472071886062622, -2.73750376701355, -41.84654235839844, -2.7964537143707275, -31.38355255126953, 
425, 3426466352, 0.5711094, -0.46533707, -0.6117108, -0.28828013, 10.258480072021484, -2.7643072605133057, -2.780118465423584, -43.8167724609375, -3.215935707092285, -37.093963623046875, 
426, 3426483019, 0.56813765, -0.4629348, -0.6142469, -0.2925949, 8.781641960144043, -4.516453742980957, -2.257458209991455, -12.066072463989258, -3.0835132598876953, -40.79634094238281, 
427, 3426499686, 0.56735605, -0.4579274, -0.61813253, -0.29380572, 7.2243242263793945, -4.483661651611328, -1.5412811040878296, 20.891504287719727, -3.7343385219573975, -39.61967468261719, 
428, 3426516353, 0.5674495, -0.45268127, -0.6217212, -0.29418275, 6.3617072105407715, -4.1193389892578125, -1.2485936880111694, 27.507801055908203, -0.9984344840049744, -34.74446487426758, 
429, 3426533020, 0.5678063, -0.44839373, -0.62451077, -0.29415232, 7.1282172203063965, -3.629441261291504, -0.7871965765953064, 24.69793701171875, 0.03611407056450844, -26.097646713256836, 
430, 3426549687, 0.56755936, -0.4462064, -0.6256889, -0.29544848, 8.013775825500488, -3.19861102104187, -0.4930228590965271, 5.6709794998168945, 3.5640885829925537, -18.561052322387695, 
431, 3426566354, 0.5669002, -0.44543183, -0.62591463, -0.2973981, 7.885257244110107, -3.158905029296875, -0.035048335790634155, -5.861527442932129, 4.621212482452393, -12.987101554870605, 
432, 3426583021, 0.5671651, -0.44459495, -0.6260242, -0.2979145, 7.512787342071533, -2.3445982933044434, 0.008288704790174961, 3.130730390548706, 4.760454177856445, -5.461671829223633, 
433, 3426599688, 0.56772333, -0.44426292, -0.6255923, -0.29825336, 7.07611083984375, -1.4249019622802734, -0.7384124398231506, 1.7077268362045288, 6.529804229736328, -0.36437270045280457, 
434, 3426616355, 0.5682044, -0.444023, -0.6250096, -0.29891542, 7.059365272521973, -1.6326394081115723, -1.4327750205993652, -0.5905713438987732, 7.574214458465576, -0.9346011281013489, 
435, 3426633022, 0.5676822, -0.44550884, -0.6228198, -0.30224898, 7.488675117492676, -2.9050827026367188, -0.8103991746902466, -25.17848777770996, 14.151480674743652, -1.1227679252624512, 
436, 3426649689, 0.5668998, -0.44846514, -0.61897933, -0.30719417, 6.701601982116699, -4.060959815979004, -0.3746682405471802, -42.05461883544922, 21.35049057006836, 3.3664443492889404, 
437, 3426666356, 0.567077, -0.45222494, -0.613852, -0.31161195, 5.486450672149658, -4.887328624725342, -0.8514994978904724, -42.710079193115234, 27.11231803894043, 14.78213119506836, 
438, 3426683023, 0.5682811, -0.45663974, -0.60798514, -0.31446916, 5.422207832336426, -4.448147296905518, -0.38358810544013977, -37.07907485961914, 28.07383155822754, 28.058259963989258, 
439, 3426699690, 0.57093924, -0.46020582, -0.60196793, -0.31602788, 5.858370304107666, -4.848883152008057, -1.8008509874343872, -24.103694915771484, 32.487342834472656, 33.13682556152344, 
440, 3426716357, 0.575, -0.46164155, -0.5974432, -0.31515703, 7.10690975189209, -4.856131553649902, -2.1557836532592773, 1.9904016256332397, 29.391714096069336, 32.11317443847656, 
441, 3426733024, 0.5797249, -0.46194857, -0.5932496, -0.31397054, 8.03107738494873, -3.9912607669830322, -2.5317695140838623, 10.570907592773438, 32.270263671875, 29.049972534179688, 
442, 3426749691, 0.5853453, -0.46117312, -0.5897112, -0.31133786, 8.61954402923584, -5.0357584953308105, -2.61447811126709, 25.044845581054688, 31.075946807861328, 30.20627212524414, 
443, 3426766358, 0.5927638, -0.45998868, -0.5855215, -0.30693066, 10.252242088317871, -5.811079978942871, -2.7130401134490967, 38.19363784790039, 36.255672454833984, 41.54510498046875, 
444, 3426783025, 0.6022702, -0.45879364, -0.58031356, -0.30002558, 11.87731647491455, -5.560534477233887, -2.170182704925537, 52.75286102294922, 40.950138092041016, 59.24264907836914, 
445, 3426799692, 0.6125408, -0.46012336, -0.5729845, -0.29115146, 12.676644325256348, -5.012933731079102, -1.7612924575805664, 48.197757720947266, 41.367828369140625, 85.68697357177734, 
446, 3426816359, 0.62451303, -0.4626883, -0.5637149, -0.2795153, 13.433600425720215, -4.579296588897705, -1.9720814228057861, 55.387420654296875, 45.034549713134766, 111.69927215576172, 
447, 3426833026, 0.6380899, -0.4652657, -0.5532679, -0.26507378, 14.224444389343262, -2.2001516819000244, -1.6054149866104126, 69.06869506835938, 47.365028381347656, 130.6102752685547, 
448, 3426849693, 0.6508672, -0.46826172, -0.5430059, -0.24949491, 15.189193725585938, -0.5314105749130249, -2.6340208053588867, 69.3575210571289, 39.10939025878906, 135.18014526367188, 
449, 3426866360, 0.6601959, -0.47325784, -0.53405815, -0.23441488, 16.85382843017578, -1.1217917203903198, -3.4097108840942383, 49.71879577636719, 18.547025680541992, 130.34442138671875, 
450, 3426883027, 0.66486895, -0.48128906, -0.5269621, -0.22050254, 17.972232818603516, -1.895119547843933, -2.5973925590515137, 19.515037536621094, -8.00374698638916, 122.74635314941406, 
451, 3426899694, 0.66632867, -0.49194837, -0.52034384, -0.20793153, 16.499963760375977, -1.336658000946045, 0.08881533145904541, -7.245948791503906, -21.34432601928711, 119.77838897705078, 
452, 3426916361, 0.665441, -0.5045369, -0.51346767, -0.19743818, 14.96866512298584, -1.484907865524292, 1.2893385887145996, -31.819549560546875, -24.30276870727539, 114.78277587890625, 
453, 3426933028, 0.66329813, -0.5165274, -0.50766176, -0.18845338, 12.850088119506836, -3.267171859741211, 0.25156310200691223, -37.31388854980469, -27.616796493530273, 100.45022583007812, 
454, 3426949695, 0.66362154, -0.5234968, -0.50348127, -0.17906499, 11.133686065673828, -3.7177021503448486, -0.36302581429481506, -2.140578031539917, -21.363079071044922, 82.2452621459961, 
455, 3426966362, 0.6673385, -0.52513057, -0.50008553, -0.16974115, 9.280806541442871, -2.4927704334259033, -0.26397499442100525, 35.16572570800781, -6.404598236083984, 64.87409973144531, 
456, 3426983029, 0.6730913, -0.52305186, -0.49748495, -0.16085298, 7.90199613571167, -1.7560244798660278, -0.267167866230011, 58.982364654541016, 2.8446574211120605, 49.65971374511719, 
457, 3426999696, 0.67953724, -0.51857406, -0.49571466, -0.153549, 7.2944159507751465, -1.2368229627609253, -0.036467719823122025, 68.07984924316406, 9.719625473022461, 31.945695877075195, 
458, 3427016363, 0.6851556, -0.5122925, -0.49638462, -0.14737928, 6.421921253204346, -0.7185635566711426, 0.3835557997226715, 72.26741790771484, 1.4410102367401123, 10.971214294433594, 
459, 3427033030, 0.6885185, -0.5056101, -0.49976605, -0.14329946, 6.417038917541504, -0.34547778964042664, 0.16945591568946838, 61.82295227050781, -11.269051551818848, -12.032027244567871, 
460, 3427049697, 0.68909657, -0.50020313, -0.50468117, -0.14226615, 6.602376461029053, 0.550114095211029, -0.4968165457248688, 37.14406967163086, -18.765769958496094, -30.09583282470703, 
461, 3427066364, 0.68603384, -0.4984116, -0.5095197, -0.14605871, 5.933747291564941, 2.529179811477661, -0.5915493369102478, -9.32181167602539, -17.9693546295166, -43.64811325073242, 
462, 3427083031, 0.67939967, -0.49923375, -0.51533574, -0.15365827, 5.680328369140625, 3.74579119682312, 0.32641589641571045, -46.23850631713867, -24.665210723876953, -59.299068450927734, 
463, 3427099698, 0.66905266, -0.5027241, -0.52148986, -0.16638935, 5.388443470001221, 3.6060585975646973, 0.36439573764801025, -89.27557373046875, -24.61798858642578, -78.798828125, 
464, 3427116365, 0.65711504, -0.50534755, -0.52890784, -0.18188028, 5.688099384307861, -0.3140151798725128, -1.1435773372650146, -99.23626708984375, -25.626291275024414, -100.69904327392578, 
465, 3427133032, 0.64925754, -0.50349504, -0.5348308, -0.19726498, 5.142439842224121, -3.0931849479675293, -0.2208726704120636, -66.31364440917969, 1.1960893869400024, -106.15728759765625, 
466, 3427149699, 0.64251846, -0.4995792, -0.54156417, -0.21047339, 5.110223770141602, -4.255739212036133, -0.26873448491096497, -44.13420486450195, -3.0548713207244873, -105.32767486572266, 
467, 3427166366, 0.6376266, -0.49153066, -0.5508394, -0.22001377, 6.916383266448975, -4.459788799285889, 0.05602245777845383, -2.2037813663482666, -14.028786659240723, -110.6003646850586, 
468, 3427183033, 0.63470936, -0.4802695, -0.56088215, -0.22780846, 8.66586685180664, -3.824922800064087, 0.31955888867378235, 26.31647491455078, -10.963626861572266, -114.74950408935547, 
469, 3427199700, 0.63182235, -0.4693665, -0.5700866, -0.23557778, 8.77562427520752, -3.4319376945495605, -0.4055848717689514, 23.629552841186523, -7.845542907714844, -110.4521484375, 
470, 3427216367, 0.6273861, -0.46145153, -0.5783165, -0.24289772, 8.314107894897461, -3.6684410572052, -0.39080625772476196, 5.826854705810547, -15.978590965270996, -96.15974426269531, 
471, 3427233034, 0.62121624, -0.4578197, -0.58438337, -0.25097358, 7.9981689453125, -3.9367902278900146, 0.43378448486328125, -24.771242141723633, -18.303117752075195, -78.43981170654297, 
472, 3427249701, 0.6151729, -0.45549563, -0.5897734, -0.2573976, 7.357112407684326, -3.735250234603882, 0.10111422091722488, -24.496257781982422, -22.382427215576172, -63.8072395324707, 
473, 3427266368, 0.6115328, -0.4505861, -0.5969146, -0.2582497, 7.347822189331055, -2.1232311725616455, -0.3728759288787842, 19.653324127197266, -32.93339157104492, -51.985897064208984, 
474, 3427283035, 0.6087723, -0.44515428, -0.6036322, -0.25857753, 9.159141540527344, -1.8465983867645264, -0.4644855558872223, 25.974740982055664, -28.24390983581543, -49.058998107910156, 
475, 3427299702, 0.6013429, -0.44645843, -0.6072002, -0.26527235, 11.533611297607422, -4.490045547485352, -0.8041913509368896, -48.532901763916016, -26.937686920166016, -46.410606384277344, 
476, 3427316369, 0.5915154, -0.45041132, -0.61081135, -0.2723026, 14.18524169921875, -6.147400379180908, -1.9627214670181274, -68.17084503173828, -40.94710922241211, -41.277896881103516, 
477, 3427333036, 0.5878351, -0.45040575, -0.61397594, -0.27316353, 12.079449653625488, -1.9787803888320923, 2.932774305343628, -7.967968940734863, -25.014476776123047, -19.968740463256836, 
478, 3427349703, 0.5833846, -0.45635176, -0.6124918, -0.27615154, 9.530097007751465, -3.616380453109741, -4.523804187774658, -52.12332534790039, -14.14410400390625, 9.510250091552734, 
479, 3427366370, 0.5823794, -0.45713776, -0.61519927, -0.27090472, 12.407526969909668, -4.667984962463379, -5.642438888549805, 22.022125244140625, -32.44606399536133, 14.173154830932617, 
480, 3427383037, 0.5804888, -0.45840994, -0.61671734, -0.26935717, 12.31233024597168, -0.7780168652534485, -2.2281861305236816, -0.5681738257408142, -20.655580520629883, 3.470564842224121, 
481, 3427399704, 0.57627434, -0.46353236, -0.61592996, -0.27143323, 14.784950256347656, -3.2298834323883057, -3.0656635761260986, -42.888450622558594, -17.021480560302734, 8.321002960205078, 
482, 3427416371, 0.5733107, -0.47052526, -0.6122043, -0.27409258, 20.720218658447266, -9.77769947052002, -4.4488525390625, -54.26589584350586, -1.7141066789627075, 25.62590789794922, 
483, 3427433038, 0.5780224, -0.46994096, -0.6106932, -0.2685136, 12.940030097961426, -7.721925258636475, -2.2918434143066406, 39.264949798583984, 9.492208480834961, 33.42240905761719, 
484, 3427449705, 0.58355343, -0.46746337, -0.6110743, -0.2598688, 11.236510276794434, 2.2539725303649902, -3.4082560539245605, 65.7879638671875, -1.0015203952789307, 32.98409652709961, 
485, 3427466372, 0.5861333, -0.4659889, -0.61151683, -0.25563562, 11.00047492980957, 5.550007343292236, -5.421170711517334, 33.868614196777344, -1.2399613857269287, 14.09607982635498, 
486, 3427483039, 0.5860643, -0.46481127, -0.6119332, -0.25693774, 9.308511734008789, 3.6237125396728516, -3.867516040802002, 0.8983148336410522, 4.992379188537598, -11.417475700378418, 
487, 3427499706, 0.58393854, -0.4639367, -0.61307, -0.26062182, 8.798574447631836, 0.4559618830680847, -3.8649649620056152, -15.62390422821045, 0.5424018502235413, -25.594318389892578, 
488, 3427516373, 0.58081, -0.46391046, -0.61433655, -0.26464614, 10.33244514465332, -1.9160516262054443, -3.43084716796875, -23.42139434814453, -4.610401630401611, -25.561307907104492, 
489, 3427533040, 0.5767728, -0.46473783, -0.61582, -0.26854756, 12.624688148498535, -2.7575843334198, -2.5590946674346924, -28.810871124267578, -11.242900848388672, -23.805484771728516, 
490, 3427549707, 0.57350254, -0.46445328, -0.6174865, -0.27219212, 10.508469581604004, -1.782195806503296, -2.4839847087860107, -20.52677345275879, -7.491149425506592, -26.66703224182129, 
491, 3427566374, 0.5706916, -0.46239108, -0.6203509, -0.2750828, 8.458369255065918, -2.0247974395751953, -2.510951042175293, -6.607972145080566, -9.34261417388916, -34.20391082763672, 
492, 3427583041, 0.5686023, -0.45844287, -0.6244519, -0.27673346, 8.402962684631348, -2.3489251136779785, -1.8268258571624756, 10.712132453918457, -11.48083209991455, -39.9576530456543, 
493, 3427599708, 0.5673416, -0.45376942, -0.62824106, -0.2784422, 8.40499496459961, -2.4630329608917236, -1.3488808870315552, 15.311040878295898, -5.140074253082275, -40.75470733642578, 
494, 3427616375, 0.5662976, -0.44963464, -0.63126373, -0.28043175, 8.489893913269043, -2.876312732696533, -0.7358790040016174, 11.200349807739258, -1.3750057220458984, -36.734580993652344, 
495, 3427633042, 0.56532013, -0.44634366, -0.6333475, -0.28295162, 8.806386947631836, -3.2578423023223877, -0.33131417632102966, 3.999732255935669, 2.5671958923339844, -32.13129425048828, 
496, 3427649709, 0.56423867, -0.44405967, -0.6343361, -0.2864672, 8.301590919494629, -3.4402966499328613, -0.0730905532836914, -6.70971155166626, 7.4451751708984375, -28.48619842529297, 
497, 3427666376, 0.56378514, -0.44217947, -0.6344527, -0.28998923, 7.658768653869629, -3.2574455738067627, -0.33356034755706787, -8.114194869995117, 12.7664794921875, -22.884937286376953, 
498, 3427683043, 0.5645617, -0.43992954, -0.63438785, -0.29203492, 7.32444429397583, -3.1836445331573486, -1.3826580047607422, 3.126176118850708, 15.06542682647705, -15.803592681884766, 
499, 3427699710, 0.56603295, -0.43778378, -0.63408154, -0.29307464, 7.270236492156982, -2.807410955429077, -1.1917967796325684, 8.718023300170898, 15.777790069580078, -9.35235595703125, 
500, 3427716377, 0.5674323, -0.4368058, -0.6327854, -0.29462546, 7.437755107879639, -2.382209539413452, -0.86786949634552, -0.2724490165710449, 18.498695373535156, -3.4440865516662598, 
501, 3427733044, 0.5683956, -0.43730202, -0.63032115, -0.29730242, 7.51709508895874, -2.5683181285858154, -0.8827437162399292, -14.604082107543945, 21.545082092285156, 1.1799157857894897, 
502, 3427749711, 0.5695018, -0.4388852, -0.6265065, -0.3008939, 7.102137088775635, -3.322641611099243, -1.340653419494629, -25.1513729095459, 27.960233688354492, 6.646337509155273, 
503, 3427766378, 0.57106614, -0.44085047, -0.6218617, -0.304668, 6.356410980224609, -3.9485316276550293, -1.4172494411468506, -27.776288986206055, 32.944000244140625, 10.99452018737793, 
504, 3427783045, 0.57313365, -0.44243172, -0.6173286, -0.30769733, 5.853460788726807, -4.245091438293457, -1.8697164058685303, -21.33237648010254, 33.205928802490234, 12.950153350830078, 
505, 3427799712, 0.57501036, -0.4442058, -0.6131601, -0.3099665, 5.902700424194336, -4.714548110961914, -1.77145254611969, -18.68270492553711, 28.250473022460938, 15.203248023986816, 
506, 3427816379, 0.57781893, -0.44526052, -0.6097323, -0.30999216, 6.474179267883301, -5.013227462768555, -2.204603433609009, -1.9628043174743652, 23.94198226928711, 20.71073341369629, 
507, 3427833046, 0.58184665, -0.44572422, -0.60642725, -0.30826998, 7.456655979156494, -4.092982292175293, -1.8664542436599731, 11.700109481811523, 24.4892520904541, 27.343137741088867, 
508, 3427849713, 0.58696723, -0.44550815, -0.60290086, -0.30578214, 7.777070999145508, -3.549865961074829, -1.59005868434906, 20.488292694091797, 29.034894943237305, 30.525413513183594, 
509, 3427866380, 0.59228873, -0.445934, -0.59844345, -0.3036487, 8.285700798034668, -3.1170778274536133, -1.375799536705017, 15.086066246032715, 33.3652229309082, 34.999237060546875, 
510, 3427883047, 0.5986442, -0.44704425, -0.59236866, -0.30145636, 8.879620552062988, -4.062918663024902, -1.6978298425674438, 12.336441993713379, 42.60071563720703, 45.14977264404297, 
511, 3427899714, 0.6060208, -0.44939756, -0.58500123, -0.2975807, 10.174759864807129, -4.86134672164917, -1.2499486207962036, 14.537659645080566, 44.33613204956055, 63.19866943359375, 
512, 3427916381, 0.61471945, -0.45336148, -0.575838, -0.2915376, 11.744180679321289, -5.708757400512695, -1.438103199005127, 16.9580135345459, 47.145263671875, 86.9252700805664, 
513, 3427933048, 0.6248396, -0.45822525, -0.5657745, -0.28196546, 13.863265991210938, -6.521788597106934, -1.7276616096496582, 29.758506774902344, 43.777137756347656, 111.02030181884766, 
514, 3427949715, 0.637122, -0.46217644, -0.5552927, -0.26854914, 15.950211524963379, -5.056357383728027, -1.8385123014450073, 54.644256591796875, 43.64724349975586, 129.45896911621094, 
515, 3427966382, 0.65080667, -0.46408132, -0.5454339, -0.25215337, 15.490680694580078, -2.0860366821289062, -1.9558523893356323, 80.60506439208984, 40.587615966796875, 135.30291748046875, 
516, 3427983049, 0.6625197, -0.46649462, -0.53666604, -0.23545773, 14.849343299865723, -0.11020355671644211, -2.6078901290893555, 75.06649780273438, 26.481782913208008, 131.68869018554688, 
517, 3427999716, 0.6706917, -0.47137704, -0.5287504, -0.21999831, 16.048044204711914, -0.8381417393684387, -3.3530566692352295, 49.29897689819336, 9.522285461425781, 126.76737213134766, 
518, 3428016383, 0.67436296, -0.47977796, -0.52175313, -0.20693402, 17.265058517456055, -1.9476168155670166, -2.3207192420959473, 11.182709693908691, -8.595178604125977, 118.79984283447266, 
519, 3428033050, 0.67482847, -0.4902577, -0.51555175, -0.1961129, 16.834278106689453, -2.0012075901031494, -0.0055293552577495575, -15.921594619750977, -19.32282829284668, 108.74146270751953, 
520, 3428049717, 0.6731932, -0.50178987, -0.50999427, -0.18687898, 15.113056182861328, -3.4608020782470703, 0.3150968551635742, -32.63816452026367, -25.832290649414062, 100.18291473388672, 
521, 3428066384, 0.67189777, -0.51071525, -0.50658166, -0.17634746, 13.32678508758545, -4.795109272003174, -3.053992986679077E-4, -12.08887767791748, -35.70608139038086, 90.13956451416016, 
522, 3428083051, 0.6736015, -0.51427233, -0.50477237, -0.16428666, 11.429598808288574, -3.85732102394104, 0.122625932097435, 30.51934051513672, -31.537790298461914, 76.54246520996094, 
523, 3428099718, 0.6780244, -0.51329273, -0.5034702, -0.1527461, 9.26976203918457, -2.02300763130188, 0.4343007802963257, 59.91022491455078, -17.49372100830078, 59.698020935058594, 
524, 3428116385, 0.68329537, -0.50983196, -0.5028402, -0.14258613, 7.709623336791992, -1.0495177507400513, 0.21035480499267578, 70.39915466308594, -10.225807189941406, 43.227840423583984, 
525, 3428133052, 0.6884232, -0.5048334, -0.50309044, -0.13459867, 6.6834259033203125, -0.5323969721794128, 0.020991306751966476, 70.47162628173828, -5.734547138214111, 24.518434524536133, 
526, 3428149719, 0.6930574, -0.49848053, -0.5045409, -0.1289461, 6.032360076904297, 0.13730548322200775, 0.10678558051586151, 68.20453643798828, -3.766761541366577, 4.196747779846191, 
527, 3428166386, 0.695757, -0.49236003, -0.5074968, -0.12629761, 5.636263370513916, 0.27138838171958923, 0.15716123580932617, 51.380428314208984, -7.560250282287598, -16.146638870239258, 
528, 3428183053, 0.69513667, -0.48896646, -0.5112476, -0.12776054, 5.463778495788574, 0.689385175704956, -0.5105063319206238, 13.440468788146973, -11.397300720214844, -31.832630157470703, 
529, 3428199720, 0.6903008, -0.48924536, -0.51605564, -0.13345523, 4.972455024719238, 1.8124545812606812, -0.5704382061958313, -32.22638702392578, -20.262876510620117, -46.362388610839844, 
530, 3428216387, 0.6823801, -0.491305, -0.5222996, -0.1420568, 5.040294170379639, 2.445237398147583, 0.26375794410705566, -60.04941177368164, -29.87908935546875, -61.44926452636719, 
531, 3428233054, 0.6725485, -0.4944265, -0.52869517, -0.15395659, 5.317043304443359, 1.8370554447174072, 0.7312655448913574, -83.18273162841797, -27.361061096191406, -75.4309310913086, 
532, 3428249721, 0.6621032, -0.49675354, -0.5354152, -0.16788702, 5.5087809562683105, -0.8705005645751953, 0.15235555171966553, -88.63748168945312, -23.368846893310547, -89.40764617919922, 
533, 3428266388, 0.65223116, -0.49814704, -0.54116786, -0.18325238, 5.295990943908691, -3.4457030296325684, -0.6489359736442566, -88.83110809326172, -10.894499778747559, -95.3872299194336, 
534, 3428283055, 0.6426341, -0.49837053, -0.54734564, -0.19763927, 5.270079612731934, -4.302375316619873, -1.9988232851028442, -78.46786499023438, -13.661741256713867, -96.47123718261719, 
535, 3428299722, 0.6345855, -0.49524286, -0.5552772, -0.20905283, 6.357019424438477, -3.922534465789795, -1.4882137775421143, -44.78076171875, -21.209081649780273, -99.87117767333984, 
536, 3428316389, 0.63023084, -0.486935, -0.5645216, -0.21683812, 7.861510753631592, -4.100761413574219, -0.15449917316436768, 6.139512062072754, -17.734516143798828, -102.99382781982422, 
537, 3428333056, 0.62843335, -0.47586888, -0.5736991, -0.2224632, 8.48216438293457, -4.184661865234375, -0.04463738203048706, 34.931419372558594, -10.64470100402832, -100.31696319580078, 
538, 3428349723, 0.62565714, -0.4666947, -0.58201265, -0.22805817, 8.385504722595215, -3.610079526901245, -0.46781229972839355, 22.343873977661133, -13.770256042480469, -91.40924072265625, 
539, 3428366390, 0.6206842, -0.46100995, -0.58946383, -0.23399438, 8.259016990661621, -3.19144868850708, -0.28874504566192627, -2.4411349296569824, -23.231250762939453, -79.60204315185547, 
540, 3428383057, 0.6142212, -0.4577228, -0.59606844, -0.24067529, 8.187254905700684, -3.087099075317383, 0.04317128658294678, -21.777217864990234, -27.164588928222656, -72.78679656982422, 
541, 3428399724, 0.6072236, -0.4552495, -0.60246474, -0.24711108, 8.078413009643555, -3.1915223598480225, -0.39823615550994873, -26.243839263916016, -30.608469009399414, -68.65569305419922, 
542, 3428416391, 0.60098034, -0.4529682, -0.6080508, -0.25281754, 7.925507068634033, -4.085596561431885, -1.4306304454803467, -23.031505584716797, -26.725303649902344, -61.013221740722656, 
543, 3428433058, 0.5952521, -0.45144266, -0.612366, -0.25861663, 8.118110656738281, -4.8286004066467285, -1.6208888292312622, -27.15766143798828, -20.34261703491211, -53.40903091430664, 
544, 3428449725, 0.5892974, -0.45031697, -0.61684763, -0.26351923, 9.678732872009277, -5.333306789398193, -1.0128231048583984, -25.43218421936035, -25.470422744750977, -49.011959075927734, 
545, 3428466392, 0.5804817, -0.45254815, -0.6211343, -0.26913473, 11.93929672241211, -7.381845951080322, -3.701213836669922, -51.275020599365234, -40.700660705566406, -42.283485412597656, 
546, 3428483059, 0.5767354, -0.44712797, -0.6313479, -0.26239797, 10.240680694580078, -7.135018825531006, -4.407011985778809, 58.74717330932617, -66.96469116210938, -34.78276443481445, 
547, 3428499726, 0.5801033, -0.43603343, -0.64036286, -0.25157583, 12.955266952514648, 0.6923629641532898, 4.3222784996032715, 118.68355560302734, -33.62327575683594, -26.759483337402344, 
548, 3428516393, 0.5763162, -0.43855968, -0.6410307, -0.25417483, 12.59695816040039, -4.733460426330566, -2.7982873916625977, -30.623437881469727, -15.23486328125, -7.637924671173096, 
549, 3428533060, 0.5769311, -0.433832, -0.64730483, -0.24482009, 12.541268348693848, -4.2686567306518555, -5.182511806488037, 73.87068939208984, -41.41394805908203, -1.4831346273422241, 
550, 3428549727, 0.5758479, -0.43201846, -0.6514528, -0.2395177, 16.994808197021484, 2.853673219680786, -0.6275542378425598, 35.62948226928711, -33.326053619384766, -1.128575325012207, 
551, 3428566394, 0.57188845, -0.43908685, -0.64823335, -0.24482621, 24.158096313476562, -6.108816623687744, -3.7406890392303467, -67.7240219116211, -0.18644440174102783, 13.858126640319824, 
552, 3428583061, 0.5756095, -0.43967548, -0.64597136, -0.24099883, 10.327977180480957, -11.693549156188965, -4.2652764320373535, 23.26358985900879, 13.584071159362793, 30.92023277282715, 
553, 3428599728, 0.58284086, -0.4374239, -0.64473665, -0.23080608, 9.231911659240723, 1.6355712413787842, -0.9081343412399292, 75.06269073486328, 10.591886520385742, 46.09959030151367, 
554, 3428616395, 0.5881549, -0.435921, -0.64330256, -0.22407262, 8.938989639282227, 7.116004467010498, -6.505939960479736, 50.6538200378418, 12.09611701965332, 33.15193176269531, 
555, 3428633062, 0.59045404, -0.4323877, -0.6442357, -0.22218339, 9.276228904724121, 6.2498908042907715, -6.31697940826416, 32.07948303222656, 6.889164924621582, -7.056947708129883, 
556, 3428649729, 0.5879338, -0.42879805, -0.64746165, -0.226406, 10.849926948547363, 3.5089035034179688, -4.698775768280029, -5.560604572296143, -5.460317134857178, -46.20376205444336, 
557, 3428666396, 0.5837034, -0.42637795, -0.6509848, -0.23175688, 13.949389457702637, -0.42823851108551025, -4.808619976043701, -19.873435974121094, -12.741289138793945, -49.031410217285156, 
558, 3428683063, 0.579445, -0.426385, -0.65327907, -0.23593643, 13.418161392211914, -0.8301898241043091, -3.0201518535614014, -26.40341567993164, -15.219927787780762, -29.883075714111328, 
559, 3428699730, 0.57375157, -0.4258994, -0.65633, -0.24217767, 10.4706449508667, 0.17077621817588806, -2.881673812866211, -36.676021575927734, -17.840213775634766, -44.83771896362305, 
560, 3428716397, 0.5686457, -0.42421955, -0.6590112, -0.2497685, 9.624564170837402, -1.228042721748352, -2.0177173614501953, -36.94717788696289, -7.788626194000244, -53.4677619934082, 
561, 3428733064, 0.56553257, -0.42084393, -0.66155, -0.25576407, 9.106505393981934, -2.674240827560425, -1.204453706741333, -17.522666931152344, 0.04945863038301468, -51.07529067993164, 
562, 3428749731, 0.5639264, -0.41691208, -0.6635477, -0.26052997, 8.27720832824707, -3.130681276321411, -1.0792464017868042, -6.366127967834473, 6.416284561157227, -44.62424850463867, 
563, 3428766398, 0.56309813, -0.41235757, -0.6660306, -0.26322073, 8.067394256591797, -3.3251402378082275, -1.3400107622146606, 8.605276107788086, 3.241664171218872, -39.442562103271484, 
564, 3428783065, 0.5621279, -0.40754366, -0.66909176, -0.26502228, 8.225025177001953, -3.407691478729248, -1.6962424516677856, 14.316304206848145, -1.70527184009552, -39.11320114135742, 
565, 3428799732, 0.5609401, -0.40312463, -0.67196536, -0.2670198, 8.099251747131348, -3.4094204902648926, -1.767143964767456, 10.928345680236816, -2.153047561645508, -37.954994201660156, 
566, 3428816399, 0.56027704, -0.39904308, -0.67421347, -0.26886916, 7.289080619812012, -2.9669363498687744, -1.181884527206421, 10.607710838317871, 1.6504509449005127, -33.15980911254883, 
567, 3428833066, 0.5596026, -0.39592883, -0.6760903, -0.2701621, 6.578944206237793, -2.4680285453796387, -1.2234524488449097, 8.735821723937988, -0.2921839952468872, -25.561363220214844, 
568, 3428849733, 0.5586827, -0.39406943, -0.67770994, -0.2707258, 6.877956867218018, -1.7080790996551514, -1.2094414234161377, 6.145531177520752, -4.764512062072754, -16.701967239379883, 
569, 3428866400, 0.557555, -0.3947777, -0.67738044, -0.27283472, 7.311073303222656, -0.8392166495323181, -0.5301980376243591, -15.112920761108398, 1.1567217111587524, -5.793988227844238, 
570, 3428883067, 0.5558519, -0.3988124, -0.67427766, -0.27807724, 7.579341888427734, -0.9818726778030396, -0.31159719824790955, -49.22471618652344, 11.35628604888916, 4.129521369934082, 
571, 3428899734, 0.55393106, -0.40498865, -0.6691303, -0.28532296, 8.473637580871582, -3.4525866508483887, -1.0369880199432373, -71.20320892333984, 19.54029655456543, 11.586860656738281, 
572, 3428916401, 0.5534595, -0.4109248, -0.6624687, -0.29318693, 7.660865306854248, -5.776721477508545, -0.4171428680419922, -72.07708740234375, 34.15193557739258, 15.157448768615723, 
573, 3428933068, 0.55498815, -0.41492414, -0.6560273, -0.29908955, 5.979156970977783, -5.971937656402588, -0.48485973477363586, -49.693199157714844, 40.77008819580078, 17.15013313293457, 
574, 3428949735, 0.5579887, -0.41709918, -0.6502079, -0.3031612, 5.0031418800354, -4.904909133911133, -0.7591113448143005, -29.008852005004883, 43.55366516113281, 17.10147476196289, 
575, 3428966402, 0.5613512, -0.41862258, -0.64455706, -0.30689827, 4.927088260650635, -3.770172119140625, -0.21185238659381866, -23.6356143951416, 44.918704986572266, 15.693413734436035, 
576, 3428983069, 0.5654278, -0.4199087, -0.6388179, -0.3096446, 5.758271217346191, -3.217529058456421, -0.6626529693603516, -16.465803146362305, 46.06590270996094, 20.190610885620117, 
577, 3428999736, 0.5709163, -0.42100117, -0.6326636, -0.3107238, 6.67464017868042, -2.027959108352661, -0.6708264350891113, -5.201931476593018, 49.47657012939453, 29.9958553314209, 
578, 3429016403, 0.5766176, -0.42230725, -0.626306, -0.31130308, 7.386180400848389, -1.907003402709961, -2.000049352645874, -3.6860406398773193, 49.29169464111328, 33.915279388427734, 
579, 3429033070, 0.5821559, -0.42399, -0.6196849, -0.31195801, 8.890250205993652, -2.517535448074341, -3.6688215732574463, -6.543535232543945, 49.057518005371094, 35.6406135559082, 
580, 3429049737, 0.5878373, -0.42649227, -0.6120275, -0.31300822, 9.69832706451416, -3.4589526653289795, -3.594048023223877, -13.313679695129395, 53.236331939697266, 40.86281204223633, 
581, 3429066404, 0.59354496, -0.43033642, -0.60400397, -0.31256098, 9.87618637084961, -5.48480224609375, -2.6538054943084717, -13.146921157836914, 47.573631286621094, 53.66813278198242, 
582, 3429083071, 0.6008553, -0.43485174, -0.5959317, -0.30780247, 9.62319564819336, -7.635948657989502, -2.348217487335205, 6.655320167541504, 40.24515914916992, 77.59532165527344, 
583, 3429099738, 0.6107784, -0.44007745, -0.5877183, -0.29642698, 11.870025634765625, -7.625644683837891, -2.390659809112549, 38.345008850097656, 30.259552001953125, 113.73003387451172, 
584, 3429116405, 0.62488174, -0.44336784, -0.5790283, -0.27870095, 16.321475982666016, -5.410688400268555, -2.62726092338562, 83.81841278076172, 33.89132308959961, 142.48977661132812, 
585, 3429133072, 0.640025, -0.44430172, -0.57088304, -0.25895315, 20.15346336364746, -2.0893101692199707, -2.8280386924743652, 106.21678161621094, 34.05070877075195, 142.1090850830078, 
586, 3429149739, 0.65413547, -0.44429472, -0.56317914, -0.23987168, 18.34191131591797, 1.2583552598953247, -2.5283119678497314, 105.38493347167969, 31.772825241088867, 132.32525634765625, 
587, 3429166406, 0.6621925, -0.4498248, -0.55591995, -0.22385666, 17.675079345703125, 1.0384820699691772, -1.2726603746414185, 50.85515213012695, 6.578746318817139, 128.69622802734375, 
588, 3429183073, 0.66520035, -0.46034214, -0.54848313, -0.21156551, 17.477907180786133, -0.46046313643455505, -0.49321112036705017, -1.9688588380813599, -8.06531810760498, 123.65167236328125, 
589, 3429199740, 0.66563797, -0.47287574, -0.5409651, -0.2016725, 15.470802307128906, 0.21400251984596252, 0.08482871949672699, -28.473079681396484, -12.732852935791016, 116.8684310913086, 
590, 3429216407, 0.66376054, -0.48618552, -0.5338527, -0.19505656, 13.49100399017334, -0.10516159236431122, 1.0799185037612915, -51.18254470825195, -13.624008178710938, 100.29669189453125, 
591, 3429233074, 0.6604423, -0.4987843, -0.5277833, -0.19098496, 11.799118041992188, -2.5439035892486572, 0.2518919110298157, -60.683990478515625, -14.237360954284668, 80.71537017822266, 
592, 3429249741, 0.65941, -0.5064937, -0.52348673, -0.18602297, 10.538298606872559, -3.5737996101379395, -0.21086063981056213, -25.084693908691406, -10.634145736694336, 63.967952728271484, 
593, 3429266408, 0.6612937, -0.5095604, -0.5202423, -0.17996371, 8.963282585144043, -2.984835386276245, 0.10172060132026672, 11.413826942443848, -2.798247814178467, 52.31660079956055, 
594, 3429283075, 0.6646524, -0.5091697, -0.5187656, -0.17281775, 8.091852188110352, -1.976430892944336, -0.10942395031452179, 38.37583923339844, -5.096785068511963, 40.537254333496094, 
595, 3429299742, 0.66766644, -0.5072195, -0.5187967, -0.16673318, 7.687661647796631, -1.0377888679504395, -0.5239520072937012, 42.303260803222656, -7.6512770652771, 24.4581241607666, 
596, 3429316409, 0.6693017, -0.504763, -0.52041924, -0.16252248, 7.118502616882324, -0.6938552856445312, -1.1291906833648682, 34.96149826049805, -12.757244110107422, 6.947543621063232, 
597, 3429333076, 0.6695612, -0.50227904, -0.52313256, -0.16042402, 6.215216636657715, 0.2537400424480438, -1.151493787765503, 23.981189727783203, -15.331901550292969, -8.16451358795166, 
598, 3429349743, 0.6684273, -0.49993366, -0.52678996, -0.16051081, 5.88685417175293, 1.1569931507110596, -0.3192477226257324, 11.71812915802002, -17.288082122802734, -22.4909725189209, 
599, 3429366410, 0.6661384, -0.4981412, -0.5305801, -0.16309525, 6.133094310760498, 0.7431800961494446, 0.43132057785987854, -3.6884961128234863, -14.106240272521973, -33.65998840332031, 
600, 3429383077, 0.6625339, -0.49766174, -0.5339535, -0.16815364, 5.70491361618042, 0.09470720589160919, -0.018621789291501045, -23.701202392578125, -10.00516128540039, -40.21398162841797, 
601, 3429399744, 0.65763086, -0.49756032, -0.53807724, -0.17443697, 5.230007171630859, 0.2379787564277649, -0.1551796793937683, -33.49531173706055, -14.442846298217773, -48.44742202758789, 
602, 3429416411, 0.65233207, -0.49610183, -0.54360527, -0.18121551, 5.589897632598877, -0.25061091780662537, 0.409983366727829, -28.85873031616211, -18.939245223999023, -60.96051788330078, 
603, 3429433078, 0.645803, -0.49449435, -0.5499371, -0.18969153, 5.960720062255859, -0.8807076215744019, 0.4045668840408325, -37.73041915893555, -21.179147720336914, -73.38606262207031, 
604, 3429449745, 0.63789713, -0.4933701, -0.5565116, -0.19992046, 6.2053704261779785, -2.224457025527954, 0.055229201912879944, -50.869384765625, -22.14595603942871, -81.94761657714844, 
605, 3429466412, 0.63121957, -0.49029544, -0.5632906, -0.20946674, 6.304938316345215, -3.421372413635254, -0.030743513256311417, -35.25710678100586, -17.98811149597168, -85.41830444335938, 
606, 3429483079, 0.62901026, -0.4822431, -0.57029563, -0.21575625, 6.828376770019531, -3.7072668075561523, 1.1090874671936035, 14.345870018005371, -5.480896472930908, -84.89918518066406, 
607, 3429499746, 0.62929815, -0.47190592, -0.5765769, -0.22101526, 7.653993129730225, -3.7159528732299805, 1.4511553049087524, 35.467140197753906, 7.398289203643799, -83.30882263183594, 
608, 3429516413, 0.62868506, -0.46313375, -0.5819317, -0.22719564, 8.458203315734863, -4.4229817390441895, 0.818462073802948, 20.701961517333984, 8.428265571594238, -79.46443176269531, 
609, 3429533080, 0.6257755, -0.4576544, -0.5867528, -0.2338346, 8.671570777893066, -6.202951908111572, 0.21476531028747559, -3.517049789428711, -2.151984214782715, -70.17582702636719, 
610, 3429549747, 0.61982006, -0.4574672, -0.5904176, -0.24073653, 8.781838417053223, -7.988005638122559, -1.3303918838500977, -38.796104431152344, -17.159095764160156, -51.25046157836914, 
611, 3429566414, 0.6155115, -0.45778576, -0.592921, -0.24499539, 8.852702140808105, -8.591036796569824, -1.0500913858413696, -26.972272872924805, -14.673134803771973, -31.60816192626953, 
612, 3429583081, 0.61229223, -0.4594644, -0.5939482, -0.24742012, 7.99048376083374, -7.12693452835083, -0.7891430258750916, -24.315303802490234, -12.050882339477539, -11.879173278808594, 
613, 3429599748, 0.60863644, -0.46306893, -0.594041, -0.24948795, 7.618458271026611, -5.606977462768555, -0.5659786462783813, -33.939964294433594, -14.309096336364746, -0.35159361362457275, 
614, 3429616415, 0.60537195, -0.46643218, -0.5938085, -0.25170916, 9.060958862304688, -3.760040283203125, 0.33920183777809143, -32.87451934814453, -10.452644348144531, -0.305592805147171, 
615, 3429633082, 0.59928954, -0.47290644, -0.5918758, -0.2586401, 13.85501480102539, -4.347263813018799, -0.36132749915122986, -77.03487396240234, -5.1778645515441895, -6.645220756530762, 
616, 3429649749, 0.589857, -0.47753143, -0.59696454, -0.26012668, 12.154581069946289, -8.01755428314209, -11.679447174072266, -45.670860290527344, -62.17287826538086, -20.531917572021484, 
617, 3429666416, 0.59687054, -0.46449345, -0.6085774, -0.2400525, 15.972526550292969, 3.4889743328094482, 3.2675726413726807, 180.13687133789062, -60.24017333984375, 2.364314556121826, 
618, 3429683083, 0.59708405, -0.47068337, -0.6021553, -0.24363309, 10.247493743896484, 0.6943000555038452, -0.12166307866573334, -49.231651306152344, 29.074298858642578, 32.1873779296875, 
619, 3429699750, 0.59253275, -0.47531614, -0.60605353, -0.2359636, 8.306317329406738, -4.006112098693848, -6.965081691741943, 5.6043829917907715, -66.83412170410156, 30.578033447265625, 
620, 3429716417, 0.5866977, -0.47982213, -0.60951775, -0.23247522, 18.92565155029297, 1.1109368801116943, 0.7401041388511658, -16.188203811645508, -56.496315002441406, 12.335051536560059, 
621, 3429733084, 0.5844494, -0.48572394, -0.60506016, -0.23747312, 24.618375778198242, -9.384844779968262, -4.550009250640869, -58.20146942138672, 16.208772659301758, 15.878532409667969, 
622, 3429749751, 0.5918131, -0.48204648, -0.60564166, -0.22491494, 8.113543510437012, -3.8054425716400146, -2.346442699432373, 93.64688110351562, -7.0486345291137695, 45.42169952392578, 
623, 3429766418, 0.5950919, -0.48365062, -0.6028981, -0.22014017, 10.175715446472168, 6.086377143859863, -2.4750218391418457, 21.06087875366211, 7.108166217803955, 40.4329719543457, 
624, 3429783085, 0.5956616, -0.48298275, -0.6034166, -0.21863975, 10.677840232849121, 5.269594192504883, -6.762139320373535, 12.729992866516113, -3.135899066925049, 2.755838394165039, 
625, 3429799752, 0.59287995, -0.48184615, -0.6060943, -0.221286, 10.591941833496094, 2.6452436447143555, -5.095876693725586, -10.408675193786621, -11.365120887756348, -28.299901962280273, 
626, 3429816419, 0.5890942, -0.48002183, -0.6094843, -0.22600034, 11.777077674865723, -1.4234169721603394, -4.2336602210998535, -18.448448181152344, -10.528884887695312, -43.42973327636719, 
627, 3429833086, 0.5867059, -0.47568348, -0.6142857, -0.22837357, 12.630658149719238, -1.975345253944397, -4.6011271476745605, 8.357559204101562, -14.194228172302246, -46.95072937011719, 
628, 3429849753, 0.5829038, -0.47393924, -0.617551, -0.23288506, 11.888821601867676, 0.07908299565315247, -4.4258952140808105, -18.166414260864258, -11.030559539794922, -41.80204391479492, 
629, 3429866420, 0.57958996, -0.471727, -0.62091136, -0.23668206, 10.120009422302246, 0.6898167729377747, -2.2941653728485107, -11.503105163574219, -10.902791023254395, -40.42462158203125, 
630, 3429883087, 0.5761094, -0.47021914, -0.6236608, -0.24091364, 9.494565963745117, 0.4993334710597992, -1.7375009059906006, -17.6924991607666, -8.91796875, -37.411643981933594, 
631, 3429899754, 0.5731158, -0.46946964, -0.6249132, -0.24621142, 9.064064979553223, -0.07966749370098114, -1.503497838973999, -26.169662475585938, 1.2849971055984497, -32.71194076538086, 
632, 3429916421, 0.56984943, -0.4696716, -0.6253369, -0.25225827, 9.171479225158691, -0.6544386148452759, -1.6354676485061646, -35.41830825805664, 4.176310062408447, -29.3449649810791, 
633, 3429933088, 0.5663637, -0.47043246, -0.62539595, -0.25846767, 9.666658401489258, -0.9023685455322266, -1.3131554126739502, -39.647216796875, 4.206933975219727, -26.7718505859375, 
634, 3429949755, 0.5622973, -0.4722566, -0.62475353, -0.26547813, 9.552506446838379, -0.8082699179649353, -1.3873851299285889, -50.356876373291016, 5.129485607147217, -24.073198318481445, 
635, 3429966422, 0.55825496, -0.47448072, -0.6235197, -0.2728423, 8.734535217285156, -0.9966139197349548, -1.6924707889556885, -54.4234619140625, 7.92164421081543, -21.75139808654785, 
636, 3429983089, 0.554549, -0.47670126, -0.6219752, -0.2799615, 8.025548934936523, -1.101902961730957, -2.0050456523895264, -52.84587097167969, 9.752645492553711, -19.177335739135742, 
637, 3429999756, 0.55037147, -0.47926238, -0.62037086, -0.28729573, 7.809988975524902, -1.1040252447128296, -2.857748031616211, -56.72637176513672, 8.006505012512207, -19.25181007385254, 
