sep=,
DeviceTag:,Trunk - 8,,,,,,,,,,,,,,,,,
FirmwareVersion:,3.0.0,,,,,,,,,,,,,,,,,
AppVersion:,2023.6.1,,,,,,,,,,,,,,,,,
StartTime:,2024-05-23 12:04:51.000 +0200,,,,,,,,,,,,,,,,,
 2024,,,,,,,,,,,,,,,,,,,

PacketCounter,SampleTimeFine,Quat_W,Quat_X,Quat_Y,Quat_Z,Acc_X,Acc_Y,Acc_Z,Gyr_X,Gyr_Y,Gyr_Z,
0, 3430135397, 0.8058556, 0.12605108, -0.528944, 0.23436318, 0.0, 0.0, 0.0, 0.0, 0.0, 0.0, 
1, 3430152064, 0.8057595, 0.12582593, -0.5291825, 0.2342761, 9.075186729431152, -0.4994741678237915, 4.069502353668213, 2.1752800941467285, -0.27484989166259766, 0.7553889751434326, 
2, 3430168731, 0.80554646, 0.12573184, -0.52922946, 0.2349526, 9.064373016357422, -0.5003402233123779, 4.043585300445557, 2.5481882095336914, -0.21540279686450958, 0.5904687643051147, 
3, 3430185398, 0.80531543, 0.12561995, -0.5293477, 0.23553772, 9.055323600769043, -0.49795979261398315, 4.073777675628662, 3.1327338218688965, -0.11689633876085281, 0.9335507750511169, 
4, 3430202065, 0.80502886, 0.12592648, -0.5292414, 0.2365897, 9.07182502746582, -0.4897836148738861, 4.011506080627441, 3.8425261974334717, -0.24289807677268982, 1.3122347593307495, 
5, 3430218732, 0.80470514, 0.12622204, -0.529343, 0.23730548, 9.0923433303833, -0.4823870062828064, 4.05932092666626, 4.016014099121094, -0.6603979468345642, 1.5836910009384155, 
6, 3430235399, 0.804424, 0.12647063, -0.5295025, 0.23776984, 9.131783485412598, -0.48017236590385437, 4.0708794593811035, 3.875899314880371, -1.3690115213394165, 1.6392319202423096, 
7, 3430252066, 0.8041744, 0.1267717, -0.5296036, 0.23822857, 9.134931564331055, -0.4670276343822479, 4.0826311111450195, 4.104109287261963, -1.1648401021957397, 1.7481757402420044, 
8, 3430268733, 0.8039832, 0.12701757, -0.5296849, 0.23856162, 9.122252464294434, -0.5086952447891235, 4.11896276473999, 3.992795944213867, -1.124948263168335, 1.838255524635315, 
9, 3430285400, 0.8037848, 0.12733099, -0.5296563, 0.23912585, 9.094769477844238, -0.4997946321964264, 4.1123809814453125, 4.402701377868652, -0.8387903571128845, 2.191377878189087, 
10, 3430302067, 0.80356205, 0.12768044, -0.5295638, 0.23989202, 9.071588516235352, -0.48620283603668213, 4.112764358520508, 4.072412967681885, -0.6411499381065369, 2.5291836261749268, 
11, 3430318734, 0.8034667, 0.12772882, -0.5294998, 0.24032676, 9.078340530395508, -0.4677425026893616, 4.101536273956299, 3.4970815181732178, -0.4388992488384247, 2.7892873287200928, 
12, 3430335401, 0.80336237, 0.12775946, -0.529447, 0.24077487, 9.0684175491333, -0.47769343852996826, 4.105433464050293, 3.3874077796936035, -0.5153146982192993, 3.0833468437194824, 
13, 3430352068, 0.8032338, 0.12781972, -0.52940184, 0.2412701, 9.087950706481934, -0.478319376707077, 4.111572265625, 3.4297397136688232, -0.6595783829689026, 3.217935562133789, 
14, 3430368735, 0.8031189, 0.1278729, -0.5293514, 0.24173523, 9.064554214477539, -0.46437734365463257, 4.095541954040527, 3.3405814170837402, -0.5860955119132996, 3.136371374130249, 
15, 3430385402, 0.8029531, 0.1280913, -0.5292921, 0.24229908, 9.048501014709473, -0.48095300793647766, 4.13198709487915, 3.930140733718872, -0.8331171274185181, 2.9120872020721436, 
16, 3430402069, 0.8027259, 0.1283539, -0.52921486, 0.24308062, 9.097424507141113, -0.5346032977104187, 4.2372846603393555, 3.3867483139038086, -0.8023947477340698, 3.319258689880371, 
17, 3430418736, 0.802645, 0.1283338, -0.5291525, 0.24349375, 9.011140823364258, -0.4691219925880432, 4.120540142059326, 3.02158784866333, -0.5352286100387573, 3.1937308311462402, 
18, 3430435403, 0.8023661, 0.12880851, -0.5291303, 0.24420995, 9.083086967468262, -0.42525848746299744, 4.066259384155273, 6.328821659088135, -1.9893512725830078, 3.2097582817077637, 
19, 3430452070, 0.8022913, 0.12881547, -0.52896, 0.24481972, 9.17374324798584, -0.520621657371521, 4.244021415710449, 3.4692087173461914, 0.40056347846984863, 3.9933085441589355, 
20, 3430468737, 0.8024482, 0.12857386, -0.52863216, 0.24514057, 9.006973266601562, -0.5953801870346069, 4.06602144241333, 2.865144968032837, 2.1109535694122314, 3.5192296504974365, 
21, 3430485404, 0.8024139, 0.128656, -0.5284564, 0.24558814, 8.960817337036133, -0.5600899457931519, 4.090956687927246, 3.8974523544311523, 0.29813823103904724, 2.847088575363159, 
22, 3430502071, 0.802205, 0.1287041, -0.52857375, 0.24599251, 9.025822639465332, -0.5084074139595032, 4.222436904907227, 3.153198480606079, -1.8992969989776611, 3.198481798171997, 
23, 3430518738, 0.8020068, 0.12877767, -0.52862793, 0.24648304, 9.055760383605957, -0.5161951780319214, 4.2193193435668945, 4.184929370880127, -1.5739388465881348, 3.743238687515259, 
24, 3430535405, 0.80187213, 0.12878937, -0.52859235, 0.24699102, 9.051009178161621, -0.5382880568504333, 4.259460926055908, 3.592975378036499, -0.7421663999557495, 3.7075283527374268, 
25, 3430552072, 0.8018123, 0.12875828, -0.5284576, 0.24748953, 9.061535835266113, -0.5429505109786987, 4.190382480621338, 3.2175190448760986, 0.09703372418880463, 3.497875452041626, 
26, 3430568739, 0.80173814, 0.12872615, -0.52837944, 0.2479132, 9.043868064880371, -0.5364723205566406, 4.1655964851379395, 3.1858038902282715, -0.3373192846775055, 3.3073489665985107, 
27, 3430585406, 0.8016274, 0.12872848, -0.52834785, 0.24833696, 9.038105010986328, -0.5523036122322083, 4.125647068023682, 2.8886513710021973, -0.7300580143928528, 3.091632127761841, 
28, 3430602073, 0.80149347, 0.12876023, -0.5283522, 0.24874288, 9.004298210144043, -0.5820099711418152, 4.140364646911621, 2.8334689140319824, -1.0191932916641235, 2.9026360511779785, 
29, 3430618740, 0.8013318, 0.12882952, -0.52837086, 0.24918789, 8.999608993530273, -0.5588966012001038, 4.187498092651367, 2.9218392372131348, -1.1841391324996948, 2.901682138442993, 
30, 3430635407, 0.8011802, 0.12885825, -0.52842665, 0.24954227, 9.010758399963379, -0.5623447895050049, 4.178121566772461, 3.5450022220611572, -1.442801833152771, 3.1245574951171875, 
31, 3430652074, 0.80094033, 0.12897414, -0.5285059, 0.25008386, 8.989216804504395, -0.5754662156105042, 4.197784423828125, 3.1629443168640137, -1.769005298614502, 3.3007407188415527, 
32, 3430668741, 0.80080116, 0.12891476, -0.52857995, 0.25040314, 9.012713432312012, -0.5916529893875122, 4.119297504425049, 3.1145687103271484, -1.3898606300354004, 3.3388848304748535, 
33, 3430685408, 0.800616, 0.1288633, -0.52870345, 0.25076088, 9.028639793395996, -0.6109899282455444, 4.170172214508057, 2.7036385536193848, -1.7395060062408447, 3.3865373134613037, 
34, 3430702075, 0.8004224, 0.12879659, -0.528852, 0.25109977, 9.035197257995605, -0.6354411840438843, 4.160010814666748, 3.39753794670105, -1.9433059692382812, 3.7523763179779053, 
35, 3430718742, 0.80014294, 0.12886752, -0.5289771, 0.25169018, 9.02577018737793, -0.6635026931762695, 4.220460414886475, 4.068706512451172, -2.0521092414855957, 4.241143703460693, 
36, 3430735409, 0.7998378, 0.12894733, -0.529087, 0.25238708, 9.054594039916992, -0.6257184147834778, 4.2461442947387695, 4.230001926422119, -1.9713904857635498, 4.652227401733398, 
37, 3430752076, 0.79957247, 0.1290311, -0.5291318, 0.25309005, 9.076308250427246, -0.593890905380249, 4.238832950592041, 4.474974632263184, -1.4908961057662964, 4.596007347106934, 
38, 3430768743, 0.7993427, 0.12909903, -0.52915245, 0.25373733, 9.068276405334473, -0.5967470407485962, 4.246916770935059, 4.130406856536865, -1.2521600723266602, 4.247034072875977, 
39, 3430785410, 0.7991874, 0.12906612, -0.52915406, 0.2542393, 9.045601844787598, -0.5840072631835938, 4.235116958618164, 3.8066365718841553, -0.8920455574989319, 4.034730434417725, 
40, 3430802077, 0.79903734, 0.12906833, -0.5291071, 0.25480744, 9.008533477783203, -0.599274218082428, 4.2007155418396, 3.543504238128662, -0.5618594288825989, 3.888174533843994, 
41, 3430818744, 0.7989024, 0.12903097, -0.52905154, 0.25536385, 8.976778030395508, -0.6284364461898804, 4.233491897583008, 3.293447971343994, -0.39952611923217773, 3.948364734649658, 
42, 3430835411, 0.7987506, 0.12898491, -0.529017, 0.25593278, 8.990522384643555, -0.6237769722938538, 4.205616474151611, 3.027920722961426, -0.5429700016975403, 3.9915595054626465, 
43, 3430852078, 0.79857445, 0.12893108, -0.5290392, 0.256463, 9.028228759765625, -0.6604891419410706, 4.222501754760742, 2.9394094944000244, -0.9753187894821167, 3.9813344478607178, 
44, 3430868745, 0.7984448, 0.12866792, -0.52914137, 0.25678813, 8.984098434448242, -0.7625691294670105, 4.341464996337891, 0.9835534691810608, -1.0651938915252686, 3.6572892665863037, 
45, 3430885412, 0.7981761, 0.12895618, -0.52934796, 0.2570525, 8.963632583618164, -0.6455559134483337, 4.002012729644775, 3.993929624557495, -3.2204580307006836, 1.7440584897994995, 
46, 3430902079, 0.7978749, 0.12930651, -0.529503, 0.25749204, 9.171957969665527, -0.6231788992881775, 4.293392181396484, 4.727477550506592, -2.936886787414551, 2.331524133682251, 
47, 3430918746, 0.7979749, 0.12902889, -0.5293296, 0.2576777, 9.05020523071289, -0.6971730589866638, 4.416810035705566, 1.6977633237838745, 1.1288669109344482, 2.7330284118652344, 
48, 3430935413, 0.7980414, 0.12906404, -0.5291268, 0.25787064, 8.954179763793945, -0.5985838770866394, 4.051168918609619, 2.889803886413574, 0.6285484433174133, 1.3813440799713135, 
49, 3430952080, 0.7979724, 0.12905343, -0.52929866, 0.257737, 8.996925354003906, -0.6501270532608032, 4.298111915588379, 2.336902618408203, -2.2022628784179688, 0.9809280037879944, 
50, 3430968747, 0.7978601, 0.12919188, -0.52936244, 0.25788486, 9.062165260314941, -0.6941784620285034, 4.286683082580566, 2.512759208679199, -1.6554702520370483, 1.1217336654663086, 
51, 3430985414, 0.79785836, 0.12946677, -0.529151, 0.25818524, 8.991145133972168, -0.7093373537063599, 4.2450103759765625, 3.72851824760437, 0.18000608682632446, 0.8036882281303406, 
52, 3431002081, 0.7979772, 0.12961048, -0.528887, 0.2582871, 8.992006301879883, -0.7245333194732666, 4.220535755157471, 3.4614920616149902, 0.8735979199409485, 0.45191046595573425, 
53, 3431018748, 0.7979872, 0.1298293, -0.52872926, 0.25846925, 9.008106231689453, -0.719967782497406, 4.232046604156494, 3.634941816329956, -0.13229599595069885, 0.6991754770278931, 
54, 3431035415, 0.79791, 0.12999074, -0.5287334, 0.25861773, 9.006644248962402, -0.6947464942932129, 4.2709269523620605, 3.154242753982544, -1.275006651878357, 1.0871312618255615, 
55, 3431052082, 0.79781175, 0.1301166, -0.5287714, 0.25877994, 8.992645263671875, -0.733579695224762, 4.273176193237305, 2.5977938175201416, -1.4395809173583984, 1.189095139503479, 
56, 3431068749, 0.7977416, 0.130277, -0.5287152, 0.25903052, 9.007373809814453, -0.7623929381370544, 4.2868852615356445, 2.761023759841919, -0.7716530561447144, 1.183089256286621, 
57, 3431085416, 0.79772675, 0.13042954, -0.5285436, 0.25934896, 8.999719619750977, -0.7519035339355469, 4.21837854385376, 3.835130453109741, 0.07909201085567474, 1.6858150959014893, 
58, 3431102083, 0.7977529, 0.13046303, -0.52836984, 0.25960577, 8.949821472167969, -0.7404890060424805, 4.270317554473877, 4.3278679847717285, 0.3005010187625885, 2.319716691970825, 
59, 3431118750, 0.79764944, 0.13069685, -0.528241, 0.2600679, 8.96662425994873, -0.6943784952163696, 4.157926559448242, 4.414400100708008, -0.4652866721153259, 2.176298141479492, 
60, 3431135417, 0.797492, 0.13079058, -0.52832955, 0.26032367, 8.971426963806152, -0.668373167514801, 4.209908485412598, 3.0117337703704834, -1.8113495111465454, 2.0477867126464844, 
61, 3431152084, 0.7972796, 0.13093105, -0.5285077, 0.2605415, 9.011847496032715, -0.6869468092918396, 4.237337589263916, 2.9190540313720703, -2.6098382472991943, 1.8057466745376587, 
62, 3431168751, 0.7971122, 0.1309952, -0.5286969, 0.26063812, 8.97277545928955, -0.6974550485610962, 4.282998085021973, 2.6400933265686035, -2.52415132522583, 1.633065938949585, 
63, 3431185418, 0.7970191, 0.13098116, -0.528822, 0.26067564, 9.001983642578125, -0.7238383293151855, 4.246585369110107, 2.25349497795105, -1.8392928838729858, 1.4932204484939575, 
64, 3431202085, 0.7969145, 0.1310203, -0.5288954, 0.2608272, 8.978649139404297, -0.7441524863243103, 4.282954692840576, 2.229316473007202, -1.5285851955413818, 1.5212407112121582, 
65, 3431218752, 0.7968325, 0.13103431, -0.52893406, 0.2609922, 8.979985237121582, -0.7532386183738708, 4.2455220222473145, 2.3342392444610596, -1.2186074256896973, 1.674417495727539, 
66, 3431235419, 0.7967381, 0.13108753, -0.5289644, 0.26119217, 8.99130916595459, -0.7094920873641968, 4.2791924476623535, 2.4332449436187744, -1.2411723136901855, 1.611141324043274, 
67, 3431252086, 0.79667044, 0.13105264, -0.5290364, 0.26126975, 9.005763053894043, -0.7338824272155762, 4.256438732147217, 2.367522716522217, -1.4014949798583984, 1.675301194190979, 
68, 3431268753, 0.7965303, 0.13112958, -0.5291303, 0.26146802, 9.003153800964355, -0.7533087134361267, 4.268548011779785, 2.2696821689605713, -1.791973352432251, 1.5531156063079834, 
69, 3431285420, 0.79637164, 0.1311875, -0.5292668, 0.26164618, 8.989702224731445, -0.7573162317276001, 4.28117036819458, 2.3963754177093506, -2.108905076980591, 1.738193154335022, 
70, 3431302087, 0.7961763, 0.13119248, -0.52947575, 0.26181537, 8.976984977722168, -0.7581861615180969, 4.33709192276001, 2.2709503173828125, -2.5827019214630127, 2.137917995452881, 
71, 3431318754, 0.7959456, 0.1310816, -0.529749, 0.26201996, 8.948484420776367, -0.8040822744369507, 4.340441703796387, 1.2214313745498657, -2.8016135692596436, 2.6640799045562744, 
72, 3431335421, 0.7956249, 0.13126825, -0.53006995, 0.26225105, 8.912785530090332, -0.7050871253013611, 4.110523700714111, 2.892237901687622, -3.914844274520874, 1.8964413404464722, 
73, 3431352088, 0.7952805, 0.13155197, -0.5302959, 0.26269627, 9.083907127380371, -0.720051646232605, 4.192094326019287, 4.278946876525879, -3.4488584995269775, 2.620332717895508, 
74, 3431368755, 0.7952403, 0.13135651, -0.5302477, 0.26301298, 9.003058433532715, -0.7799856662750244, 4.378588676452637, 1.6812305450439453, -0.10941105335950851, 2.9880032539367676, 
75, 3431385422, 0.79520607, 0.13129362, -0.530237, 0.26316947, 8.901631355285645, -0.7075160145759583, 4.027956962585449, 2.056584596633911, -0.7200818657875061, 1.7821828126907349, 
76, 3431402089, 0.7948748, 0.13144957, -0.53065187, 0.26325682, 9.005050659179688, -0.7151938676834106, 4.27565336227417, 2.1372904777526855, -4.548553943634033, 1.3692809343338013, 
77, 3431418756, 0.7945483, 0.13152306, -0.53105706, 0.26338845, 9.150664329528809, -0.7895889282226562, 4.443029403686523, 2.2680046558380127, -4.330384254455566, 2.074475049972534, 
78, 3431435423, 0.79446894, 0.13153467, -0.5309977, 0.26374096, 9.05051326751709, -0.8261469006538391, 4.288255214691162, 3.243060827255249, -0.5889896154403687, 2.586030960083008, 
79, 3431452090, 0.7944917, 0.13149683, -0.53079623, 0.26409706, 8.980219841003418, -0.8256949186325073, 4.169569969177246, 3.101647138595581, 0.6470921039581299, 2.4425554275512695, 
80, 3431468757, 0.79445344, 0.13151741, -0.5306952, 0.26440394, 8.99034309387207, -0.7824628949165344, 4.208441257476807, 3.7020082473754883, -0.322457492351532, 2.4131133556365967, 
81, 3431485424, 0.7943152, 0.13155554, -0.530725, 0.26474023, 8.97734260559082, -0.8190498352050781, 4.2284369468688965, 3.05184268951416, -1.3557120561599731, 2.4949841499328613, 
82, 3431502091, 0.7941578, 0.13163477, -0.53078943, 0.26504403, 8.906407356262207, -0.8260909914970398, 4.206416606903076, 3.141756057739258, -1.727717399597168, 2.2399072647094727, 
83, 3431518758, 0.7939532, 0.13179505, -0.53087467, 0.26540682, 8.93052864074707, -0.774440586566925, 4.2304816246032715, 3.5372424125671387, -2.0946645736694336, 2.246541738510132, 
84, 3431535425, 0.79377174, 0.13190489, -0.530939, 0.26576582, 8.980534553527832, -0.7729699015617371, 4.164849758148193, 3.516970157623291, -1.8346123695373535, 2.4565269947052, 
85, 3431552092, 0.7936236, 0.13189195, -0.531008, 0.26607683, 8.961691856384277, -0.8068132400512695, 4.194526195526123, 2.7941086292266846, -1.5739260911941528, 2.655812978744507, 
86, 3431568759, 0.7934354, 0.13197616, -0.5310767, 0.26645884, 8.969655990600586, -0.8056269288063049, 4.114923000335693, 3.3726420402526855, -1.8170613050460815, 2.648430109024048, 
87, 3431585426, 0.79317856, 0.13207692, -0.53125894, 0.26680997, 8.982916831970215, -0.8250309228897095, 4.219040393829346, 3.195952892303467, -2.74267840385437, 2.640784978866577, 
88, 3431602093, 0.79289573, 0.1323021, -0.5313975, 0.26726246, 9.006951332092285, -0.8078688979148865, 4.241769313812256, 4.072329521179199, -2.720459461212158, 2.6202049255371094, 
89, 3431618760, 0.79268306, 0.1325443, -0.53146833, 0.26763248, 9.00857162475586, -0.7909994721412659, 4.22931432723999, 4.373702049255371, -2.246817111968994, 2.1122026443481445, 
90, 3431635427, 0.79252476, 0.13277772, -0.5314898, 0.26794326, 9.032307624816895, -0.7812749147415161, 4.222472190856934, 4.107048511505127, -1.8218764066696167, 1.656680703163147, 
91, 3431652094, 0.79239935, 0.13299976, -0.53149664, 0.26819018, 9.021035194396973, -0.7817012071609497, 4.21384334564209, 4.062110900878906, -1.686859130859375, 1.3872992992401123, 
92, 3431668761, 0.79229057, 0.13319784, -0.5314809, 0.2684439, 8.999119758605957, -0.7821925282478333, 4.2263407707214355, 3.825563907623291, -1.44584321975708, 1.3912944793701172, 
93, 3431685428, 0.7921862, 0.133352, -0.5314751, 0.2686865, 9.002717018127441, -0.7892258763313293, 4.220297813415527, 3.5029470920562744, -1.419667363166809, 1.4825528860092163, 
94, 3431702095, 0.79207385, 0.13353266, -0.53146327, 0.2689512, 9.009451866149902, -0.7856394648551941, 4.234373092651367, 3.6844699382781982, -1.4476810693740845, 1.4874383211135864, 
95, 3431718762, 0.7919579, 0.1337859, -0.53142005, 0.26925227, 8.981536865234375, -0.8163954615592957, 4.215362071990967, 4.219699382781982, -1.396097183227539, 1.3734875917434692, 
96, 3431735429, 0.7917892, 0.13414213, -0.5314169, 0.26957768, 8.9640474319458, -0.7711754441261292, 4.205999851226807, 4.925258636474609, -1.9892040491104126, 1.2962459325790405, 
97, 3431752096, 0.79157513, 0.13451464, -0.53149617, 0.26986405, 8.983419418334961, -0.7497246265411377, 4.225230693817139, 4.7053093910217285, -2.6746766567230225, 1.160024881362915, 
98, 3431768763, 0.7913245, 0.1347872, -0.5317082, 0.27004504, 8.977049827575684, -0.8083578944206238, 4.297877311706543, 3.6182167530059814, -3.455275058746338, 1.1682850122451782, 
99, 3431785430, 0.7909563, 0.13542348, -0.5319783, 0.27027324, 8.949637413024902, -0.7137711048126221, 4.065358638763428, 5.2409868240356445, -4.806512355804443, 0.13248170912265778, 
100, 3431802097, 0.7905844, 0.13603877, -0.53221923, 0.2705783, 9.114119529724121, -0.7372676730155945, 4.22072172164917, 6.049073696136475, -4.59717321395874, 0.8635387420654297, 
101, 3431818764, 0.7905402, 0.1361929, -0.53213966, 0.2707862, 9.038994789123535, -0.8054863214492798, 4.375969886779785, 3.6310997009277344, -0.9071826338768005, 1.1816036701202393, 
102, 3431835431, 0.7905103, 0.13652404, -0.5320291, 0.27092433, 8.928572654724121, -0.7072561979293823, 3.9975056648254395, 4.22145938873291, -1.0901596546173096, 0.027047008275985718, 
103, 3431852098, 0.7902328, 0.13698715, -0.53232646, 0.27091548, 9.004857063293457, -0.6726843118667603, 4.193778991699219, 3.8714754581451416, -4.592722415924072, -0.4085802137851715, 
104, 3431868765, 0.78988576, 0.13740547, -0.5327254, 0.2709315, 9.137264251708984, -0.7313927412033081, 4.314119338989258, 3.552443504333496, -5.2972002029418945, 0.10110614448785782, 
105, 3431885432, 0.7897328, 0.13783684, -0.5327604, 0.2710896, 9.038137435913086, -0.7608799934387207, 4.22088098526001, 4.659975051879883, -2.5164544582366943, 0.13041988015174866, 
106, 3431902099, 0.78970194, 0.13820799, -0.5326756, 0.27115712, 8.989779472351074, -0.802200973033905, 4.201015472412109, 4.473169326782227, -1.4319615364074707, -0.3269909918308258, 
107, 3431918766, 0.78965884, 0.13864072, -0.5325407, 0.27132684, 9.041483879089355, -0.7580189108848572, 4.211617469787598, 4.994861125946045, -1.2090924978256226, -0.15547549724578857, 
108, 3431935433, 0.7895674, 0.13905436, -0.53245175, 0.27155522, 9.035524368286133, -0.7020159959793091, 4.18189001083374, 5.009832382202148, -1.551508903503418, 0.34187841415405273, 
109, 3431952100, 0.78941375, 0.13946626, -0.53246635, 0.27176222, 9.015400886535645, -0.7019633650779724, 4.154469013214111, 4.850104808807373, -2.37174916267395, 0.47615939378738403, 
110, 3431968767, 0.789251, 0.13987817, -0.5324928, 0.27197155, 9.044059753417969, -0.7234557867050171, 4.2189507484436035, 4.781590461730957, -2.468949317932129, 0.48983657360076904, 
111, 3431985434, 0.7891595, 0.14031234, -0.53238374, 0.27222672, 9.03512954711914, -0.7180023193359375, 4.164607048034668, 5.334344387054443, -1.4876433610916138, 0.4277065098285675, 
112, 3432002101, 0.78909945, 0.14071093, -0.53222543, 0.27250475, 8.98448371887207, -0.6801198720932007, 4.223104476928711, 5.299012184143066, -1.0258464813232422, 0.5805119872093201, 
113, 3432018768, 0.78903705, 0.14111656, -0.5320715, 0.27277622, 9.006392478942871, -0.6936537027359009, 4.178205966949463, 5.356179237365723, -1.0945907831192017, 0.5504681468009949, 
114, 3432035435, 0.7889229, 0.14144969, -0.53205186, 0.27297163, 9.002790451049805, -0.734856903553009, 4.191870212554932, 4.437938213348389, -1.9564838409423828, 0.6119899153709412, 
115, 3432052102, 0.7887483, 0.1419015, -0.53205603, 0.27323377, 9.028388023376465, -0.689477264881134, 4.2263007164001465, 5.374223709106445, -2.478586196899414, 0.687752366065979, 
116, 3432068769, 0.78856665, 0.14234863, -0.53204936, 0.2735383, 9.028172492980957, -0.6713110208511353, 4.254587650299072, 5.507754802703857, -2.404808759689331, 0.9276919960975647, 
117, 3432085436, 0.78844965, 0.14268135, -0.5319993, 0.27379972, 9.031262397766113, -0.668922483921051, 4.267753601074219, 4.7449188232421875, -1.775248408317566, 0.9488992094993591, 
118, 3432102103, 0.7883476, 0.142983, -0.5319372, 0.2740564, 9.024138450622559, -0.6625443696975708, 4.2624664306640625, 4.651535511016846, -1.6221482753753662, 1.0339078903198242, 
119, 3432118770, 0.78826076, 0.14323254, -0.53186584, 0.274314, 9.011678695678711, -0.6665535569190979, 4.2211689949035645, 4.3274455070495605, -1.4302198886871338, 1.1738430261611938, 
120, 3432135437, 0.78818697, 0.14345233, -0.53179073, 0.27455688, 8.999452590942383, -0.6544274091720581, 4.2243218421936035, 4.0396223068237305, -1.3272565603256226, 1.1466550827026367, 
121, 3432152104, 0.7881207, 0.14366558, -0.53172165, 0.27476907, 8.993423461914062, -0.6575809121131897, 4.227238655090332, 4.033584117889404, -1.3758118152618408, 1.0661606788635254, 
122, 3432168771, 0.7880536, 0.14392193, -0.5316322, 0.27500072, 8.994714736938477, -0.6396602988243103, 4.215110778808594, 4.225942134857178, -1.3330451250076294, 0.9320719838142395, 
123, 3432185438, 0.7879655, 0.14421007, -0.53156704, 0.27522823, 8.991996765136719, -0.648003876209259, 4.215597152709961, 4.4648823738098145, -1.6262078285217285, 0.9065101742744446, 
124, 3432202105, 0.7878297, 0.14455004, -0.53156024, 0.2754518, 8.985457420349121, -0.6575775742530823, 4.2422685623168945, 4.584814548492432, -2.2257118225097656, 0.8088876008987427, 
125, 3432218772, 0.7876648, 0.14474708, -0.53165853, 0.27563012, 9.00283432006836, -0.7067115902900696, 4.315608024597168, 3.4852991104125977, -2.6902105808258057, 1.2514621019363403, 
126, 3432235439, 0.7874264, 0.14522626, -0.5318147, 0.27575776, 8.934867858886719, -0.5969024896621704, 4.114687919616699, 4.866669654846191, -3.881073236465454, 0.16914628446102142, 
127, 3432252106, 0.78708756, 0.14591315, -0.5319332, 0.27613357, 9.097249984741211, -0.6424239873886108, 4.175901412963867, 7.000606060028076, -4.193753719329834, 0.8823832869529724, 
128, 3432268773, 0.7870438, 0.14610021, -0.53176457, 0.2764836, 9.053497314453125, -0.6910896301269531, 4.389685153961182, 4.454804420471191, -0.6466246843338013, 1.724848985671997, 
129, 3432285440, 0.78697896, 0.14654195, -0.53157467, 0.2767995, 8.899283409118652, -0.6177682280540466, 4.027034282684326, 5.7782769203186035, -1.1488001346588135, 0.6295217871665955, 
130, 3432302107, 0.78667563, 0.1471002, -0.53178275, 0.27696633, 8.978407859802246, -0.5604265332221985, 4.277315139770508, 5.468632221221924, -4.558696269989014, 0.3064560294151306, 
131, 3432318774, 0.78632367, 0.14749646, -0.5321344, 0.27707943, 9.095830917358398, -0.5632921457290649, 4.332480430603027, 4.103462219238281, -5.271471977233887, 0.8211432099342346, 
132, 3432335441, 0.78610504, 0.14791568, -0.53219074, 0.277368, 9.032381057739258, -0.5696936845779419, 4.292787551879883, 5.277766704559326, -3.070380449295044, 1.1299556493759155, 
133, 3432352108, 0.78600407, 0.1482061, -0.5321393, 0.27759817, 8.975475311279297, -0.5998087525367737, 4.282708168029785, 4.496335506439209, -1.8918627500534058, 0.9749986529350281, 
134, 3432368775, 0.78589547, 0.14848669, -0.53209704, 0.27783602, 9.005148887634277, -0.6221803426742554, 4.228458881378174, 4.37691593170166, -1.9566246271133423, 1.0426546335220337, 
135, 3432385442, 0.78576255, 0.1487941, -0.5320841, 0.2780724, 9.022573471069336, -0.5855982899665833, 4.196410655975342, 4.49465799331665, -2.27067494392395, 1.0179383754730225, 
136, 3432402109, 0.78559965, 0.1491419, -0.5321181, 0.2782811, 9.030739784240723, -0.5915711522102356, 4.1823015213012695, 4.578308582305908, -2.7537689208984375, 0.83916175365448, 
137, 3432418776, 0.785425, 0.14945923, -0.53219455, 0.2784575, 9.044031143188477, -0.6026137471199036, 4.2084126472473145, 4.354825496673584, -3.020704507827759, 0.8999280333518982, 
138, 3432435443, 0.7852577, 0.14978872, -0.5322311, 0.27868226, 9.046069145202637, -0.6063026785850525, 4.188900947570801, 4.499800205230713, -2.7535319328308105, 0.9922168850898743, 
139, 3432452110, 0.7851075, 0.1500744, -0.53223544, 0.27894378, 8.981038093566895, -0.6026639342308044, 4.2300333976745605, 4.485142230987549, -2.409976005554199, 1.3040578365325928, 
140, 3432468777, 0.7849349, 0.15043294, -0.5322431, 0.2792218, 8.985740661621094, -0.5827715396881104, 4.152863502502441, 4.951235771179199, -2.647085189819336, 1.1726326942443848, 
141, 3432485444, 0.7847323, 0.15074539, -0.5323642, 0.2793916, 8.980207443237305, -0.6044291257858276, 4.198413848876953, 4.310355186462402, -3.4161455631256104, 1.013705849647522, 
142, 3432502111, 0.78448987, 0.15109938, -0.53252435, 0.27957585, 9.047566413879395, -0.5697699785232544, 4.185742378234863, 4.320760250091553, -3.836648464202881, 0.959246814250946, 
143, 3432518778, 0.7842533, 0.15148221, -0.5326348, 0.27982196, 9.044459342956543, -0.5728435516357422, 4.182785987854004, 4.868858814239502, -3.554882526397705, 1.1593204736709595, 
144, 3432535445, 0.7840649, 0.15182644, -0.5327023, 0.28003463, 9.051591873168945, -0.5844248533248901, 4.173218727111816, 4.699802398681641, -3.128328800201416, 1.0390304327011108, 
145, 3432552112, 0.7839021, 0.15217161, -0.5327492, 0.28021398, 9.050993919372559, -0.5472848415374756, 4.171964645385742, 4.766421318054199, -2.980914831161499, 0.8587554693222046, 
146, 3432568779, 0.78375, 0.1524814, -0.5328117, 0.28035185, 9.029196739196777, -0.513706624507904, 4.161922931671143, 4.199292182922363, -3.0008931159973145, 0.6866893768310547, 
147, 3432585446, 0.7836073, 0.15271775, -0.53292495, 0.28040683, 9.037453651428223, -0.5180668234825134, 4.134669303894043, 3.4549996852874756, -3.2007999420166016, 0.57613205909729, 
148, 3432602113, 0.78341967, 0.15298077, -0.53307265, 0.2805067, 9.037457466125488, -0.522485077381134, 4.144394874572754, 3.234384298324585, -3.5317158699035645, 0.6344009637832642, 
149, 3432618780, 0.78324276, 0.15321554, -0.5332295, 0.28057492, 9.052872657775879, -0.5381993651390076, 4.133945465087891, 3.42922043800354, -3.564013957977295, 0.766075849533081, 
150, 3432635447, 0.783048, 0.15345226, -0.53338987, 0.28068435, 9.060640335083008, -0.5340294241905212, 4.1345930099487305, 3.515587091445923, -3.611807107925415, 0.9861274361610413, 
151, 3432652114, 0.7828249, 0.15370521, -0.5336026, 0.2807643, 9.05418586730957, -0.5444406867027283, 4.141872406005859, 3.430565595626831, -4.071094512939453, 0.8829851746559143, 
152, 3432668781, 0.7825755, 0.15388408, -0.53387296, 0.28084734, 9.13537883758545, -0.572934627532959, 4.219310283660889, 2.9650673866271973, -4.341691970825195, 1.2867693901062012, 
153, 3432685448, 0.78235537, 0.1540227, -0.53414106, 0.28087476, 9.055135726928711, -0.538165807723999, 4.1194868087768555, 2.5332627296447754, -4.21923828125, 1.0830202102661133, 
154, 3432702115, 0.7819905, 0.1546257, -0.5343227, 0.28121376, 9.149126052856445, -0.4754171371459961, 3.974787950515747, 6.304900169372559, -4.849554538726807, 1.1656982898712158, 
155, 3432718782, 0.7818618, 0.15477845, -0.5342603, 0.2816064, 9.17449951171875, -0.558259904384613, 4.268270969390869, 4.404475212097168, -1.7496740818023682, 2.441582202911377, 
156, 3432735449, 0.7818459, 0.1549204, -0.53404063, 0.28198823, 8.98283863067627, -0.5809826850891113, 3.998547315597534, 4.559815883636475, -0.5020536780357361, 2.0701847076416016, 
157, 3432752116, 0.78162014, 0.15538435, -0.5340837, 0.28227746, 9.015235900878906, -0.49468955397605896, 4.056224346160889, 5.796756267547607, -3.4208130836486816, 1.1316331624984741, 
158, 3432768783, 0.7812597, 0.15574984, -0.5343905, 0.2824928, 9.125616073608398, -0.5179378390312195, 4.193647384643555, 4.382590293884277, -5.212768077850342, 1.5418462753295898, 
159, 3432785450, 0.78097457, 0.15614572, -0.5344837, 0.2828864, 9.096250534057617, -0.5272650122642517, 4.140970230102539, 5.67731237411499, -3.678912878036499, 2.076831817626953, 
160, 3432802117, 0.7807652, 0.15647471, -0.53446865, 0.28331032, 9.09430980682373, -0.5361975431442261, 4.122681617736816, 5.488264560699463, -2.6624598503112793, 2.1956233978271484, 
161, 3432818784, 0.78057283, 0.15675886, -0.53443193, 0.28375223, 9.091767311096191, -0.4933698773384094, 4.106899261474609, 5.293198108673096, -2.385816812515259, 2.3867709636688232, 
162, 3432835451, 0.7803385, 0.15702814, -0.5344607, 0.28419298, 9.112497329711914, -0.4719829261302948, 4.104412078857422, 5.319514274597168, -2.8854434490203857, 2.6723268032073975, 
163, 3432852118, 0.7801246, 0.15726101, -0.53448415, 0.28460726, 9.114100456237793, -0.48360297083854675, 4.104432106018066, 4.902514934539795, -2.7413337230682373, 2.5798652172088623, 
164, 3432868785, 0.7799743, 0.15741256, -0.53447384, 0.28495482, 9.108734130859375, -0.536121666431427, 4.104994773864746, 4.371972560882568, -2.25875186920166, 2.4287240505218506, 
165, 3432885452, 0.77986854, 0.15756328, -0.53438365, 0.28532994, 9.086788177490234, -0.5385600328445435, 4.103053092956543, 4.49324893951416, -1.6390526294708252, 2.375514030456543, 
166, 3432902119, 0.7797736, 0.15771621, -0.53424835, 0.28575766, 9.088210105895996, -0.5454067587852478, 4.142088413238525, 4.724749565124512, -1.3116713762283325, 2.5623586177825928, 
167, 3432918786, 0.77968377, 0.15787624, -0.53411555, 0.2861626, 9.080975532531738, -0.5423784852027893, 4.074820041656494, 4.774259090423584, -1.3622820377349854, 2.453824996948242, 
168, 3432935453, 0.7796064, 0.15799022, -0.5339982, 0.28652975, 9.095672607421875, -0.5683843493461609, 4.097867012023926, 4.5318989753723145, -1.3695049285888672, 2.492640972137451, 
169, 3432952120, 0.77946407, 0.15813436, -0.5339656, 0.28689754, 9.101795196533203, -0.5876604914665222, 4.113823890686035, 4.351931095123291, -2.114539623260498, 2.5049095153808594, 
170, 3432968787, 0.7793092, 0.15833831, -0.53389955, 0.2873287, 9.083946228027344, -0.5717376470565796, 4.116249084472656, 4.9484381675720215, -2.035947561264038, 2.59867787361145, 
171, 3432985454, 0.7791743, 0.15852156, -0.53382796, 0.28772596, 9.066521644592285, -0.6020843982696533, 4.125072479248047, 4.642840385437012, -1.9344313144683838, 2.425356388092041, 
172, 3433002121, 0.7790542, 0.15869083, -0.5337589, 0.28808576, 9.067319869995117, -0.5762240290641785, 4.108156681060791, 4.601104259490967, -1.929193377494812, 2.327080249786377, 
173, 3433018788, 0.7789213, 0.15888496, -0.5337015, 0.288444, 9.044729232788086, -0.5516647696495056, 4.110615253448486, 4.502584934234619, -2.084778070449829, 2.178821325302124, 
174, 3433035455, 0.7787995, 0.15898915, -0.5336904, 0.28873625, 9.028213500976562, -0.5568948984146118, 4.108521461486816, 3.8363218307495117, -2.2052342891693115, 2.25217604637146, 
175, 3433052122, 0.7786575, 0.15904702, -0.53372574, 0.28902197, 9.013833045959473, -0.5995643734931946, 4.084676742553711, 3.4931113719940186, -2.452204942703247, 2.479565382003784, 
176, 3433068789, 0.77849704, 0.15913671, -0.53373855, 0.28938082, 9.016979217529297, -0.6422247290611267, 4.070951461791992, 3.907806634902954, -2.3864569664001465, 2.729494571685791, 
177, 3433085456, 0.7783309, 0.15925689, -0.53370965, 0.28981432, 9.030977249145508, -0.6941348314285278, 4.036825180053711, 4.449899673461914, -2.1708879470825195, 2.986185073852539, 
178, 3433102123, 0.7781375, 0.15943095, -0.5336774, 0.2902968, 9.018949508666992, -0.6915286183357239, 4.045557975769043, 5.097671031951904, -2.3228867053985596, 3.1545379161834717, 
179, 3433118790, 0.77790403, 0.15953937, -0.53372574, 0.2907739, 9.099451065063477, -0.6333978176116943, 4.121359825134277, 4.548892974853516, -2.7767436504364014, 3.5051238536834717, 
180, 3433135457, 0.77777404, 0.15944289, -0.53375137, 0.2911273, 9.089921951293945, -0.6026524305343628, 4.170773506164551, 2.8692498207092285, -2.00704288482666, 3.3365533351898193, 
181, 3433152124, 0.7774588, 0.15988617, -0.5337693, 0.29169285, 9.132603645324707, -0.5133782029151917, 3.934382677078247, 6.692445755004883, -3.5000336170196533, 2.8281800746917725, 
182, 3433168791, 0.7773415, 0.15989509, -0.5336311, 0.29225317, 9.259828567504883, -0.575057864189148, 4.219219207763672, 4.457915782928467, -1.0720516443252563, 3.837679386138916, 
183, 3433185458, 0.77740496, 0.15971796, -0.5333099, 0.29276666, 9.029047012329102, -0.6722751259803772, 4.060050964355469, 3.6043601036071777, 0.8703452944755554, 3.7701005935668945, 
184, 3433202125, 0.77733326, 0.15986837, -0.5331269, 0.29320794, 9.007007598876953, -0.6310087442398071, 4.074296474456787, 4.957991600036621, -1.1086266040802002, 2.603915214538574, 
185, 3433218792, 0.7772082, 0.15988395, -0.5331352, 0.29351607, 9.052979469299316, -0.6138611435890198, 4.205685138702393, 3.527996063232422, -2.2149417400360107, 2.747973918914795, 
186, 3433235459, 0.77711284, 0.15990333, -0.53305054, 0.29391143, 9.083784103393555, -0.6174573302268982, 4.164462566375732, 4.068897724151611, -1.537959337234497, 3.058694362640381, 
187, 3433252126, 0.7770698, 0.1598701, -0.532889, 0.2943357, 9.062125205993652, -0.6778407096862793, 4.201233386993408, 3.9174115657806396, -0.800057590007782, 3.185272455215454, 
188, 3433268793, 0.77704203, 0.15982662, -0.53268194, 0.29480737, 9.070112228393555, -0.7016105651855469, 4.148241996765137, 3.840125322341919, -0.42115604877471924, 3.2822039127349854, 
189, 3433285460, 0.776959, 0.15984637, -0.53251535, 0.29531577, 9.090847969055176, -0.7032650709152222, 4.157668590545654, 4.473591327667236, -0.9497509598731995, 3.4760401248931885, 
190, 3433302127, 0.77684015, 0.15987992, -0.53238934, 0.29583687, 9.076354026794434, -0.6988378763198853, 4.140380382537842, 4.596481800079346, -1.3227745294570923, 3.6275532245635986, 
191, 3433318794, 0.7767414, 0.15993495, -0.5322462, 0.2963241, 9.038089752197266, -0.6926565170288086, 4.143121242523193, 4.598209857940674, -1.2452958822250366, 3.30583119392395, 
192, 3433335461, 0.77666616, 0.16002426, -0.5320759, 0.29677838, 9.028365135192871, -0.6655834913253784, 4.117712497711182, 4.701057434082031, -1.1282970905303955, 2.9298624992370605, 
193, 3433352128, 0.77659106, 0.16012385, -0.5318942, 0.29724616, 9.028429985046387, -0.6338275074958801, 4.134779453277588, 4.738490581512451, -1.0736652612686157, 2.9138548374176025, 
194, 3433368795, 0.7764818, 0.16019969, -0.53180194, 0.29765564, 9.029438018798828, -0.6273289322853088, 4.108361721038818, 4.408970355987549, -1.71005117893219, 2.926251173019409, 
195, 3433385462, 0.7763917, 0.16020428, -0.53171825, 0.29803723, 9.069401741027832, -0.6395823955535889, 4.113702774047852, 4.003086566925049, -1.5841392278671265, 3.0580029487609863, 
196, 3433402129, 0.7762997, 0.16015826, -0.53166854, 0.29839036, 9.080068588256836, -0.6894519925117493, 4.102411270141602, 3.4603271484375, -1.6978211402893066, 3.0924901962280273, 
197, 3433418796, 0.7762261, 0.1601891, -0.5315405, 0.2987931, 9.086546897888184, -0.6865482926368713, 4.05651330947876, 4.260494232177734, -1.3245929479599, 2.9797561168670654, 
198, 3433435463, 0.77616763, 0.16028929, -0.5313449, 0.29923916, 9.072906494140625, -0.7241054177284241, 4.066867351531982, 4.6244120597839355, -0.9825864434242249, 2.73323392868042, 
199, 3433452130, 0.77615017, 0.16041152, -0.5310877, 0.299675, 9.056815147399902, -0.6950637102127075, 4.066545486450195, 4.859612941741943, -0.5678655505180359, 2.473968982696533, 
200, 3433468797, 0.77618444, 0.16051202, -0.53079724, 0.30004644, 9.05119514465332, -0.679171085357666, 4.104038238525391, 4.674253940582275, -0.24022795259952545, 2.1322574615478516, 
201, 3433485464, 0.77626616, 0.16059181, -0.5304346, 0.30043337, 9.036641120910645, -0.684195876121521, 4.089996337890625, 4.355849742889404, 0.40236276388168335, 1.9624452590942383, 
202, 3433502131, 0.77636033, 0.1606339, -0.5300881, 0.30077884, 9.052909851074219, -0.6445714235305786, 4.122259140014648, 4.11345100402832, 0.37950342893600464, 1.9365763664245605, 
203, 3433518798, 0.7764824, 0.16063549, -0.5297228, 0.3011065, 9.081822395324707, -0.6801639795303345, 4.136537551879883, 3.8208770751953125, 0.6456321477890015, 1.9066095352172852, 
204, 3433535465, 0.776641, 0.1606506, -0.5292946, 0.30144227, 9.050847053527832, -0.7023048996925354, 4.11041784286499, 4.146171569824219, 1.0812530517578125, 1.8142372369766235, 
205, 3433552132, 0.77675974, 0.16074854, -0.528903, 0.30177093, 9.048199653625488, -0.7271673679351807, 4.1054887771606445, 4.842414379119873, 0.5383533835411072, 1.7294466495513916, 
206, 3433568799, 0.77679265, 0.16096637, -0.528569, 0.30215555, 9.05473518371582, -0.7386374473571777, 4.122447490692139, 5.347291469573975, -0.24601639807224274, 1.6996716260910034, 
207, 3433585466, 0.77685755, 0.1609861, -0.5282872, 0.3024709, 9.0162992477417, -0.7991060018539429, 4.233151435852051, 3.957508087158203, -0.07904720306396484, 2.0665993690490723, 
208, 3433602133, 0.7767719, 0.1615505, -0.52802163, 0.30285355, 8.973943710327148, -0.6236999034881592, 3.862178087234497, 7.276665210723877, -1.779340147972107, 0.7869055271148682, 
209, 3433618800, 0.77662456, 0.16211225, -0.527695, 0.30349946, 9.1478271484375, -0.6530129313468933, 4.046079158782959, 8.2688570022583, -1.3557381629943848, 2.204805850982666, 
210, 3433635467, 0.7766866, 0.1621499, -0.5272699, 0.3040591, 8.987433433532715, -0.7580977082252502, 4.274311542510986, 5.260798454284668, 0.9219036102294922, 3.1595447063446045, 
211, 3433652134, 0.77652496, 0.16258776, -0.5270839, 0.30456042, 8.908056259155273, -0.6896862983703613, 3.9842498302459717, 6.8191399574279785, -2.066516399383545, 2.0773825645446777, 
212, 3433668801, 0.7761448, 0.16305298, -0.5272722, 0.3049543, 9.025236129760742, -0.6950328946113586, 4.303332805633545, 5.937152862548828, -5.02265739440918, 2.237128973007202, 
213, 3433685468, 0.77579457, 0.16343562, -0.5273661, 0.30547783, 9.1455717086792, -0.7141793966293335, 4.2925705909729, 6.086770057678223, -4.098462104797363, 3.039088249206543, 
214, 3433702135, 0.7756104, 0.1636997, -0.52716964, 0.30614227, 9.070830345153809, -0.6961104273796082, 4.292313098907471, 6.374030113220215, -1.5442990064620972, 3.538882255554199, 
215, 3433718802, 0.775545, 0.16379099, -0.5269164, 0.30669472, 9.048049926757812, -0.6948561668395996, 4.252877235412598, 5.216782569885254, -0.5955273509025574, 3.3329551219940186, 
216, 3433735469, 0.7754448, 0.163913, -0.5266818, 0.30728525, 9.058812141418457, -0.6653909683227539, 4.24736213684082, 5.5563554763793945, -0.8509756922721863, 3.5360260009765625, 
217, 3433752136, 0.7753181, 0.16406284, -0.52646756, 0.30789164, 9.055586814880371, -0.6469108462333679, 4.233366966247559, 5.7054219245910645, -1.0988298654556274, 3.5820133686065674, 
218, 3433768803, 0.77519196, 0.1641934, -0.52628654, 0.3084487, 9.013816833496094, -0.6931210160255432, 4.209914684295654, 5.268917083740234, -1.2871471643447876, 3.391864776611328, 
219, 3433785470, 0.7751089, 0.16429928, -0.5261034, 0.30891287, 9.010087013244629, -0.721206784248352, 4.218869209289551, 5.229395866394043, -1.2123708724975586, 3.0967421531677246, 
220, 3433802137, 0.77503276, 0.1644587, -0.5258595, 0.30943388, 9.023513793945312, -0.7201153039932251, 4.200625419616699, 5.472358703613281, -0.8880628347396851, 2.9622113704681396, 
221, 3433818804, 0.7749034, 0.16467099, -0.525698, 0.30991933, 8.99277400970459, -0.7093701362609863, 4.209042549133301, 5.520075798034668, -1.6751283407211304, 2.791349411010742, 
222, 3433835471, 0.77475464, 0.16489254, -0.5255775, 0.31037742, 9.029903411865234, -0.679618775844574, 4.178374767303467, 5.434453010559082, -2.020554304122925, 2.7122702598571777, 
223, 3433852138, 0.7745877, 0.16502164, -0.52554363, 0.31078273, 9.060619354248047, -0.6904745697975159, 4.2267746925354, 4.2476487159729, -2.386303424835205, 2.75793719291687, 
224, 3433868805, 0.774447, 0.1651418, -0.5254808, 0.31117538, 9.074333190917969, -0.7057714462280273, 4.206510543823242, 4.503538608551025, -2.1581642627716064, 2.770442485809326, 
225, 3433885472, 0.7743417, 0.16522014, -0.5253737, 0.3115763, 9.0298433303833, -0.719731867313385, 4.204079627990723, 4.345630645751953, -1.6960028409957886, 2.8315865993499756, 
226, 3433902139, 0.7742612, 0.1652238, -0.52528644, 0.3119217, 9.000358581542969, -0.7265099883079529, 4.17531681060791, 3.867825508117676, -1.6327265501022339, 2.8560853004455566, 
227, 3433918806, 0.7741575, 0.16524717, -0.5252329, 0.31225637, 9.016938209533691, -0.7093570232391357, 4.18032693862915, 3.8126044273376465, -1.9457136392593384, 2.781846761703491, 
228, 3433935473, 0.77407324, 0.16521247, -0.5252054, 0.31252986, 9.018948554992676, -0.7248952388763428, 4.168766975402832, 3.211090087890625, -1.9603004455566406, 2.657318115234375, 
229, 3433952140, 0.7739878, 0.16516277, -0.5252023, 0.31277296, 9.004692077636719, -0.7416536211967468, 4.172934055328369, 2.8199069499969482, -2.0850467681884766, 2.5136051177978516, 
230, 3433968807, 0.7738979, 0.16508514, -0.52523774, 0.31297654, 9.014753341674805, -0.7446514964103699, 4.172306537628174, 2.5982930660247803, -2.3048675060272217, 2.518740177154541, 
231, 3433985474, 0.7737909, 0.16500536, -0.5252992, 0.31318003, 9.018261909484863, -0.715975821018219, 4.1557183265686035, 2.6499922275543213, -2.5087192058563232, 2.633946180343628, 
232, 3434002141, 0.77366424, 0.16496405, -0.5253652, 0.31340393, 9.030957221984863, -0.7201372385025024, 4.168344974517822, 2.7810659408569336, -2.6501400470733643, 2.5813121795654297, 
233, 3434018808, 0.77350855, 0.16495906, -0.52547014, 0.3136148, 9.027069091796875, -0.7334224581718445, 4.18320894241333, 2.6341769695281982, -3.0374040603637695, 2.3824424743652344, 
234, 3434035475, 0.7733018, 0.16490556, -0.5256685, 0.31382033, 9.004475593566895, -0.7823521494865417, 4.26812744140625, 1.656821608543396, -3.5747711658477783, 2.5042436122894287, 
235, 3434052142, 0.7729948, 0.16514544, -0.5259325, 0.3140081, 8.975445747375488, -0.7025063633918762, 4.075510501861572, 2.6188602447509766, -4.904147148132324, 1.4188027381896973, 
236, 3434068809, 0.77264315, 0.16554356, -0.5260792, 0.31441817, 9.136253356933594, -0.7319373488426208, 4.082066535949707, 4.576989650726318, -4.529356956481934, 1.9974963665008545, 
237, 3434085476, 0.7726023, 0.16544564, -0.5259586, 0.31477156, 9.034721374511719, -0.7723724246025085, 4.301904201507568, 1.9402004480361938, -0.9701257944107056, 2.5055625438690186, 
238, 3434102143, 0.7725094, 0.16553907, -0.525941, 0.31497958, 8.901556015014648, -0.6872681975364685, 3.9709012508392334, 2.403982400894165, -2.303010940551758, 1.3280441761016846, 
239, 3434118810, 0.7721247, 0.16587912, -0.5263765, 0.3150165, 9.01463794708252, -0.6703959107398987, 4.187966823577881, 2.2987143993377686, -6.476345062255859, 0.6142054796218872, 
240, 3434135477, 0.77176446, 0.1661415, -0.5267873, 0.31507424, 9.195642471313477, -0.7480039596557617, 4.294870853424072, 2.1971471309661865, -6.084304332733154, 1.017643928527832, 
241, 3434152144, 0.77167606, 0.16629957, -0.52672404, 0.315313, 9.098700523376465, -0.7611579298973083, 4.205466270446777, 2.8622963428497314, -2.1413307189941406, 1.1596918106079102, 
242, 3434168811, 0.7716963, 0.16639695, -0.52657056, 0.31546852, 9.049412727355957, -0.7666021585464478, 4.133211135864258, 2.250882148742676, -1.2310680150985718, 0.5720340013504028, 
243, 3434185478, 0.7716608, 0.16654621, -0.5264926, 0.31560674, 9.070666313171387, -0.7197455167770386, 4.129091739654541, 2.424459457397461, -1.9708267450332642, 0.5257390141487122, 
244, 3434202145, 0.7716439, 0.16659357, -0.52647924, 0.31564555, 9.045570373535156, -0.7054927349090576, 4.152441024780273, 1.863644003868103, -2.179096221923828, 0.6152554750442505, 
245, 3434218812, 0.7716067, 0.16671996, -0.52644897, 0.31572035, 8.988517761230469, -0.7144207954406738, 4.110934257507324, 1.8856453895568848, -2.2445881366729736, 0.29390570521354675, 
246, 3434235479, 0.7715806, 0.16690476, -0.5263974, 0.31577247, 8.996342658996582, -0.7268099784851074, 4.123250961303711, 2.230750799179077, -2.2513113021850586, -0.04947733134031296, 
247, 3434252146, 0.77156144, 0.16715355, -0.5262574, 0.3159207, 9.056105613708496, -0.7089490294456482, 4.074567794799805, 2.894183397293091, -1.7694212198257446, 0.023013008758425713, 
248, 3434268813, 0.771567, 0.16739547, -0.5260599, 0.31610778, 9.056610107421875, -0.6725181937217712, 4.11185359954834, 3.0260636806488037, -1.306228518486023, 0.10526818782091141, 
249, 3434285480, 0.77157766, 0.16767012, -0.52582496, 0.31632733, 9.099722862243652, -0.6059110760688782, 4.0721211433410645, 3.4703032970428467, -1.1288222074508667, 0.14186877012252808, 
250, 3434302147, 0.77158785, 0.1678407, -0.52567834, 0.31645527, 9.148850440979004, -0.624434232711792, 4.119100093841553, 2.578648090362549, -1.4886677265167236, 0.21763108670711517, 
251, 3434318814, 0.771632, 0.16801822, -0.52543575, 0.31665656, 9.124069213867188, -0.6295717358589172, 4.102619647979736, 3.0972537994384766, -0.7891336679458618, 0.422891229391098, 
252, 3434335481, 0.77172226, 0.16817443, -0.52509445, 0.31691933, 9.07424545288086, -0.6629684567451477, 4.0896897315979, 3.228058099746704, 0.03215674310922623, 0.5548478364944458, 
253, 3434352148, 0.7718279, 0.16831407, -0.5247399, 0.31717506, 9.027999877929688, -0.6693199276924133, 4.0839385986328125, 3.293754816055298, 0.176036074757576, 0.6043059825897217, 
254, 3434368815, 0.77189034, 0.1684927, -0.5244289, 0.3174426, 8.994108200073242, -0.662541925907135, 4.118402481079102, 3.2996199131011963, -0.26335614919662476, 0.5866844654083252, 
255, 3434385482, 0.771938, 0.16863105, -0.5241685, 0.3176831, 8.99763298034668, -0.6649911403656006, 4.111073017120361, 3.2062106132507324, -0.5531766414642334, 0.8150728940963745, 
256, 3434402149, 0.7719601, 0.16873908, -0.5239245, 0.3179745, 9.05040454864502, -0.6517674922943115, 4.108945369720459, 3.037012815475464, -0.5913267135620117, 1.190951943397522, 
257, 3434418816, 0.77197367, 0.16883685, -0.5236771, 0.31829724, 9.054770469665527, -0.6495245099067688, 4.1068291664123535, 2.955359935760498, -0.5285243988037109, 1.342822551727295, 
258, 3434435483, 0.7720223, 0.16890293, -0.52340466, 0.3185924, 9.039838790893555, -0.6429169774055481, 4.111652851104736, 3.1105408668518066, -0.2624533474445343, 1.3843345642089844, 
259, 3434452150, 0.7720668, 0.16902392, -0.5230961, 0.31892672, 9.049238204956055, -0.6363837122917175, 4.128718376159668, 3.244309425354004, -0.1272374838590622, 1.1986486911773682, 
260, 3434468817, 0.7721182, 0.16913347, -0.5228105, 0.3192128, 9.018299102783203, -0.675851047039032, 4.12930965423584, 2.920334815979004, -0.2512798011302948, 0.984142541885376, 
261, 3434485484, 0.7721493, 0.16917823, -0.52259773, 0.31946224, 9.028965950012207, -0.7065814137458801, 4.220509052276611, 2.427866220474243, -0.619193434715271, 1.2051160335540771, 
262, 3434502151, 0.77212363, 0.16932297, -0.52249366, 0.3196176, 8.962427139282227, -0.6584256291389465, 4.147690773010254, 2.5276918411254883, -1.735804557800293, 0.6323391199111938, 
263, 3434518818, 0.7719906, 0.16976358, -0.52231956, 0.31998944, 9.09838581085205, -0.676655650138855, 4.049880504608154, 5.110118389129639, -2.142099380493164, 0.854209303855896, 
264, 3434535485, 0.77216774, 0.16968006, -0.5218867, 0.32031256, 9.081660270690918, -0.7031129002571106, 4.382190227508545, 2.7046046257019043, 1.4193596839904785, 1.6454684734344482, 
265, 3434552152, 0.7724121, 0.1697343, -0.5213137, 0.3206275, 8.912287712097168, -0.6362047791481018, 4.0291619300842285, 3.2391555309295654, 2.116960287094116, 0.6221902370452881, 
266, 3434568819, 0.7724082, 0.16999596, -0.5211389, 0.3207827, 8.975556373596191, -0.582134485244751, 4.192493915557861, 2.9197194576263428, -1.504752516746521, -0.07147863507270813, 
267, 3434585486, 0.7722829, 0.17022036, -0.5211725, 0.32091054, 9.116653442382812, -0.6280571222305298, 4.323897838592529, 2.642834186553955, -3.0224976539611816, 0.5819846391677856, 
268, 3434602153, 0.7723396, 0.170411, -0.5208404, 0.3212124, 9.03787899017334, -0.6467881202697754, 4.256446838378906, 3.8759450912475586, -0.1679489016532898, 0.8848677277565002, 
269, 3434618820, 0.772488, 0.17053218, -0.5204323, 0.32145184, 8.95048999786377, -0.6753638982772827, 4.245498180389404, 3.3214035034179688, 0.6451326608657837, 0.503584086894989, 
270, 3434635487, 0.7726014, 0.17071168, -0.5200584, 0.32168916, 9.000791549682617, -0.6274105310440063, 4.241781234741211, 3.6692497730255127, 0.19959978759288788, 0.4363635778427124, 
271, 3434652154, 0.7726779, 0.17084014, -0.5197539, 0.32192928, 9.025972366333008, -0.5686026811599731, 4.257785320281982, 3.5837290287017822, -0.20787909626960754, 0.9252332448959351, 
272, 3434668821, 0.7726853, 0.17095804, -0.51955324, 0.32217303, 8.974861145019531, -0.5820834636688232, 4.226139068603516, 2.810059070587158, -0.9352669715881348, 1.0045173168182373, 
273, 3434685488, 0.77268875, 0.17108089, -0.5194095, 0.3223312, 8.984386444091797, -0.6264266967773438, 4.233434677124023, 2.639888286590576, -1.380018711090088, 0.7131727933883667, 
274, 3434702155, 0.77269727, 0.1712712, -0.5191938, 0.32255727, 9.000226974487305, -0.6185935735702515, 4.234371662139893, 3.079939842224121, -1.026307225227356, 0.6004000306129456, 
275, 3434718822, 0.77273774, 0.17141762, -0.5189277, 0.3228105, 8.9834566116333, -0.6167863011360168, 4.268863677978516, 3.140014410018921, -0.5216730833053589, 0.8261504769325256, 
276, 3434735489, 0.7727669, 0.17160302, -0.5186595, 0.32307345, 9.0027437210083, -0.5952955484390259, 4.194643020629883, 3.5571048259735107, -0.6394402980804443, 0.8334500789642334, 
277, 3434752156, 0.77271754, 0.17179208, -0.5185168, 0.3233199, 9.007817268371582, -0.6228945255279541, 4.248551845550537, 2.8700692653656006, -1.5769802331924438, 0.8531333804130554, 
278, 3434768823, 0.772624, 0.17202862, -0.5184194, 0.32357353, 9.04857063293457, -0.6178951859474182, 4.232867240905762, 3.3630881309509277, -2.092013120651245, 0.9911858439445496, 
279, 3434785490, 0.77250546, 0.17231196, -0.5182879, 0.3239167, 9.037057876586914, -0.609766960144043, 4.24484395980835, 4.024537086486816, -1.9957610368728638, 1.3138549327850342, 
280, 3434802157, 0.77241427, 0.17253362, -0.51812553, 0.3242753, 9.033970832824707, -0.6046124696731567, 4.282292366027832, 3.724534749984741, -1.5721395015716553, 1.4910690784454346, 
281, 3434818824, 0.7723329, 0.17272107, -0.5179544, 0.32464266, 9.010845184326172, -0.5800905823707581, 4.288115501403809, 3.7448203563690186, -1.4172468185424805, 1.7019256353378296, 
282, 3434835491, 0.77222806, 0.17288522, -0.5178027, 0.32504633, 8.99614143371582, -0.5852810740470886, 4.272566795349121, 3.444101095199585, -1.486836314201355, 1.9277526140213013, 
283, 3434852158, 0.7721352, 0.17299436, -0.51767546, 0.3254116, 8.979687690734863, -0.5668884515762329, 4.253317356109619, 3.1915855407714844, -1.5160092115402222, 2.0336101055145264, 
284, 3434868825, 0.77201897, 0.17308423, -0.5176074, 0.32574767, 8.965058326721191, -0.5641327500343323, 4.2469305992126465, 2.8624627590179443, -1.902582049369812, 2.065267562866211, 
285, 3434885492, 0.7718775, 0.1731923, -0.5175788, 0.32607046, 8.977174758911133, -0.5538557767868042, 4.244175910949707, 2.857160806655884, -2.2581629753112793, 2.038668155670166, 
286, 3434902159, 0.77172166, 0.17331406, -0.5175548, 0.32641244, 8.993799209594727, -0.5562610626220703, 4.231431484222412, 2.8948755264282227, -2.333989143371582, 2.0845279693603516, 
287, 3434918826, 0.7715321, 0.17346865, -0.51758677, 0.32672808, 9.010933876037598, -0.5508812069892883, 4.265171051025391, 2.930797815322876, -2.85666823387146, 1.991759181022644, 
288, 3434935493, 0.7713262, 0.17359737, -0.5176478, 0.32704875, 9.04849624633789, -0.5731186866760254, 4.294713973999023, 2.821047067642212, -3.009972333908081, 2.2112340927124023, 
289, 3434952160, 0.7711519, 0.1735795, -0.5177865, 0.3272501, 9.002358436584473, -0.6149736642837524, 4.323951244354248, 1.4630104303359985, -3.127086877822876, 2.150545120239258, 
290, 3434968827, 0.7708225, 0.17410173, -0.51785123, 0.32764566, 9.074502944946289, -0.4771299958229065, 4.029123783111572, 5.281455993652344, -4.2661614418029785, 1.4808883666992188, 
291, 3434985494, 0.7706909, 0.1741187, -0.5177691, 0.32807577, 9.122331619262695, -0.6298778653144836, 4.4022111892700195, 2.812018394470215, -1.5930908918380737, 2.8448922634124756, 
292, 3435002161, 0.7707383, 0.17406082, -0.5174043, 0.32857043, 8.942063331604004, -0.6408158540725708, 4.168076515197754, 2.9226911067962646, 0.7958506941795349, 2.647610664367676, 
293, 3435018828, 0.770611, 0.17427373, -0.5172718, 0.32896432, 8.913743019104004, -0.5448251366615295, 4.122549533843994, 3.861537456512451, -1.8007458448410034, 1.9037795066833496, 
294, 3435035495, 0.7702975, 0.17442685, -0.51751715, 0.3292315, 9.016425132751465, -0.5410662889480591, 4.449612617492676, 2.4683473110198975, -4.478745937347412, 2.32519793510437, 
295, 3435052162, 0.7700717, 0.17457029, -0.5174927, 0.32972193, 9.050923347473145, -0.5174093842506409, 4.330574989318848, 3.613081216812134, -2.445955276489258, 2.9786033630371094, 
296, 3435068829, 0.7700284, 0.17453685, -0.5172869, 0.3301631, 9.017645835876465, -0.5495633482933044, 4.364601135253906, 2.798853874206543, -0.5040771961212158, 2.7690277099609375, 
297, 3435085496, 0.77008426, 0.17433849, -0.5170205, 0.33055508, 9.062583923339844, -0.541197657585144, 4.339697360992432, 1.7803770303726196, 0.47936728596687317, 2.8066136837005615, 
298, 3435102163, 0.770119, 0.1740924, -0.5167901, 0.33096385, 9.067569732666016, -0.5192676186561584, 4.3473005294799805, 1.4479371309280396, 0.34887057542800903, 3.1235456466674805, 
299, 3435118830, 0.77016634, 0.17372805, -0.5166402, 0.3312787, 9.036751747131348, -0.5219258666038513, 4.308997631072998, 0.4514366090297699, 0.1091356948018074, 3.19205904006958, 
300, 3435135497, 0.77020365, 0.1733212, -0.5165375, 0.33156556, 9.004335403442383, -0.5766066908836365, 4.336261749267578, -0.19970861077308655, -0.09413307160139084, 3.175347089767456, 
301, 3435152164, 0.7702797, 0.1728879, -0.5164136, 0.33180794, 8.979384422302246, -0.6249465346336365, 4.32963228225708, -0.3919447362422943, 0.15265168249607086, 2.9715211391448975, 
302, 3435168831, 0.77037114, 0.17246889, -0.51620954, 0.33213112, 8.930876731872559, -0.6451466679573059, 4.298191547393799, 0.1471833884716034, 0.6931052207946777, 3.224087953567505, 
303, 3435185498, 0.77039015, 0.17217377, -0.51602113, 0.33253235, 8.899078369140625, -0.6373376846313477, 4.252835273742676, 0.6001695990562439, 0.2067585289478302, 3.144829750061035, 
304, 3435202165, 0.7703443, 0.1718879, -0.51599437, 0.33282802, 8.909440040588379, -0.6246329545974731, 4.266534328460693, 0.3921944499015808, -1.0596421957015991, 3.0793251991271973, 
305, 3435218832, 0.7702389, 0.17159393, -0.51614285, 0.33299345, 8.961539268493652, -0.617963969707489, 4.276457786560059, -0.30886995792388916, -2.346193790435791, 2.825721263885498, 
306, 3435235499, 0.7701411, 0.17134732, -0.5162687, 0.33315158, 8.99242877960205, -0.6212318539619446, 4.260225296020508, -0.052819788455963135, -2.312781810760498, 2.5718350410461426, 
307, 3435252166, 0.7700627, 0.17102844, -0.51643914, 0.33323255, 8.959015846252441, -0.6348728537559509, 4.316338539123535, -1.0618577003479004, -2.385739803314209, 2.329078197479248, 
308, 3435268833, 0.7700053, 0.17065442, -0.5166463, 0.33323598, 8.967942237854004, -0.5891002416610718, 4.321148872375488, -1.6846946477890015, -2.475461006164551, 2.135625123977661, 
309, 3435285500, 0.7699877, 0.1702179, -0.5168768, 0.33314228, 8.975154876708984, -0.5723334550857544, 4.304679870605469, -2.1187658309936523, -2.458479881286621, 1.9376134872436523, 
310, 3435302167, 0.7700226, 0.16965063, -0.517117, 0.3329782, 8.995064735412598, -0.5982531905174255, 4.306502819061279, -3.372866153717041, -2.0874416828155518, 1.8242390155792236, 
311, 3435318834, 0.77007914, 0.16904855, -0.5173387, 0.33280918, 8.949361801147461, -0.6756170988082886, 4.275804042816162, -3.724092721939087, -1.8226573467254639, 1.7786226272583008, 
312, 3435335501, 0.77007866, 0.16852935, -0.5176287, 0.33262256, 8.891131401062012, -0.714824378490448, 4.290567874908447, -3.3100764751434326, -2.608672857284546, 1.660112738609314, 
313, 3435352168, 0.770009, 0.16813637, -0.51799124, 0.3324188, 8.902265548706055, -0.7122092247009277, 4.281038284301758, -2.708357572555542, -3.5564072132110596, 1.3986327648162842, 
314, 3435368835, 0.76987904, 0.16788265, -0.5183953, 0.3322184, 8.937042236328125, -0.7436801195144653, 4.259275913238525, -2.035306930541992, -4.300839900970459, 1.0844929218292236, 
315, 3435385502, 0.76962763, 0.16776477, -0.51890695, 0.33206132, 8.932893753051758, -0.7488658428192139, 4.2716875076293945, -1.4494035243988037, -5.546744346618652, 1.1494978666305542, 
316, 3435402169, 0.7692986, 0.16755489, -0.5195668, 0.33189797, 8.982492446899414, -0.8025356531143188, 4.380333423614502, -1.919793963432312, -6.430576324462891, 1.9218239784240723, 
317, 3435418836, 0.7688885, 0.16751345, -0.52028084, 0.33175045, 8.89907169342041, -0.7156093716621399, 4.2096781730651855, -1.0708863735198975, -7.371380805969238, 1.619183897972107, 
318, 3435435503, 0.76822674, 0.16790548, -0.52103615, 0.33190018, 9.039932250976562, -0.7876056432723999, 4.200934886932373, 2.481602430343628, -9.135149955749512, 2.2644195556640625, 
319, 3435452170, 0.7677776, 0.16783017, -0.5215574, 0.33215854, 9.077081680297852, -0.8446378707885742, 4.432668209075928, 0.6410348415374756, -5.93958044052124, 3.735971689224243, 
320, 3435468837, 0.7673105, 0.16797234, -0.52194715, 0.33255377, 8.92065143585205, -0.8018083572387695, 4.0716023445129395, 2.5770347118377686, -5.649720191955566, 3.555785655975342, 
321, 3435485504, 0.7665796, 0.16826811, -0.5227324, 0.3328563, 8.966115951538086, -0.8051611185073853, 4.235742568969727, 2.2886364459991455, -9.121895790100098, 3.503152370452881, 
322, 3435502171, 0.7658094, 0.16844645, -0.5236325, 0.33312434, 9.033448219299316, -0.8300313353538513, 4.190640926361084, 1.9426473379135132, -9.70073127746582, 4.234332084655762, 
323, 3435518838, 0.7650514, 0.16874054, -0.52428246, 0.33369452, 8.83056640625, -0.8876085877418518, 4.0878119468688965, 3.8668787479400635, -8.222223281860352, 4.945980548858643, 
324, 3435535505, 0.7643789, 0.16894276, -0.5248482, 0.33424357, 8.629536628723145, -0.9482632875442505, 4.008399486541748, 3.7175562381744385, -7.315135955810547, 5.006375312805176, 
325, 3435552172, 0.7636637, 0.16920324, -0.5253801, 0.33491063, 8.530014991760254, -1.0028935670852661, 3.926649570465088, 4.256921291351318, -7.256021499633789, 5.333372592926025, 
326, 3435568839, 0.762845, 0.16943933, -0.52603465, 0.33562848, 8.436903953552246, -1.0987728834152222, 3.9065792560577393, 4.105346202850342, -8.155515670776367, 6.043741703033447, 
327, 3435585506, 0.76195145, 0.16956964, -0.52681726, 0.3363641, 8.434974670410156, -1.1760263442993164, 3.8439152240753174, 3.467961311340332, -8.837006568908691, 6.858188152313232, 
328, 3435602173, 0.7609893, 0.16961329, -0.52771807, 0.3371074, 8.533584594726562, -1.2127585411071777, 3.883267402648926, 2.9933576583862305, -9.510019302368164, 7.55858039855957, 
329, 3435618840, 0.7599745, 0.16963093, -0.5286687, 0.3378974, 8.748100280761719, -1.205593466758728, 3.8902642726898193, 2.5232362747192383, -9.800492286682129, 7.878149509429932, 
330, 3435635507, 0.75898457, 0.16951169, -0.5296967, 0.33857185, 9.143678665161133, -1.1902238130569458, 3.9992737770080566, 1.5024033784866333, -9.962238311767578, 7.930028915405273, 
331, 3435652174, 0.7580292, 0.16940162, -0.53068256, 0.3392225, 9.421198844909668, -1.176257610321045, 4.071141242980957, 1.4640355110168457, -9.655614852905273, 7.611278533935547, 
332, 3435668841, 0.7570975, 0.16934447, -0.53163433, 0.33984116, 9.610336303710938, -1.2211755514144897, 4.293607711791992, 1.6325798034667969, -9.545171737670898, 7.133126735687256, 
333, 3435685508, 0.75631845, 0.16934179, -0.5323552, 0.34044817, 9.674062728881836, -1.2856757640838623, 4.32396936416626, 2.238870620727539, -7.9275360107421875, 6.245466709136963, 
334, 3435702175, 0.7556708, 0.16942228, -0.5328579, 0.3410595, 9.554305076599121, -1.390516757965088, 4.34644889831543, 2.957524538040161, -6.493723392486572, 5.359138011932373, 
335, 3435718842, 0.7551463, 0.16960292, -0.53314555, 0.34168115, 9.402067184448242, -1.4900850057601929, 4.3922295570373535, 3.912468671798706, -5.155843257904053, 4.512369632720947, 
336, 3435735509, 0.75464284, 0.1699144, -0.53328407, 0.34242198, 9.229899406433105, -1.5150998830795288, 4.456385135650635, 5.437885284423828, -4.488889694213867, 4.449965000152588, 
337, 3435752176, 0.7541283, 0.17036128, -0.53328174, 0.34333605, 9.109742164611816, -1.4813593626022339, 4.491622447967529, 7.131384372711182, -3.9272024631500244, 4.705310344696045, 
338, 3435768843, 0.75362253, 0.17086583, -0.5331475, 0.3444022, 9.061334609985352, -1.3970694541931152, 4.4519219398498535, 8.350396156311035, -3.1875081062316895, 5.120262622833252, 
339, 3435785510, 0.75306606, 0.17137702, -0.53303856, 0.3455322, 8.981356620788574, -1.300235629081726, 4.38062858581543, 8.581883430480957, -3.4543027877807617, 5.5524001121521, 
340, 3435802177, 0.7524267, 0.17189988, -0.53302854, 0.34667936, 8.84917163848877, -1.2451996803283691, 4.329828262329102, 8.535896301269531, -4.285025596618652, 5.893727779388428, 
341, 3435818844, 0.75179756, 0.17239264, -0.5330292, 0.3477968, 8.82068920135498, -1.234312891960144, 4.2888360023498535, 8.262494087219238, -4.279775142669678, 5.845307350158691, 
342, 3435835511, 0.75121623, 0.172859, -0.5330559, 0.34877947, 8.732453346252441, -1.269023060798645, 4.313821792602539, 7.525821208953857, -4.3469438552856445, 5.163355350494385, 
343, 3435852178, 0.75067544, 0.17336945, -0.53312224, 0.3495879, 8.675098419189453, -1.2939870357513428, 4.341521263122559, 7.153961181640625, -4.750420570373535, 4.120162010192871, 
344, 3435868845, 0.75017315, 0.17385569, -0.533234, 0.3502537, 8.681245803833008, -1.3563998937606812, 4.393428325653076, 6.240087985992432, -4.955309867858887, 3.3839635848999023, 
345, 3435885512, 0.7498123, 0.17409845, -0.533354, 0.3507228, 8.650757789611816, -1.4372541904449463, 4.4390997886657715, 4.077145099639893, -4.141478061676025, 2.9233827590942383, 
346, 3435902179, 0.7492697, 0.17496066, -0.5334121, 0.35136425, 8.611517906188965, -1.3038164377212524, 4.123683452606201, 8.165689468383789, -5.77880859375, 1.853258490562439, 
347, 3435918846, 0.74875057, 0.17553589, -0.5335851, 0.35192096, 8.742728233337402, -1.3923717737197876, 4.484846591949463, 6.023456573486328, -5.696990013122559, 2.5247857570648193, 
348, 3435935513, 0.7483864, 0.17581764, -0.5336752, 0.35241827, 8.578261375427246, -1.4541231393814087, 4.421449184417725, 4.298989772796631, -4.076691150665283, 2.8084075450897217, 
349, 3435952180, 0.74794674, 0.17634016, -0.5338653, 0.3528024, 8.49361515045166, -1.3292769193649292, 4.354916572570801, 5.097043037414551, -5.6193437576293945, 1.6871472597122192, 
350, 3435968847, 0.74746454, 0.17678234, -0.5343356, 0.352891, 8.570116996765137, -1.370924711227417, 4.494246482849121, 2.9520561695098877, -7.391525745391846, 0.8889015913009644, 
351, 3435985514, 0.74707264, 0.17727965, -0.53470427, 0.35291308, 8.620368003845215, -1.454216480255127, 4.453376293182373, 3.0767135620117188, -6.763169765472412, -0.026618005707859993, 
352, 3436002181, 0.7468118, 0.1777958, -0.5349306, 0.35286242, 8.645843505859375, -1.5016635656356812, 4.464721202850342, 3.2579739093780518, -5.719809055328369, -0.9068368673324585, 
353, 3436018848, 0.7465975, 0.17842004, -0.53503543, 0.35284206, 8.653217315673828, -1.4662891626358032, 4.379663944244385, 4.074775695800781, -5.155651092529297, -1.456779956817627, 
354, 3436035515, 0.74635243, 0.1791859, -0.535108, 0.3528627, 8.704548835754395, -1.424060344696045, 4.367698669433594, 5.146206855773926, -5.4185404777526855, -1.7113064527511597, 
355, 3436052182, 0.7461248, 0.17996061, -0.5351842, 0.35283417, 8.657987594604492, -1.3464468717575073, 4.350065231323242, 5.001097679138184, -5.47063684463501, -2.036229133605957, 
356, 3436068849, 0.7459363, 0.18076798, -0.5352869, 0.3526644, 8.567815780639648, -1.3118025064468384, 4.357365608215332, 4.411673069000244, -5.715378761291504, -2.9997663497924805, 
357, 3436085516, 0.74588645, 0.18155438, -0.5353192, 0.35231635, 8.379904747009277, -1.2731646299362183, 4.358758449554443, 3.5471293926239014, -5.017817497253418, -4.306975364685059, 
358, 3436102183, 0.74607337, 0.18221235, -0.5351839, 0.35178632, 8.153846740722656, -1.2094610929489136, 4.26362943649292, 2.5677762031555176, -3.245225429534912, -5.4642205238342285, 
359, 3436118850, 0.74649704, 0.1827108, -0.5348538, 0.35113037, 7.956037521362305, -1.2030364274978638, 4.163519859313965, 1.3844177722930908, -1.152654767036438, -6.377505779266357, 
360, 3436135517, 0.74721617, 0.1829217, -0.534266, 0.3503852, 7.778183460235596, -1.2535914182662964, 4.0714545249938965, -0.19680161774158478, 1.826172947883606, -6.833949565887451, 
361, 3436152184, 0.74811196, 0.18282321, -0.53357184, 0.3495821, 7.544801235198975, -1.3398113250732422, 4.111873626708984, -2.1092638969421387, 3.69631028175354, -6.623835563659668, 
362, 3436168851, 0.74916494, 0.18250155, -0.5326903, 0.3488389, 7.348382949829102, -1.3815680742263794, 4.060939311981201, -2.945723533630371, 5.847919464111328, -6.189342498779297, 
363, 3436185518, 0.7504225, 0.18187702, -0.53160393, 0.34811848, 7.107425689697266, -1.4047608375549316, 3.836115837097168, -3.93144154548645, 8.366057395935059, -5.624813079833984, 
364, 3436202185, 0.75186443, 0.18102095, -0.5303054, 0.34743357, 6.864603042602539, -1.4334912300109863, 3.623239040374756, -4.69146203994751, 10.720471382141113, -5.3112897872924805, 
365, 3436218852, 0.75338525, 0.18008253, -0.52887434, 0.3468076, 6.670707702636719, -1.4308056831359863, 3.5055112838745117, -4.6276092529296875, 11.948291778564453, -5.056429862976074, 
366, 3436235519, 0.754781, 0.17929995, -0.52749854, 0.34627312, 6.582671165466309, -1.3697261810302734, 3.4802281856536865, -3.508422613143921, 10.949344635009766, -4.821048736572266, 
367, 3436252186, 0.7559203, 0.17881995, -0.5263435, 0.3457935, 6.593373775482178, -1.2508293390274048, 3.4784281253814697, -1.9444974660873413, 8.213150978088379, -4.767569065093994, 
368, 3436268853, 0.7567815, 0.17866473, -0.52541256, 0.34540552, 6.68709135055542, -1.1614933013916016, 3.6131601333618164, -0.15675616264343262, 5.383304595947266, -4.56221866607666, 
369, 3436285520, 0.75749797, 0.17875263, -0.52454466, 0.34510854, 6.858947277069092, -1.1545019149780273, 3.7933294773101807, 1.4836158752441406, 4.057001113891602, -4.548182010650635, 
370, 3436302187, 0.7581684, 0.17905761, -0.5235291, 0.34502062, 7.15826940536499, -1.1772915124893188, 3.980889081954956, 3.797146797180176, 4.390554904937744, -4.316194534301758, 
371, 3436318854, 0.75887567, 0.1794634, -0.52224904, 0.34519464, 7.52944803237915, -1.1495544910430908, 4.255675792694092, 5.858534336090088, 5.974328994750977, -3.7310216426849365, 
372, 3436335521, 0.75971216, 0.17983572, -0.5205753, 0.34568858, 7.914073467254639, -1.1984156370162964, 4.540486812591553, 7.59788179397583, 8.95639419555664, -2.7463419437408447, 
373, 3436352188, 0.76058674, 0.18028098, -0.51850367, 0.34664613, 8.372220993041992, -1.3435736894607544, 5.01369571685791, 10.558088302612305, 11.553118705749512, -1.1661406755447388, 
374, 3436368855, 0.76166487, 0.18073523, -0.5157798, 0.34810254, 8.774011611938477, -1.6493780612945557, 5.803308963775635, 13.7103853225708, 16.26599884033203, 0.1184077039361, 
375, 3436385522, 0.76301336, 0.18182634, -0.5116932, 0.3506032, 9.0355224609375, -1.594881534576416, 5.768959045410156, 23.657508850097656, 24.103992462158203, 0.9663966298103333, 
376, 3436402189, 0.7649107, 0.18276635, -0.50598997, 0.3542383, 9.124709129333496, -1.4829262495040894, 6.219482898712158, 30.059236526489258, 36.273170471191406, 4.092327117919922, 
377, 3436418856, 0.76708, 0.1833087, -0.4995337, 0.35840586, 9.123589515686035, -1.4032763242721558, 6.40678071975708, 31.337772369384766, 42.78084945678711, 6.672943115234375, 
378, 3436435523, 0.7689942, 0.1840241, -0.49309117, 0.36283144, 9.8754243850708, -1.091964840888977, 6.209076404571533, 33.41522216796875, 41.699462890625, 8.07839298248291, 
379, 3436452190, 0.77015245, 0.18499003, -0.48739892, 0.36754397, 10.374842643737793, -1.0965781211853027, 6.7979960441589355, 34.804195404052734, 34.8874397277832, 11.59200382232666, 
380, 3436468857, 0.77087754, 0.18622737, -0.48170638, 0.37286523, 11.0010986328125, -0.9204224348068237, 6.5428571701049805, 38.829830169677734, 33.50636672973633, 15.007795333862305, 
381, 3436485524, 0.77104336, 0.18818583, -0.47661504, 0.3780459, 10.1839599609375, -0.48815709352493286, 5.801510334014893, 41.3602180480957, 26.431344985961914, 14.094273567199707, 
382, 3436502191, 0.77062386, 0.19102463, -0.47295767, 0.38204932, 9.491759300231934, 0.041145242750644684, 4.567030429840088, 39.189605712890625, 13.104896545410156, 8.364096641540527, 
383, 3436518858, 0.7694644, 0.19509788, -0.4710275, 0.38470337, 8.948713302612305, 0.7902459502220154, 3.841160297393799, 37.76879119873047, -3.4466991424560547, 1.4445635080337524, 
384, 3436535525, 0.767583, 0.1999426, -0.4711484, 0.38582477, 9.266670227050781, 1.5382404327392578, 3.6910829544067383, 32.41532516479492, -20.699377059936523, -4.460008144378662, 
385, 3436552192, 0.76540613, 0.20414805, -0.47354683, 0.38501, 11.020506858825684, 1.7663277387619019, 3.8923873901367188, 17.113731384277344, -34.60477066040039, -8.639755249023438, 
386, 3436568859, 0.76359665, 0.20694432, -0.47680128, 0.3830889, 11.689963340759277, 1.6690424680709839, 4.637265205383301, 3.289672613143921, -35.68529510498047, -9.592930793762207, 
387, 3436585526, 0.7614995, 0.20970094, -0.4808167, 0.380738, 13.74281120300293, 1.0315614938735962, 5.007424354553223, 0.061009831726551056, -41.09220504760742, -9.829760551452637, 
388, 3436602193, 0.76006013, 0.21222445, -0.48400742, 0.37816444, 13.932311058044434, 0.4715301990509033, 4.937873363494873, -0.6967135071754456, -34.262264251708984, -13.097978591918945, 
389, 3436618860, 0.75901157, 0.21401553, -0.48708388, 0.37530026, 12.934640884399414, 0.34467336535453796, 4.898862361907959, -5.768752574920654, -30.83367347717285, -13.338860511779785, 
390, 3436635527, 0.75840604, 0.21446283, -0.4900456, 0.3724021, 11.732800483703613, 0.07848598062992096, 5.0913987159729, -13.255799293518066, -25.298545837402344, -10.311905860900879, 
391, 3436652194, 0.75843334, 0.21363632, -0.49234754, 0.36977583, 10.685070991516113, -0.3418923020362854, 5.023172855377197, -18.226987838745117, -16.04631996154785, -7.187520980834961, 
392, 3436668861, 0.75886494, 0.21190274, -0.49408937, 0.36755797, 9.533590316772461, -0.6196069121360779, 4.669856071472168, -20.742691040039062, -8.842281341552734, -3.841622829437256, 
393, 3436685528, 0.75938463, 0.2097027, -0.4955283, 0.3658051, 8.569489479064941, -0.8096827268600464, 4.231611728668213, -20.956710815429688, -5.1025896072387695, -0.5056148171424866, 
394, 3436702195, 0.75987023, 0.20738868, -0.49665174, 0.3645903, 7.75319766998291, -0.8963891863822937, 3.812748908996582, -18.87185287475586, -2.505328893661499, 2.3093206882476807, 
395, 3436718862, 0.7601513, 0.20512721, -0.49769026, 0.36386678, 7.286215782165527, -0.8543044924736023, 3.3867855072021484, -16.41036033630371, -2.186885118484497, 5.072164535522461, 
396, 3436735529, 0.76008964, 0.20306762, -0.49882883, 0.36359164, 7.291695594787598, -0.728944718837738, 3.272418737411499, -13.584495544433594, -3.7474417686462402, 7.709800720214844, 
397, 3436752196, 0.7597478, 0.2013603, -0.5000482, 0.36358073, 7.588668346405029, -0.5839320421218872, 3.388723373413086, -10.646381378173828, -5.630501747131348, 8.686195373535156, 
398, 3436768863, 0.75923526, 0.2003971, -0.50106764, 0.3637797, 7.993045806884766, -0.4898044466972351, 3.387277841567993, -5.3019914627075195, -6.731961727142334, 7.368199825286865, 
399, 3436785530, 0.7586887, 0.20031896, -0.50162244, 0.36419806, 8.286355972290039, -0.4192740023136139, 3.283212423324585, 1.2835551500320435, -6.321759223937988, 4.910211086273193, 
400, 3436802197, 0.7581534, 0.20103267, -0.5016203, 0.36492217, 8.268342018127441, -0.3043566346168518, 3.172461986541748, 7.846658229827881, -4.921219825744629, 2.981511116027832, 
401, 3436818864, 0.75759757, 0.20250292, -0.50092477, 0.3662167, 8.006861686706543, -0.029728030785918236, 2.9955382347106934, 15.523102760314941, -2.468803644180298, 2.445810079574585, 
402, 3436835531, 0.75696814, 0.20446818, -0.49959853, 0.36823213, 7.740728378295898, 0.19225670397281647, 3.0702147483825684, 22.27288246154785, 0.340406209230423, 3.8158247470855713, 
403, 3436852198, 0.7564915, 0.20616964, -0.4977896, 0.37070462, 7.286759853363037, 0.3597536087036133, 3.191201686859131, 23.470232009887695, 4.704063415527344, 6.052895545959473, 
404, 3436868865, 0.7559403, 0.2080976, -0.49526167, 0.3741218, 7.078246593475342, 0.33651983737945557, 3.0733911991119385, 29.81302833557129, 8.961456298828125, 9.379982948303223, 
405, 3436885532, 0.7556143, 0.20917225, -0.49246028, 0.37786067, 6.480014801025391, 0.13316719233989716, 3.7148687839508057, 26.8465633392334, 13.8147611618042, 13.00479507446289, 
406, 3436902199, 0.7551588, 0.2104115, -0.4894332, 0.38199335, 5.975918292999268, -0.041668154299259186, 3.572342872619629, 29.80036163330078, 14.683265686035156, 14.518523216247559, 
407, 3436918866, 0.75444967, 0.2121228, -0.4862009, 0.38654876, 5.8062005043029785, -0.024361537769436836, 3.815345287322998, 34.57440948486328, 14.26091194152832, 15.502009391784668, 
408, 3436935533, 0.75375974, 0.21386875, -0.4823818, 0.39168313, 5.895623683929443, -0.05431362986564636, 3.989086389541626, 38.2142219543457, 18.110401153564453, 17.492782592773438, 
409, 3436952200, 0.75319016, 0.21555862, -0.47790197, 0.3973037, 5.808665752410889, 0.09400077164173126, 4.098426818847656, 41.13206100463867, 22.788837432861328, 18.91178321838379, 
410, 3436968867, 0.7526332, 0.21711947, -0.47322416, 0.4030668, 5.7386932373046875, 0.268112450838089, 4.267043590545654, 41.44565963745117, 24.4057559967041, 19.75779914855957, 
411, 3436985534, 0.75222075, 0.21828331, -0.46842626, 0.40877235, 5.703670024871826, 0.37982413172721863, 4.145026683807373, 39.31010818481445, 26.495187759399414, 20.186044692993164, 
412, 3437002201, 0.7520821, 0.21881784, -0.4637863, 0.41399893, 5.6672587394714355, 0.5461065173149109, 4.064235210418701, 33.64632034301758, 27.598527908325195, 19.218576431274414, 
413, 3437018868, 0.75211734, 0.21893069, -0.4596504, 0.4184636, 5.767131328582764, 0.7141778469085693, 3.865187406539917, 27.327964782714844, 25.59187126159668, 16.903762817382812, 
414, 3437035535, 0.75218505, 0.21883413, -0.45670512, 0.42160535, 6.481132984161377, 0.39916443824768066, 3.8176229000091553, 18.575483322143555, 18.14314079284668, 12.441852569580078, 
415, 3437052202, 0.75214374, 0.21900173, -0.45539007, 0.42301238, 7.827991962432861, -8.553923107683659E-4, 4.443952560424805, 9.925130844116211, 5.997241973876953, 5.422736167907715, 
416, 3437068869, 0.75239015, 0.21931721, -0.45500904, 0.42282042, 9.992777824401855, -0.34125691652297974, 5.312958717346191, 2.529741048812866, -0.7624068856239319, -2.7332913875579834, 
417, 3437085536, 0.75300026, 0.21999231, -0.45464423, 0.42177513, 11.788219451904297, -0.2620934844017029, 5.57098913192749, 1.1264338493347168, -2.0298900604248047, -9.303770065307617, 
418, 3437102203, 0.7533068, 0.2205734, -0.45522234, 0.42029816, 11.895842552185059, -0.20793479681015015, 5.185974597930908, -2.9848222732543945, -8.217191696166992, -8.932132720947266, 
419, 3437118870, 0.753253, 0.22050732, -0.45725948, 0.4182127, 11.310535430908203, -0.5148441791534424, 5.095918655395508, -11.909034729003906, -15.924022674560547, -6.79892110824585, 
420, 3437135537, 0.75342095, 0.21943647, -0.45994368, 0.41552138, 11.885756492614746, -1.66130793094635, 5.412424564361572, -21.2108211517334, -16.58204460144043, -6.436712265014648, 
421, 3437152204, 0.7536558, 0.21809343, -0.46282962, 0.41258758, 13.282777786254883, -2.789065361022949, 6.073899269104004, -24.05052375793457, -16.980077743530273, -6.741457462310791, 
422, 3437168871, 0.7533231, 0.21702756, -0.46583423, 0.41036975, 14.96512508392334, -3.3186209201812744, 6.830030918121338, -19.798465728759766, -19.087955474853516, -2.1625816822052, 
423, 3437185538, 0.75163823, 0.21664676, -0.4698568, 0.40907243, 14.896892547607422, -2.9613451957702637, 7.2968950271606445, -14.130879402160645, -29.221786499023438, 5.699832439422607, 
424, 3437202205, 0.74959755, 0.21662433, -0.47373345, 0.40835726, 14.53995132446289, -2.0812575817108154, 6.740792751312256, -9.437886238098145, -29.741788864135742, 8.29859733581543, 
425, 3437218872, 0.7479432, 0.21634309, -0.4770309, 0.40770036, 13.278178215026855, -1.544084072113037, 5.966980457305908, -9.52116870880127, -24.6644344329834, 7.474100112915039, 
426, 3437235539, 0.7463873, 0.21611558, -0.4805726, 0.4065119, 11.762557983398438, -1.5001298189163208, 5.893430233001709, -11.812196731567383, -26.521076202392578, 4.640573978424072, 
427, 3437252206, 0.7450637, 0.21616806, -0.4835569, 0.40537155, 10.728803634643555, -1.378342866897583, 5.726377010345459, -8.99673080444336, -23.5991153717041, 2.471963882446289, 
428, 3437268873, 0.74428046, 0.21616438, -0.48563513, 0.40432638, 9.6040678024292, -1.276489019393921, 5.224360466003418, -7.2403411865234375, -16.86461639404297, 0.2827133238315582, 
429, 3437285540, 0.7439889, 0.21604507, -0.48696986, 0.4033204, 8.689432144165039, -1.1485941410064697, 4.721584796905518, -6.361243724822998, -11.044439315795898, -1.6129670143127441, 
430, 3437302207, 0.7440519, 0.21585535, -0.487656, 0.40247577, 7.946975231170654, -1.0281562805175781, 4.3328328132629395, -4.905722618103027, -6.109622955322266, -2.50856614112854, 
431, 3437318874, 0.7445275, 0.21538237, -0.48804024, 0.40138268, 7.2278733253479, -0.9640398025512695, 4.016467094421387, -6.960221290588379, -2.7695982456207275, -4.4284563064575195, 
432, 3437335541, 0.74526346, 0.2153237, -0.4874504, 0.40076447, 6.886155128479004, -0.9147915244102478, 3.245541572570801, -0.9402742385864258, 2.645561456680298, -5.556643486022949, 
433, 3437352208, 0.7461994, 0.21501473, -0.48696017, 0.39978343, 6.448379993438721, -1.1479289531707764, 3.560213327407837, -4.004642963409424, 2.963479995727539, -6.988369464874268, 
434, 3437368875, 0.7470224, 0.2152203, -0.48647645, 0.3987238, 6.228466033935547, -1.2247241735458374, 3.034862756729126, -1.4724808931350708, 1.0180281400680542, -8.80502700805664, 
435, 3437385542, 0.7475308, 0.21577828, -0.4862024, 0.39780244, 6.097327709197998, -1.3105179071426392, 3.2389297485351562, 0.6982279419898987, -1.8684402704238892, -8.114175796508789, 
436, 3437402209, 0.74811774, 0.2158349, -0.4856987, 0.39728338, 6.046736240386963, -1.3385717868804932, 3.234194040298462, -0.014656868763267994, 1.5436265468597412, -4.941478252410889, 
437, 3437418876, 0.7489042, 0.21515083, -0.48504725, 0.39696813, 5.737288475036621, -1.2547448873519897, 3.046194314956665, -3.0290286540985107, 5.2952985763549805, -2.1990108489990234, 
438, 3437435543, 0.7497969, 0.213915, -0.48457876, 0.39652273, 5.639490127563477, -1.0353235006332397, 2.954894781112671, -6.952395915985107, 6.022302627563477, -1.0632410049438477, 
439, 3437452210, 0.7506266, 0.21248911, -0.48441923, 0.3959145, 5.743795394897461, -0.8424994945526123, 2.8591816425323486, -9.220069885253906, 4.499858379364014, -0.6535402536392212, 
440, 3437468877, 0.7513527, 0.21091057, -0.484734, 0.3949951, 5.959680080413818, -0.7855215072631836, 3.0582754611968994, -12.179644584655762, 1.6720362901687622, -0.7848439812660217, 
441, 3437485544, 0.75212824, 0.20912841, -0.48522565, 0.39386147, 6.146080493927002, -0.8018397688865662, 3.4239630699157715, -14.495038032531738, 1.1674532890319824, -1.0964868068695068, 
442, 3437502211, 0.7530138, 0.20708299, -0.48572975, 0.39262685, 6.383598327636719, -0.8194161057472229, 3.710775375366211, -16.382991790771484, 2.0373384952545166, -1.0288310050964355, 
443, 3437518878, 0.75410837, 0.20463336, -0.48606163, 0.3913978, 6.693475723266602, -0.9173219799995422, 3.7737183570861816, -18.28681755065918, 4.721681118011475, -0.46609407663345337, 
444, 3437535545, 0.75541043, 0.2017099, -0.48613402, 0.39031357, 6.882899761199951, -1.180456280708313, 3.883087635040283, -19.850942611694336, 8.237044334411621, 0.9373623728752136, 
445, 3437552212, 0.7566853, 0.1988196, -0.48603535, 0.38944867, 6.853888511657715, -1.2310998439788818, 3.8639943599700928, -18.444122314453125, 9.248554229736328, 1.7889983654022217, 
446, 3437568879, 0.7577783, 0.19628069, -0.48583683, 0.38885853, 7.086611747741699, -1.067441463470459, 3.7586750984191895, -15.1775484085083, 8.593446731567383, 2.3836798667907715, 
447, 3437585546, 0.758664, 0.19397934, -0.48574746, 0.38839746, 7.665477752685547, -0.8224434852600098, 3.93605375289917, -13.51729965209961, 6.8745317459106445, 2.95625901222229, 
448, 3437602213, 0.75934833, 0.19175607, -0.485928, 0.3879379, 8.8570556640625, -0.753578782081604, 3.8656413555145264, -13.557024002075195, 4.590644359588623, 3.5993423461914062, 
449, 3437618880, 0.75958997, 0.19001901, -0.4866241, 0.3874467, 10.317123413085938, -1.11055588722229, 4.427173614501953, -11.916115760803223, -0.9035972356796265, 3.6714799404144287, 
450, 3437635547, 0.7593088, 0.18926439, -0.4875662, 0.3871829, 11.33161735534668, -1.2362871170043945, 4.7528886795043945, -5.995594501495361, -6.2394280433654785, 3.285764217376709, 
451, 3437652214, 0.75843745, 0.18963435, -0.48872626, 0.38724753, 11.459626197814941, -0.8251663446426392, 4.704465866088867, 1.1663771867752075, -11.903156280517578, 3.0868186950683594, 
452, 3437668881, 0.7573997, 0.19075412, -0.4896869, 0.38751468, 12.248834609985352, -0.6040592789649963, 4.663349151611328, 6.502915382385254, -13.134272575378418, 1.8122791051864624, 
453, 3437685548, 0.7564451, 0.19236241, -0.49017978, 0.3879607, 13.987041473388672, -0.31311821937561035, 5.281886577606201, 10.782444953918457, -11.459153175354004, 0.276719868183136, 
454, 3437702215, 0.755584, 0.19434012, -0.49039966, 0.38837507, 16.412277221679688, -0.24145135283470154, 5.9213457107543945, 13.195956230163574, -10.724540710449219, -1.7226287126541138, 
455, 3437718882, 0.75365627, 0.1983076, -0.49135256, 0.3889099, 14.75478458404541, 0.24742838740348816, 6.068968296051025, 23.39959716796875, -23.245773315429688, -3.9529194831848145, 
456, 3437735549, 0.75126433, 0.20298569, -0.49291867, 0.38914248, 13.499996185302734, 0.2716675400733948, 5.977677822113037, 25.042686462402344, -30.284631729125977, -5.8150105476379395, 
457, 3437752216, 0.74970347, 0.20668364, -0.4935077, 0.38945925, 12.592595100402832, -0.42173120379447937, 5.432781219482422, 21.70940399169922, -19.671384811401367, -5.621613502502441, 
458, 3437768883, 0.7483376, 0.20962168, -0.49407488, 0.3897969, 11.731365203857422, -0.847204864025116, 5.635564804077148, 17.64093589782715, -16.823537826538086, -3.477142333984375, 
459, 3437785550, 0.7470124, 0.21164922, -0.49475586, 0.39037916, 11.127102851867676, -0.8676022291183472, 5.9598565101623535, 13.423648834228516, -14.478194236755371, 0.9316120147705078, 
460, 3437802217, 0.7458693, 0.2130793, -0.49455208, 0.3920412, 10.657607078552246, -0.6884146928787231, 5.198495864868164, 16.13654327392578, -6.148802280426025, 6.73362398147583, 
461, 3437818884, 0.7449967, 0.21326154, -0.49427143, 0.3939506, 9.724947929382324, -0.6449693441390991, 5.361329555511475, 10.388699531555176, -1.1112782955169678, 11.405806541442871, 
462, 3437835551, 0.7441557, 0.21317147, -0.4939073, 0.39603993, 9.047471046447754, -0.6119643449783325, 4.322516441345215, 9.782075881958008, 0.4145931601524353, 13.046442985534668, 
463, 3437852218, 0.7428101, 0.21318093, -0.49403083, 0.39839977, 8.59411334991455, -0.5658284425735474, 4.099537372589111, 10.6199369430542, -3.6678526401519775, 16.18286895751953, 
464, 3437868885, 0.7412354, 0.21320878, -0.49415526, 0.40115407, 8.27462100982666, -0.5062397122383118, 3.8642146587371826, 12.385529518127441, -3.9224064350128174, 18.767009735107422, 
465, 3437885552, 0.7398309, 0.21331939, -0.49379343, 0.40412214, 7.81421422958374, -0.43869316577911377, 3.6824452877044678, 14.622419357299805, -0.779581606388092, 18.396408081054688, 
466, 3437902219, 0.7387657, 0.2137796, -0.49289304, 0.40691742, 7.399720191955566, -0.37566548585891724, 3.468217134475708, 16.8103084564209, 1.8893622159957886, 14.602771759033203, 
467, 3437918886, 0.73803645, 0.21486518, -0.49151537, 0.40932858, 7.014767646789551, -0.24724698066711426, 3.0171875953674316, 19.524641036987305, 3.139033079147339, 8.895777702331543, 
468, 3437935553, 0.7374398, 0.21667472, -0.4899068, 0.41137293, 6.577977180480957, 0.03973200172185898, 2.6911516189575195, 22.40816879272461, 2.1862783432006836, 3.880228281021118, 
469, 3437952220, 0.73680866, 0.21897665, -0.48823535, 0.41326788, 6.183406352996826, 0.3402789831161499, 2.704284429550171, 24.627607345581055, 0.7802796363830566, 1.4785600900650024, 
470, 3437968887, 0.73605996, 0.22136359, -0.48657414, 0.41528443, 5.975190162658691, 0.5310409069061279, 2.885558843612671, 25.608755111694336, 0.2792815864086151, 2.173614501953125, 
471, 3437985554, 0.73530984, 0.22326428, -0.48502052, 0.4174078, 6.0002055168151855, 0.47015702724456787, 3.032489538192749, 23.193906784057617, 1.2825584411621094, 4.52305793762207, 
472, 3438002221, 0.73461634, 0.22447583, -0.48364016, 0.41957527, 6.180943012237549, 0.16849496960639954, 3.3129608631134033, 19.264942169189453, 2.6403915882110596, 7.162358283996582, 
473, 3438018888, 0.7340794, 0.22494273, -0.48217857, 0.4219405, 6.270488739013672, -0.07886509597301483, 3.693075656890869, 16.149263381958008, 6.020631790161133, 10.068942070007324, 
474, 3438035555, 0.733709, 0.22518125, -0.4801961, 0.4247096, 6.137247085571289, -0.12260334938764572, 3.4864909648895264, 17.58378028869629, 10.480737686157227, 11.581009864807129, 
475, 3438052222, 0.7334319, 0.22554588, -0.47786307, 0.42761552, 5.957100868225098, -0.15383018553256989, 3.3382155895233154, 19.54793930053711, 12.396012306213379, 11.045207023620605, 
476, 3438068889, 0.7331781, 0.22652237, -0.47520766, 0.4304845, 5.996429920196533, -0.09252393245697021, 3.581653594970703, 23.420530319213867, 12.238791465759277, 8.283744812011719, 
477, 3438085556, 0.7332004, 0.22799994, -0.4719634, 0.4332269, 6.113771915435791, 0.146854430437088, 3.684145450592041, 26.84198760986328, 14.42227554321289, 4.280702590942383, 
478, 3438102223, 0.73362637, 0.22963406, -0.4683786, 0.4355272, 6.227431297302246, 0.4349902868270874, 3.751152992248535, 26.57221794128418, 16.2846736907959, -0.1847258359193802, 
479, 3438118890, 0.7344385, 0.23109771, -0.46490002, 0.43710858, 6.630788803100586, 0.4485241174697876, 3.8582005500793457, 22.461694717407227, 16.361230850219727, -4.23925256729126, 
480, 3438135557, 0.73557377, 0.23215106, -0.4620754, 0.4376359, 7.420195579528809, 0.24848692119121552, 4.106272220611572, 14.535858154296875, 13.6455078125, -8.170188903808594, 
481, 3438152224, 0.73711866, 0.2324348, -0.46023065, 0.43682933, 9.027737617492676, -0.22297029197216034, 4.362295627593994, 2.798970937728882, 10.177803039550781, -12.130742073059082, 
482, 3438168891, 0.7389853, 0.23256296, -0.45859948, 0.43532, 10.798842430114746, -0.6649718284606934, 4.811302661895752, -1.37088942527771, 9.462841033935547, -15.821335792541504, 
483, 3438185558, 0.7406527, 0.23300718, -0.45734674, 0.43356323, 11.271858215332031, -0.5224983096122742, 4.906476020812988, -1.3568021059036255, 5.58412504196167, -16.874553680419922, 
484, 3438202225, 0.7421736, 0.23300068, -0.4569673, 0.43136036, 11.996524810791016, -0.9048245549201965, 4.7885284423828125, -7.422536373138428, 1.3227308988571167, -15.893010139465332, 
485, 3438218892, 0.74353755, 0.2325888, -0.45738387, 0.42878482, 12.39132022857666, -1.4908058643341064, 5.062974452972412, -12.766661643981934, -2.604104518890381, -14.78415298461914, 
486, 3438235559, 0.7445058, 0.23218411, -0.45851228, 0.4261105, 13.250469207763672, -2.0303592681884766, 5.831324100494385, -14.497034072875977, -7.645076274871826, -13.017053604125977, 
487, 3438252226, 0.7453548, 0.23128873, -0.45983452, 0.42368168, 15.189491271972656, -2.7209999561309814, 6.630671501159668, -16.600605010986328, -7.165911674499512, -9.57374095916748, 
488, 3438268893, 0.74538904, 0.23084033, -0.46194214, 0.42156774, 14.806224822998047, -2.9092962741851807, 6.907751083374023, -14.290094375610352, -14.546055793762207, -5.775434970855713, 
489, 3438285560, 0.7439625, 0.23158106, -0.4652662, 0.42002302, 13.958112716674805, -2.259199619293213, 6.654592514038086, -7.578724384307861, -27.94846534729004, -0.498367041349411, 
490, 3438302227, 0.742765, 0.23164205, -0.46823463, 0.41880897, 12.753663063049316, -1.7867463827133179, 6.61264705657959, -9.322280883789062, -22.89706802368164, 2.1198267936706543, 
491, 3438318894, 0.7417782, 0.23183422, -0.47082296, 0.41754776, 11.43381404876709, -1.2472789287567139, 5.657108783721924, -8.03853988647461, -20.729846954345703, 0.22973352670669556, 
492, 3438335561, 0.7407067, 0.23283866, -0.47318044, 0.41622394, 10.248957633972168, -0.6926268935203552, 5.6821722984313965, -3.2948811054229736, -22.25570297241211, -2.8514349460601807, 
493, 3438352228, 0.7402013, 0.23378308, -0.47471866, 0.41483986, 9.38076114654541, -0.5290724039077759, 5.371631622314453, -2.3575685024261475, -16.173009872436523, -5.896645545959473, 
494, 3438368895, 0.740499, 0.2341808, -0.47551507, 0.41316894, 8.693168640136719, -0.6638774275779724, 4.896997928619385, -5.251739978790283, -8.687020301818848, -9.056893348693848, 
495, 3438385562, 0.74119806, 0.23456527, -0.47590074, 0.41124892, 8.202710151672363, -0.7234415411949158, 4.624025344848633, -5.611547946929932, -5.6548590660095215, -12.086956024169922, 
496, 3438402229, 0.7421302, 0.23504008, -0.47582296, 0.40938252, 7.909547328948975, -0.8420350551605225, 4.3889265060424805, -4.038747787475586, -2.7073731422424316, -13.520447731018066, 
497, 3438418896, 0.7431763, 0.23542905, -0.47532958, 0.40783137, 7.894383907318115, -1.0501223802566528, 4.063344478607178, -2.4562911987304688, 0.531783938407898, -12.629443168640137, 
498, 3438435563, 0.74412185, 0.23582467, -0.47449684, 0.40684724, 7.894262313842773, -1.2813645601272583, 3.7127175331115723, 0.5497127771377563, 2.8355448246002197, -10.031967163085938, 
499, 3438452230, 0.74477553, 0.23623855, -0.47350895, 0.40656203, 7.787959575653076, -1.388887643814087, 3.4086639881134033, 3.838409185409546, 3.762237310409546, -5.9615936279296875, 
500, 3438468897, 0.74503154, 0.23655406, -0.4726399, 0.40692034, 7.512650966644287, -1.428627610206604, 3.3709800243377686, 5.749500751495361, 3.1864380836486816, -1.0554801225662231, 
501, 3438485564, 0.7450136, 0.23670512, -0.47174695, 0.4079005, 7.094185829162598, -1.364621639251709, 3.456610918045044, 7.449135780334473, 3.8950908184051514, 3.3790717124938965, 
502, 3438502231, 0.7448601, 0.2365631, -0.4707972, 0.40935734, 6.5504865646362305, -1.2833086252212524, 3.6406331062316895, 7.879186630249023, 5.346935749053955, 7.0451226234436035, 
503, 3438518898, 0.7446138, 0.2363054, -0.46985668, 0.41103172, 6.140040397644043, -1.0976715087890625, 3.262399911880493, 8.125046730041504, 5.674984455108643, 8.797675132751465, 
504, 3438535565, 0.74422866, 0.23590674, -0.46940565, 0.41247094, 6.003024101257324, -0.8827014565467834, 3.108313798904419, 5.49064826965332, 2.7358345985412598, 9.227287292480469, 
505, 3438552232, 0.7436858, 0.23556341, -0.4693231, 0.41373846, 6.132328987121582, -0.6741766333580017, 3.1336984634399414, 4.434238433837891, -0.09427397698163986, 9.207154273986816, 
506, 3438568899, 0.7431506, 0.23526657, -0.4693635, 0.4148216, 6.226707458496094, -0.5453366041183472, 3.250699043273926, 3.718362331390381, -1.1293728351593018, 8.289114952087402, 
507, 3438585566, 0.7428598, 0.23472211, -0.46938357, 0.41562736, 6.373391628265381, -0.429924339056015, 3.357692241668701, 1.2221742868423462, 0.02065664902329445, 6.938187599182129, 
508, 3438602233, 0.742879, 0.23394932, -0.46928662, 0.41613787, 6.616846084594727, -0.3116289973258972, 3.670490264892578, -1.064124584197998, 1.7935423851013184, 5.091023921966553, 
509, 3438618900, 0.74323606, 0.23295355, -0.4688744, 0.41652358, 6.928439617156982, -0.2989857494831085, 4.018507480621338, -2.246650218963623, 4.927806854248047, 3.6998703479766846, 
510, 3438635567, 0.7439293, 0.23160572, -0.46815592, 0.4168453, 7.042985439300537, -0.439558207988739, 4.279009819030762, -3.915497303009033, 8.477587699890137, 3.0549681186676025, 
511, 3438652234, 0.74493194, 0.2298396, -0.4671467, 0.41716436, 7.03289794921875, -0.6019623875617981, 4.19737434387207, -5.71967077255249, 12.146265983581543, 3.038935661315918, 
512, 3438668901, 0.7461439, 0.22790547, -0.46585524, 0.41750377, 6.7906951904296875, -0.6804327368736267, 3.9086930751800537, -6.036432266235352, 14.773414611816406, 2.632469654083252, 
513, 3438685568, 0.7473925, 0.22604643, -0.46439323, 0.4179095, 6.6369829177856445, -0.7151877284049988, 3.734646797180176, -5.0060648918151855, 15.650603294372559, 2.356729507446289, 
514, 3438702235, 0.7485327, 0.22431374, -0.46292362, 0.4184325, 6.699320316314697, -0.6690673828125, 3.7926087379455566, -3.7911882400512695, 15.161989212036133, 2.8506832122802734, 
515, 3438718902, 0.74932104, 0.22275215, -0.46189225, 0.4189954, 7.3863444328308105, -0.6315701007843018, 3.8822991847991943, -3.498741388320923, 11.353384971618652, 4.199062824249268, 
516, 3438735569, 0.7495407, 0.22127958, -0.4620411, 0.41921848, 8.856865882873535, -0.7684293985366821, 4.545907020568848, -6.644211292266846, 2.6932015419006348, 5.610757350921631, 
517, 3438752236, 0.7493281, 0.21998353, -0.4627262, 0.41952497, 10.7510404586792, -0.9560847878456116, 5.030434608459473, -6.3553385734558105, -1.8209803104400635, 7.541200637817383, 
518, 3438768903, 0.74888, 0.21919721, -0.46322265, 0.42018813, 11.959996223449707, -0.9383862018585205, 4.892879486083984, -1.6962718963623047, -2.5187857151031494, 8.146262168884277, 
519, 3438785570, 0.7478755, 0.2195248, -0.46368766, 0.42129186, 12.12138843536377, -0.6688199639320374, 4.315437316894531, 6.3724164962768555, -6.6642680168151855, 8.429272651672363, 
520, 3438802237, 0.7466011, 0.22035892, -0.4644186, 0.4223104, 11.919453620910645, -0.8431644439697266, 5.049110412597656, 8.34317684173584, -10.461636543273926, 7.563948631286621, 
521, 3438818904, 0.745187, 0.2216252, -0.4652154, 0.42326725, 13.204042434692383, -0.702263355255127, 5.3560004234313965, 10.38311767578125, -12.578634262084961, 6.374099254608154, 
522, 3438835571, 0.74336034, 0.22316584, -0.46639732, 0.42436796, 15.634246826171875, -0.5383793711662292, 6.195197582244873, 11.762035369873047, -16.430822372436523, 8.027737617492676, 
523, 3438852238, 0.7399735, 0.22720908, -0.4686898, 0.42561394, 14.889436721801758, -0.13454121351242065, 7.132628440856934, 24.167512893676758, -34.16585922241211, 7.0111870765686035, 
524, 3438868905, 0.7369534, 0.23158415, -0.47029978, 0.42671844, 13.907159805297852, 0.18356634676456451, 7.20442008972168, 26.81689453125, -30.6981143951416, 3.0922391414642334, 
525, 3438885572, 0.7348957, 0.23506105, -0.4705548, 0.4280824, 13.1017484664917, 0.0018355883657932281, 6.393723487854004, 25.539459228515625, -17.674915313720703, 2.343928575515747, 
526, 3438902239, 0.7328167, 0.23820718, -0.47112364, 0.4292803, 12.105594635009766, 0.11166104674339294, 6.319862365722656, 22.435232162475586, -18.623905181884766, 3.1540088653564453, 
527, 3438918906, 0.7311722, 0.24007809, -0.47210303, 0.42996565, 11.234444618225098, 0.12308657914400101, 6.4610595703125, 12.418939590454102, -16.3646240234375, 4.101662635803223, 
528, 3438935573, 0.7305369, 0.24017312, -0.47279942, 0.43022713, 10.25326156616211, 0.0697239562869072, 6.04118013381958, 1.2872432470321655, -7.12748384475708, 4.29641580581665, 
529, 3438952240, 0.7306647, 0.23924544, -0.47311452, 0.4301806, 9.275238990783691, -0.1110989972949028, 5.329057693481445, -4.98898983001709, -0.2279338240623474, 3.1937122344970703, 
530, 3438968907, 0.7313098, 0.23759472, -0.47315112, 0.42995924, 8.447833061218262, -0.43340131640434265, 4.763371467590332, -9.227792739868164, 4.695322036743164, 2.6808953285217285, 
531, 3438985574, 0.73195034, 0.23569909, -0.47329935, 0.42974958, 7.781761646270752, -0.6326466202735901, 4.276337146759033, -10.74383544921875, 4.8561320304870605, 3.7336807250976562, 
532, 3439002241, 0.7322796, 0.23385306, -0.4736531, 0.42980713, 7.2436699867248535, -0.7139884233474731, 3.968261480331421, -9.730289459228516, 3.0905704498291016, 6.167041301727295, 
533, 3439018908, 0.73228854, 0.23232919, -0.47405708, 0.43017283, 6.852673530578613, -0.6661624908447266, 3.49790096282959, -6.73854398727417, 1.3336536884307861, 7.693020820617676, 
534, 3439035575, 0.7320406, 0.23123577, -0.4745992, 0.43058613, 6.622751712799072, -0.5940223336219788, 3.1685385704040527, -4.402439594268799, -1.3970448970794678, 7.514415264129639, 
535, 3439052242, 0.7315194, 0.23102166, -0.47515476, 0.43097383, 6.464717388153076, -0.4737253189086914, 2.92973256111145, 0.3280346691608429, -4.997914791107178, 5.342629909515381, 
536, 3439068909, 0.730763, 0.23188289, -0.47552872, 0.43138197, 6.176141738891602, -0.2506231963634491, 2.7211058139801025, 6.703679084777832, -8.002965927124023, 2.3354053497314453, 
537, 3439085576, 0.72984916, 0.23359762, -0.47560677, 0.4319174, 6.035852432250977, -0.05631529912352562, 2.6439943313598633, 12.554971694946289, -9.357306480407715, 0.1939651370048523, 
538, 3439102243, 0.7288317, 0.23589586, -0.47537342, 0.4326428, 6.058571815490723, 0.0762278214097023, 2.7131898403167725, 17.189655303955078, -9.557988166809082, -0.9512889981269836, 
539, 3439118910, 0.7278072, 0.23825863, -0.47502327, 0.43345633, 6.295648574829102, 0.2095411717891693, 3.0569510459899902, 18.1505184173584, -9.040278434753418, -0.885771632194519, 
540, 3439135577, 0.7269244, 0.2401946, -0.47460204, 0.43433008, 6.593021869659424, 0.2509540915489197, 3.4490530490875244, 16.19066047668457, -6.852972507476807, 0.28099721670150757, 
541, 3439152244, 0.72628206, 0.241488, -0.4740405, 0.43529958, 6.756669998168945, 0.20366069674491882, 3.7345948219299316, 13.303847312927246, -3.2933404445648193, 1.9107471704483032, 
542, 3439168911, 0.7259724, 0.24216568, -0.47312808, 0.43643054, 6.910761833190918, 0.13760113716125488, 3.884438991546631, 11.267889022827148, 1.6481778621673584, 3.1610822677612305, 
543, 3439185578, 0.72603816, 0.24249636, -0.4716111, 0.4377774, 6.918412208557129, 0.04148676246404648, 3.895015239715576, 11.408313751220703, 7.282283782958984, 3.233708143234253, 
544, 3439202245, 0.72644734, 0.24262467, -0.46954146, 0.43924975, 6.783165454864502, -0.018022650852799416, 3.820936679840088, 11.890732765197754, 11.967583656311035, 2.565268039703369, 
545, 3439218912, 0.7271163, 0.24279764, -0.4669031, 0.44085696, 6.59722900390625, -0.003242331091314554, 3.7815191745758057, 13.839805603027344, 15.731460571289062, 1.3691290616989136, 
546, 3439235579, 0.7279534, 0.24297708, -0.46392274, 0.44251972, 6.389279842376709, 0.019996434450149536, 3.7508273124694824, 14.79435920715332, 18.048612594604492, 0.5448471903800964, 
547, 3439252246, 0.72881424, 0.243101, -0.46101308, 0.44407296, 6.258437156677246, 0.023018084466457367, 3.855943441390991, 13.91275405883789, 17.750680923461914, 0.2268008291721344, 
548, 3439268913, 0.72952455, 0.24318211, -0.4585605, 0.4453995, 6.394188404083252, 0.010498719289898872, 4.000457286834717, 11.827178001403809, 14.729087829589844, 0.4498364329338074, 
549, 3439285580, 0.72994685, 0.24342945, -0.4567849, 0.44639608, 6.878228187561035, -0.2118537425994873, 3.883594274520874, 10.027199745178223, 9.357118606567383, 0.28850165009498596, 
550, 3439302247, 0.73010874, 0.24379355, -0.45579538, 0.4469439, 8.227502822875977, -0.44591015577316284, 4.010824203491211, 7.23179817199707, 3.482200860977173, -0.21138803660869598, 
551, 3439318914, 0.73020566, 0.24422969, -0.45525396, 0.4470988, 9.395963668823242, -0.544613242149353, 5.156744480133057, 5.089602470397949, 0.1534072756767273, -1.4603018760681152, 
552, 3439335581, 0.7303728, 0.2451275, -0.45448223, 0.44711977, 10.198836326599121, -0.27074408531188965, 4.510278224945068, 7.581604957580566, -0.11568620055913925, -4.179999828338623, 
553, 3439352248, 0.73046505, 0.24619386, -0.45415667, 0.4467139, 11.08728313446045, -0.5252091884613037, 4.486987113952637, 5.841002941131592, -3.817976713180542, -5.867684364318848, 
554, 3439368915, 0.73072916, 0.24693476, -0.45401907, 0.4460123, 12.049558639526367, -1.2076307535171509, 4.730343818664551, 2.432899236679077, -3.7124524116516113, -6.53604793548584, 
555, 3439385582, 0.73097277, 0.24728504, -0.4542808, 0.44515145, 13.55336856842041, -2.1094906330108643, 5.783762454986572, -1.2211942672729492, -4.83779764175415, -5.386460304260254, 
556, 3439402249, 0.7312737, 0.24700823, -0.45436528, 0.4447247, 17.17201805114746, -3.1736857891082764, 6.716917037963867, -2.5697669982910156, -1.0956920385360718, -1.739953875541687, 
557, 3439418916, 0.72977674, 0.24853544, -0.45515978, 0.4455197, 15.76321792602539, -2.7619051933288574, 7.103522777557373, 11.234369277954102, -13.69800090789795, 5.458725452423096, 
558, 3439435583, 0.7267271, 0.2507999, -0.4576858, 0.4466465, 14.356938362121582, -2.0347111225128174, 6.881032466888428, 13.281250953674316, -28.920848846435547, 12.486087799072266, 
559, 3439452250, 0.72402745, 0.25206047, -0.4597381, 0.4482104, 12.837489128112793, -1.2305586338043213, 5.673602104187012, 10.526670455932617, -21.61136245727539, 15.938176155090332, 
560, 3439468917, 0.7209118, 0.25386438, -0.46229893, 0.44957834, 11.881298065185547, -0.8604507446289062, 5.518657207489014, 11.830977439880371, -27.46664047241211, 15.43275260925293, 
561, 3439485584, 0.7178409, 0.25612906, -0.46470484, 0.45072582, 10.882842063903809, -0.6272719502449036, 6.246539115905762, 13.802958488464355, -28.360374450683594, 12.459272384643555, 
562, 3439502251, 0.7156367, 0.25799796, -0.46607974, 0.4517442, 10.323247909545898, -0.4327203631401062, 6.265331745147705, 13.095085144042969, -19.512649536132812, 8.578710556030273, 
563, 3439518918, 0.7144816, 0.25933453, -0.4661606, 0.45272294, 9.832119941711426, -0.3373717963695526, 5.474297046661377, 12.51418399810791, -8.21499252319336, 4.5399065017700195, 
564, 3439535585, 0.7141614, 0.26065505, -0.46512026, 0.45353913, 9.236672401428223, -0.23156285285949707, 4.8294997215271, 13.85778522491455, -0.2760474681854248, -0.8277838230133057, 
565, 3439552252, 0.71453685, 0.26188317, -0.4635177, 0.45388082, 8.776150703430176, -0.39089030027389526, 4.444277286529541, 12.333111763000488, 4.145149230957031, -6.063331127166748, 
566, 3439568919, 0.7153152, 0.26299486, -0.46175328, 0.4538103, 8.41849422454834, -0.7095587849617004, 4.212062358856201, 10.3062105178833, 5.838674545288086, -9.228344917297363, 
567, 3439585586, 0.71614534, 0.2639879, -0.46005, 0.45365447, 8.044547080993652, -0.8428349494934082, 3.8732876777648926, 9.149643898010254, 5.919137477874756, -9.33371639251709, 
568, 3439602253, 0.71690375, 0.26440817, -0.45866096, 0.4536182, 7.69525146484375, -0.9244706034660339, 3.6796529293060303, 5.874261379241943, 6.147191047668457, -6.138437271118164, 
569, 3439618920, 0.71768385, 0.2639067, -0.45750165, 0.4538474, 7.191855430603027, -0.8586902618408203, 3.5271074771881104, 1.4353231191635132, 8.441115379333496, -1.5681570768356323, 
570, 3439635587, 0.7184962, 0.2624602, -0.45660177, 0.4543069, 6.524330139160156, -0.8378170132637024, 3.3765366077423096, -3.3812170028686523, 10.630888938903809, 2.8994998931884766, 
571, 3439652254, 0.71936893, 0.26026672, -0.4560389, 0.45475292, 5.805146217346191, -0.832635760307312, 3.0646934509277344, -8.328108787536621, 11.466249465942383, 5.56552791595459, 
572, 3439668921, 0.7202726, 0.2576578, -0.45609373, 0.45475337, 5.285049915313721, -0.7828621864318848, 2.8895511627197266, -13.731437683105469, 9.006063461303711, 5.68372106552124, 
573, 3439685588, 0.721249, 0.25499737, -0.45666307, 0.45413327, 5.13588285446167, -0.8309618830680847, 2.835162878036499, -17.619924545288086, 5.745665073394775, 3.473700523376465, 
574, 3439702255, 0.7223565, 0.25265387, -0.4574481, 0.45289114, 5.223223686218262, -0.7899254560470581, 2.9326531887054443, -18.873388290405273, 3.0029523372650146, -0.6274286508560181, 
575, 3439718922, 0.72373104, 0.25058407, -0.45820644, 0.45107657, 5.578120231628418, -0.6764175891876221, 3.2303466796875, -19.783231735229492, 2.1332848072052, -5.258070468902588, 
576, 3439735589, 0.72550684, 0.2485643, -0.45867488, 0.4488599, 6.055850028991699, -0.5506176352500916, 3.4859392642974854, -20.504419326782227, 3.983128070831299, -9.119963645935059, 
577, 3439752256, 0.72767043, 0.24617235, -0.458946, 0.44639164, 6.5545172691345215, -0.4722806215286255, 3.8237171173095703, -23.22012710571289, 6.907774448394775, -10.743138313293457, 
578, 3439768923, 0.73030734, 0.242836, -0.4589685, 0.44388282, 7.099041938781738, -0.43780460953712463, 3.938100576400757, -28.141447067260742, 12.472789764404297, -9.855961799621582, 
579, 3439785590, 0.7332025, 0.23856972, -0.45872763, 0.44166696, 7.272652626037598, -0.5418022274971008, 4.1189799308776855, -31.602195739746094, 17.941781997680664, -6.72269344329834, 
580, 3439802257, 0.7361614, 0.23374015, -0.45803678, 0.44004145, 6.918165683746338, -0.7771822214126587, 4.189662456512451, -31.32206916809082, 23.087970733642578, -2.9037716388702393, 
581, 3439818924, 0.7391546, 0.22856662, -0.45677698, 0.43904972, 6.344497203826904, -1.0892194509506226, 3.9968461990356445, -29.21536636352539, 28.1185359954834, 0.45967376232147217, 
582, 3439835591, 0.74198717, 0.22371586, -0.45484912, 0.438772, 5.722611427307129, -1.3089191913604736, 3.178413152694702, -23.10727882385254, 31.15582275390625, 2.4810001850128174, 
583, 3439852258, 0.7444475, 0.21920481, -0.45262238, 0.43918338, 5.282783031463623, -1.5537030696868896, 3.4341328144073486, -17.713523864746094, 31.551355361938477, 5.6052632331848145, 
584, 3439868925, 0.74635214, 0.21516034, -0.45061433, 0.44001526, 5.3446807861328125, -1.5685511827468872, 3.3877196311950684, -14.039274215698242, 27.94158363342285, 8.189882278442383, 
585, 3439885592, 0.7468703, 0.21253088, -0.45026803, 0.44076756, 6.574620246887207, -1.3371490240097046, 3.688882827758789, -9.911812782287598, 10.71170425415039, 10.087662696838379, 
586, 3439902259, 0.74579114, 0.2115216, -0.45168293, 0.44163185, 9.007647514343262, -1.3926681280136108, 5.087825775146484, -4.2845025062561035, -8.017210006713867, 13.033685684204102, 
587, 3439918926, 0.74417335, 0.2110291, -0.45298266, 0.4432622, 12.007885932922363, -1.3657315969467163, 5.458004951477051, 2.0214338302612305, -9.565594673156738, 16.89980697631836, 
588, 3439935593, 0.7419154, 0.21237212, -0.45381153, 0.4455523, 13.518204689025879, -0.5759878754615784, 5.668186187744141, 15.473755836486816, -13.736489295959473, 15.627370834350586, 
589, 3439952260, 0.7393045, 0.21528102, -0.45514742, 0.44713077, 13.251611709594727, 0.20059789717197418, 5.434453010559082, 20.486467361450195, -23.271753311157227, 9.102261543273926, 
590, 3439968927, 0.73691404, 0.2187621, -0.4567533, 0.44774944, 13.372552871704102, 0.31865957379341125, 6.075489521026611, 19.26673126220703, -27.120492935180664, 2.1910598278045654, 
591, 3439985594, 0.7349099, 0.22224629, -0.45808986, 0.4479621, 14.815881729125977, 0.0649278461933136, 6.864148139953613, 17.937387466430664, -25.120229721069336, -1.6181581020355225, 
592, 3440002261, 0.73238486, 0.22612317, -0.45996225, 0.44823834, 13.909150123596191, 0.2969886064529419, 7.056471347808838, 19.501291275024414, -30.59477424621582, 0.03131167218089104, 
593, 3440018928, 0.72959054, 0.23003843, -0.46254113, 0.4481493, 13.54191780090332, 0.11721140146255493, 7.036275386810303, 16.78218650817871, -35.68800354003906, 0.018825436010956764, 
594, 3440035595, 0.7275889, 0.23273604, -0.46441802, 0.44806954, 13.230299949645996, -0.5723626017570496, 6.6425957679748535, 11.588293075561523, -25.87727928161621, 0.3896086812019348, 
595, 3440052262, 0.7259139, 0.23451576, -0.4659556, 0.448262, 12.739664077758789, -1.046470284461975, 6.384530067443848, 8.000165939331055, -19.837804794311523, 2.948667049407959, 
596, 3440068929, 0.72419137, 0.23561738, -0.46748707, 0.44887567, 12.020195007324219, -1.1562504768371582, 6.63364839553833, 6.872563362121582, -17.2613525390625, 7.758035659790039, 
597, 3440085596, 0.72255206, 0.23584317, -0.46860382, 0.4502322, 11.262977600097656, -0.9711897373199463, 6.362388610839844, 5.602681636810303, -10.98814868927002, 13.127188682556152, 
598, 3440102263, 0.721069, 0.23518386, -0.46949217, 0.45202562, 10.166596412658691, -0.7344837784767151, 5.600039958953857, 3.293105363845825, -5.929403781890869, 17.404552459716797, 
599, 3440118930, 0.7195588, 0.23431331, -0.47031882, 0.45402077, 9.097893714904785, -0.5868061184883118, 5.1046648025512695, 2.7012977600097656, -4.690555572509766, 18.865659713745117, 
600, 3440135597, 0.71820325, 0.23343842, -0.47099844, 0.45590934, 8.382118225097656, -0.4996834099292755, 4.6722412109375, 2.7330703735351562, -3.6456332206726074, 17.727991104125977, 
601, 3440152264, 0.71718794, 0.23266916, -0.4713233, 0.45756176, 7.722006797790527, -0.4558504521846771, 4.174134254455566, 3.071284770965576, -1.5083776712417603, 14.594828605651855, 
602, 3440168931, 0.7165544, 0.23212379, -0.47131017, 0.45884317, 7.157707691192627, -0.30849504470825195, 3.9847300052642822, 3.472776174545288, 0.08867119997739792, 10.324674606323242, 
603, 3440185598, 0.71629435, 0.23185457, -0.4709636, 0.4597405, 6.755356788635254, -0.19511836767196655, 3.9256298542022705, 3.7600862979888916, 1.486382246017456, 5.695919990539551, 
604, 3440202265, 0.71639925, 0.23183551, -0.47036967, 0.46019435, 6.461627006530762, -0.037347905337810516, 3.7181999683380127, 4.030670166015625, 2.3518731594085693, 1.2918148040771484, 
605, 3440218932, 0.7167712, 0.2319482, -0.46978113, 0.46015975, 6.160698890686035, 0.14399206638336182, 3.3655622005462646, 2.9003307819366455, 1.959883689880371, -2.2501332759857178, 
606, 3440235599, 0.71719974, 0.23210391, -0.4693433, 0.45986024, 6.0178728103637695, 0.18362942337989807, 3.1802401542663574, 1.2996267080307007, 0.8829593658447266, -3.8138270378112793, 
607, 3440252266, 0.71757525, 0.23217875, -0.46911326, 0.45947108, 6.067497730255127, 0.10167964547872543, 3.1678199768066406, 0.16954326629638672, -0.21622882783412933, -3.422593355178833, 
608, 3440268933, 0.7178781, 0.23204798, -0.46899608, 0.45918354, 6.149107456207275, -0.09116216748952866, 3.101505994796753, -0.8750514984130859, -0.18567286431789398, -1.8978432416915894, 
609, 3440285600, 0.71806073, 0.23182444, -0.4689334, 0.45907494, 6.250030040740967, -0.293552964925766, 3.092618227005005, -0.730493426322937, -0.26389405131340027, -0.2406633198261261, 
610, 3440302267, 0.71800256, 0.23174754, -0.4688973, 0.45924166, 6.3877272605896, -0.4606591463088989, 3.426111936569214, 1.3262385129928589, -1.2120634317398071, 1.5235331058502197, 
611, 3440318934, 0.7177988, 0.23190169, -0.46857595, 0.45980972, 6.622726917266846, -0.5937957167625427, 3.78362774848938, 5.361826419830322, -0.41709640622138977, 2.995328426361084, 
612, 3440335601, 0.7175257, 0.23230353, -0.46766272, 0.46096146, 6.7548604011535645, -0.6717240214347839, 3.910658359527588, 9.993618965148926, 2.474623441696167, 4.1344170570373535, 
613, 3440352268, 0.7172731, 0.23291409, -0.46613103, 0.46259525, 6.7957658767700195, -0.7137351036071777, 4.057276725769043, 14.485246658325195, 5.69865083694458, 4.781177520751953, 
614, 3440368935, 0.7171942, 0.23347117, -0.46407646, 0.46449855, 6.6584391593933105, -0.6189464926719666, 4.101361274719238, 16.63900375366211, 9.411154747009277, 4.975670337677002, 
615, 3440385602, 0.7173352, 0.23382021, -0.46178526, 0.46638477, 6.555300712585449, -0.4552842974662781, 4.351972579956055, 16.23371124267578, 11.88103199005127, 4.610945701599121, 
616, 3440402269, 0.7177665, 0.23422542, -0.45892164, 0.46834046, 6.503897666931152, -0.08248914033174515, 4.093214511871338, 17.654678344726562, 15.600008964538574, 2.7039124965667725, 
617, 3440418936, 0.71856844, 0.23426364, -0.45603567, 0.469908, 6.368688583374023, 0.08474337309598923, 4.502754211425781, 13.887358665466309, 17.45151138305664, 0.6184325218200684, 
618, 3440435603, 0.71981525, 0.23380499, -0.45360184, 0.47058344, 6.181314945220947, 0.3913031816482544, 4.537235260009766, 6.830941200256348, 16.73160743713379, -2.7419519424438477, 
619, 3440452270, 0.7212446, 0.23317817, -0.45195293, 0.47029245, 6.569515228271484, 0.3858986794948578, 4.383054733276367, -0.19623823463916779, 12.432758331298828, -6.49878454208374, 
620, 3440468937, 0.72320175, 0.23153664, -0.45151183, 0.46851796, 8.590155601501465, -0.5418172478675842, 5.0074992179870605, -13.824081420898438, 8.89922046661377, -10.05852222442627, 
621, 3440485604, 0.72578776, 0.2292576, -0.45082167, 0.46629944, 11.42306137084961, -1.3453857898712158, 5.581040382385254, -19.600942611694336, 13.539368629455566, -13.252729415893555, 
622, 3440502271, 0.7284586, 0.22757366, -0.44968688, 0.46404988, 12.828164100646973, -1.2178558111190796, 5.32224178314209, -14.9801025390625, 14.025303840637207, -15.984583854675293, 
623, 3440518938, 0.73021835, 0.22725472, -0.4496621, 0.46145707, 12.455890655517578, -0.9093708992004395, 4.671910285949707, -12.46226978302002, 0.8857142329216003, -17.89776611328125, 
624, 3440535605, 0.7321383, 0.22651246, -0.45054892, 0.45790127, 12.824137687683105, -1.0464750528335571, 4.35082483291626, -19.892087936401367, -3.418389081954956, -20.063154220581055, 
625, 3440552272, 0.7345783, 0.2244534, -0.45228952, 0.45326784, 15.40030288696289, -2.217078685760498, 5.352598190307617, -32.83106994628906, -3.6647555828094482, -21.430973052978516, 
626, 3440568939, 0.73682016, 0.22283359, -0.4530095, 0.44969508, 15.82478141784668, -3.3572163581848145, 5.689939975738525, -23.959672927856445, 1.1830542087554932, -18.47542381286621, 
627, 3440585606, 0.73668355, 0.22330694, -0.45596674, 0.44668546, 14.634074211120605, -2.8456528186798096, 6.772817611694336, -15.421076774597168, -23.09004020690918, -11.671314239501953, 
628, 3440602273, 0.7360531, 0.2237006, -0.45874453, 0.44467905, 13.914241790771484, -2.453026294708252, 6.323244094848633, -10.805118560791016, -21.98174476623535, -4.815485954284668, 
629, 3440618940, 0.73507386, 0.224606, -0.46110186, 0.4434024, 13.083402633666992, -1.871523380279541, 5.158708095550537, -3.7333319187164307, -21.416162490844727, -2.144010305404663, 
630, 3440635607, 0.733757, 0.22627272, -0.46328503, 0.44245932, 12.344268798828125, -1.3400285243988037, 5.451805591583252, 1.4977312088012695, -23.33047866821289, -2.4926645755767822, 
631, 3440652274, 0.7326613, 0.22783309, -0.4648077, 0.44187707, 11.638898849487305, -1.0351840257644653, 5.561330795288086, 4.024054527282715, -18.422014236450195, -1.9096790552139282, 
632, 3440668941, 0.7319216, 0.22895616, -0.46548817, 0.44180623, 10.993791580200195, -1.0869343280792236, 5.118280410766602, 5.450346946716309, -10.907988548278809, -0.33904191851615906, 
633, 3440685608, 0.73135763, 0.23011516, -0.46546564, 0.4421617, 10.413426399230957, -1.1681021451950073, 4.268072605133057, 8.98198127746582, -6.251928806304932, 0.11142810434103012, 
634, 3440702275, 0.7307775, 0.23158866, -0.4650782, 0.44275877, 9.824713706970215, -1.102624773979187, 3.604825973510742, 12.274087905883789, -5.01589822769165, -0.308473140001297, 
635, 3440718942, 0.730026, 0.2333557, -0.46481833, 0.4433434, 9.504629135131836, -0.9559711217880249, 3.3697400093078613, 13.928030014038086, -7.135030746459961, -0.42320534586906433, 
636, 3440735609, 0.7291856, 0.23522396, -0.46468264, 0.443881, 9.151484489440918, -0.8315814137458801, 3.080503463745117, 14.143099784851074, -8.420161247253418, -0.46915459632873535, 
637, 3440752276, 0.7284044, 0.23667885, -0.46498352, 0.44407508, 8.68614673614502, -0.8451329469680786, 2.916452407836914, 9.458813667297363, -9.694535255432129, -0.38892269134521484, 
638, 3440768943, 0.7278232, 0.23739639, -0.46575716, 0.44383416, 8.362100601196289, -0.8137060403823853, 2.9607956409454346, 2.3918941020965576, -9.84923267364502, -0.15793435275554657, 
639, 3440785610, 0.72756165, 0.2372607, -0.46682674, 0.4432113, 8.098421096801758, -0.753710925579071, 3.056305408477783, -4.649852275848389, -8.308320045471191, 0.10949432104825974, 
640, 3440802277, 0.7275742, 0.23656368, -0.46791238, 0.4424178, 7.838636875152588, -0.6148014664649963, 2.807887077331543, -9.257617950439453, -6.008914947509766, -0.11336825788021088, 
641, 3440818944, 0.7279857, 0.23531733, -0.46901238, 0.44123903, 7.7332916259765625, -0.6685241460800171, 2.552278995513916, -13.790214538574219, -3.756265640258789, -1.3908153772354126, 
642, 3440835611, 0.72881347, 0.23384815, -0.4701683, 0.43941987, 7.771433353424072, -0.8407607078552246, 2.830550193786621, -16.34425163269043, -3.161179780960083, -4.348662376403809, 
643, 3440852278, 0.729879, 0.23272137, -0.47106382, 0.43728513, 7.886302471160889, -0.9679613709449768, 3.1174707412719727, -16.00788116455078, -2.5603184700012207, -8.53738021850586, 
644, 3440868945, 0.73112875, 0.23213133, -0.47174954, 0.43476462, 7.983126640319824, -1.0285024642944336, 3.255509853363037, -14.181546211242676, -3.139500141143799, -13.080992698669434, 
645, 3440885612, 0.73255336, 0.2317685, -0.4724888, 0.43174654, 8.360818862915039, -1.14651620388031, 3.4112513065338135, -13.54753303527832, -4.429166316986084, -16.027179718017578, 
646, 3440902279, 0.73401517, 0.23136838, -0.47318703, 0.42870295, 8.850584983825684, -1.2023394107818604, 3.5140974521636963, -14.704438209533691, -3.951796770095825, -16.663312911987305, 
647, 3440918946, 0.73542595, 0.23073858, -0.4739799, 0.42573863, 9.358461380004883, -1.2944494485855103, 3.6598613262176514, -16.5213680267334, -3.7313220500946045, -15.557841300964355, 
648, 3440935613, 0.73660785, 0.2300581, -0.4749495, 0.422974, 9.644991874694824, -1.5182982683181763, 3.8812167644500732, -16.783140182495117, -4.864187240600586, -13.671719551086426, 
649, 3440952280, 0.7374809, 0.22954778, -0.47608608, 0.42044482, 9.68835163116455, -1.6454873085021973, 4.136130332946777, -14.544210433959961, -6.877819538116455, -11.59471321105957, 
650, 3440968947, 0.73807174, 0.22941689, -0.47708032, 0.4183471, 9.607833862304688, -1.6514384746551514, 3.871159553527832, -10.490119934082031, -7.480650424957275, -10.129979133605957, 
